time,seconds_elapsed,z,y,x
1733724629138015200,0.10501513671875,-0.09209083919823169,0.34710265169721094,-0.7977849933996796
1733724629147976000,0.114975830078125,-0.25533845063745975,-0.032841471969895064,-0.7972956024475395
1733724629157937200,0.124937255859375,-0.35400866822600363,-0.2928070344187319,-0.5082436827786266
1733724629167897900,0.13489794921875,-0.2763110960394144,-0.3107083095513284,-0.49761828040052203
1733724629177859000,0.144859130859375,-0.14566110134422777,-0.0449791420744732,-0.6805896696917713
1733724629187820000,0.154820068359375,0.375647668582201,0.0861116917233914,-0.14349720130860805
1733724629197780700,0.16478076171875,1.1489227823644876,0.06270202843286096,0.5242485497053713
1733724629207742000,0.174741943359375,1.691058651742339,-0.14464965927936135,0.9308693756349384
1733724629217703000,0.184702880859375,1.989789669382572,-0.0906110489692539,0.4488181917984038
1733724629227664000,0.194663818359375,1.7449036391764878,-0.057242374787479636,0.012511398787796496
1733724629237624800,0.204624755859375,1.3110048571556805,-0.11784794239774346,0.04263941054791212
1733724629247586000,0.2145859375,0.9167448425620793,-0.15654672556109725,0.05573913061767816
1733724629257547000,0.224547119140625,1.0419389099389313,-0.00963197089396417,-0.24080402158945796
1733724629267508000,0.234508056640625,1.1510036802917718,-0.06692585667297243,-0.26769495112448927
1733724629277469000,0.244468994140625,1.0421890853077174,-0.23531112326160072,-0.23084157663211224
1733724629287430100,0.25443017578125,0.915354264986515,-0.42134964503850786,-0.20213278402015566
1733724629297390800,0.264390869140625,0.5783861634105444,-0.36627376410253343,-0.38312209611609577
1733724629307352000,0.27435205078125,0.30149113000333305,-0.29099187475554644,-0.5848910152599215
1733724629317313000,0.28431298828125,0.09240706554055213,-0.23634503288660197,-0.5249817593507469
1733724629327273700,0.294273681640625,0.042349195429682726,-0.35080548827052116,-0.12105915952920913
1733724629337235000,0.30423486328125,0.09684007955193519,-0.5489100396879018,0.38926659022048116
1733724629347196000,0.31419580078125,0.38679333197474475,-0.48142538008838887,0.7398517137385905
1733724629357156900,0.324156982421875,0.6289215879052877,-0.10375336607173084,0.8925657292690128
1733724629367117800,0.334117919921875,0.09021627749800681,0.048868701425497416,0.900065291244164
1733724629377079000,0.3440791015625,-0.6615414164811373,0.5124968101784586,0.4697540123213082
1733724629387040000,0.3540400390625,-0.8136053706049918,1.0102901183523236,0.058262292419746516
1733724629397001000,0.3640009765625,-0.971035820198059,1.3999454156294464,-0.4936966134447604
1733724629406962000,0.3739619140625,-0.8801321449577808,1.6444140972062944,-0.6920373847708106
1733724629416921900,0.383921875,-0.4071124819040298,1.2309848333708941,-0.22440328721292316
1733724629426883000,0.393883056640625,-0.03693184655606747,0.3820132215587422,0.3219445007715374
1733724629436843800,0.40384375,0.2501046416372061,-0.5190141196506097,0.6773650085568428
1733724629446805000,0.413804931640625,0.6073170743405819,-1.2202301420573145,0.960745750721544
1733724629456766000,0.423765869140625,0.7797381723165512,-1.6525544413030147,1.249287236650288
1733724629466727000,0.433726806640625,0.5739554874867201,-1.6727435351118445,1.2116896196618676
1733724629476688000,0.44368798828125,0.06361410177648068,-0.36935634988564997,0.45061859228387474
1733724629486649000,0.453649169921875,0.0916156229019165,0.1956928141005337,0.05982566927894949
1733724629496610000,0.463610107421875,0.12413432919085025,-0.21391521094627677,0.16451427037417887
1733724629506571000,0.473571044921875,-0.5727069487303496,-0.1929801941409707,0.14040624955594538
1733724629516532000,0.483531982421875,-1.1889385664105414,0.20644312149994073,0.047832595276832576
1733724629526493200,0.4934931640625,-1.626727341607213,0.20731106344088912,0.1440226864874363
1733724629536454000,0.503453857421875,-1.9870237118005751,0.0333220402947627,0.20400340019762514
1733724629546414800,0.513414794921875,-1.9933020614176988,-0.0012018500704318285,0.2542735978849232
1733724629556376000,0.5233759765625,-1.912781833025813,-0.04759200972029939,0.44694399542436003
1733724629566336800,0.533336669921875,-2.025877466329932,-0.14431743165031075,0.6023477614954114
1733724629576298000,0.543298095703125,-2.1623598204404115,-0.09830357623323797,0.6057704294204711
1733724629586259000,0.553259033203125,-2.093732274416089,-0.030084318748861548,0.7144377248883247
1733724629596220000,0.563219970703125,-1.95592480918169,-0.14046455561444163,0.8760489672973751
1733724629606180900,0.573180908203125,-1.8769319364875554,-0.23104681688062845,0.9251993671745061
1733724629616142000,0.58314208984375,-1.9202882631331681,-0.24433263410702347,1.0051967407360671
1733724629626103000,0.59310302734375,-2.0697458341509103,-0.3788011641770601,1.2346836878888308
1733724629636064000,0.60306396484375,-2.0769798770576715,-0.36910964511558414,1.6483923531875013
1733724629646025000,0.61302490234375,-1.8558792115867138,-0.2721293168427423,1.7070475173823534
1733724629655986200,0.622986083984375,-1.7160861254930495,-0.25319844293408095,1.4239479302465914
1733724629665947000,0.63294677734375,-1.9036206214487552,-0.04693383807251229,1.3721861788272858
1733724629675907800,0.642907958984375,-1.7151503059476614,-0.06273819572478533,1.3102101996466518
1733724629685869000,0.652869140625,-1.0669833348244429,-0.060380453617498275,1.1595412070125342
1733724629695829000,0.6628291015625,-0.46552959955930706,0.09475625901520252,0.9538101062394678
1733724629705790000,0.6727900390625,-0.7994844907939433,0.1924476946994662,0.5862932832732797
1733724629715751000,0.6827509765625,-0.7737842323482036,0.15761698514111339,0.2381909164816141
1733724629725712100,0.692712158203125,0.13338438809514044,-0.02602891044479329,0.657634764431417
1733724629735672800,0.7026728515625,-0.3651198448270559,-0.18230039469450712,0.8298486493974924
1733724629745633800,0.7126337890625,-1.2017319970101117,-0.05337678540050983,0.6394722080141305
1733724629755595000,0.722594970703125,-0.9164747934490441,-0.003416092053800821,0.5838537811666726
1733724629765556000,0.732555908203125,-0.9319809901386499,0.1617863067150116,0.37698213205635545
1733724629775517000,0.742516845703125,-0.9684206692636013,0.42352731787115333,0.14519377609342335
1733724629785478000,0.752477783203125,-0.9804927998512982,0.6808490512803197,-0.07512713717669248
1733724629795439000,0.762439208984375,-1.2273784794420004,0.9934421516649424,-0.6822291074618697
1733724629805399800,0.77239990234375,-1.0089613539665936,0.9162313400819897,-0.7280129535153508
1733724629815361000,0.782361083984375,-0.8078735489547252,0.7533686363071203,-0.3973138492062688
1733724629825322000,0.792322021484375,-0.47512920255362984,0.4905873223178088,-0.1445312205314636
1733724629835283000,0.802282958984375,0.05321078118383884,0.08336012799292802,0.0693377401202917
1733724629845244000,0.812243896484375,0.43177346042990683,-0.2802269543088972,0.3771013745218515
1733724629855205000,0.822205078125,0.3867354643076658,-0.1805052914386615,-0.09893822087496519
1733724629865165800,0.832165771484375,0.4513642960846424,0.004685965859144926,-0.544527732950449
1733724629875126800,0.842126708984375,0.6486690754264592,0.011348200227320193,-0.516778140759468
1733724629885088000,0.852087890625,0.4413432528078556,-0.13094744327180086,-0.5826376833751797
1733724629895049000,0.862049072265625,0.20533377201855182,-0.39625250358507036,-0.577101968818903
1733724629905010000,0.872010009765625,0.23781740699410436,-0.5269984329354017,-0.5114972777470946
1733724629914971000,0.881970947265625,0.40800563135147094,-0.3710138713017106,-0.48786681131273507
1733724629924932000,0.89193212890625,0.6655196724623441,-0.214579666204378,-0.5442416094854474
1733724629934892800,0.901892822265625,0.8572954592496156,-0.1578992361485958,-0.6170411804974079
1733724629944854000,0.91185400390625,0.7701034980088471,-0.2138769247625023,-0.6250514684736729
1733724629954815000,0.92181494140625,0.4930734400451183,-0.19328999074250458,-0.5195996279209852
1733724629964776000,0.93177587890625,0.3064268328398466,-0.1728206186875701,-0.4119792111575603
1733724629974736000,0.94173583984375,0.0357756622582674,-0.182614356014505,-0.2955389436006546
1733724629984696800,0.95169677734375,-0.03205634947419166,-0.08318564820885657,-0.14121552011221647
1733724629994658000,0.961657958984375,-0.019136662146449088,0.04956942900680005,-0.1381076172247529
1733724630004619000,0.971618896484375,0.0024941549032926557,0.05896802953630685,-0.1427265091970563
1733724630014580000,0.981580078125,0.14186463167071342,0.04310834323391318,-0.14639146144539117
1733724630024541000,0.991541015625,0.27502339431643485,-0.04099485821127891,-0.19956454096734522
1733724630034502100,1.001502197265625,0.21506489243805407,-0.10676423832550644,-0.2676256852805614
1733724630044462800,1.011462890625,0.048314241313934324,-0.06972235552370548,-0.24894948025271296
1733724630054424000,1.021424072265625,0.00229834007024765,0.017593670488148926,-0.17646102101653813
1733724630064385000,1.031385009765625,-0.0007049333989620208,0.11857654893323778,-0.061989277053624385
1733724630074346000,1.041345947265625,0.08433832537531852,-0.028239932991191742,-0.0439887793302536
1733724630084307000,1.051306884765625,0.2563157712370157,-0.11136785966344177,0.016375526870042085
1733724630094268000,1.061267822265625,0.4214519729018211,-0.06229425134956836,-0.006950403659790754
1733724630104228900,1.071228759765625,0.35267771188318725,-0.013213263446837663,0.018311609499156473
1733724630114189800,1.08118994140625,0.16794833647608756,0.040654958732426166,0.15746785899400711
1733724630124151000,1.091151123046875,0.08415770811140537,0.1731770309098065,0.19550269835591316
1733724630134112000,1.101112060546875,0.12238134804368019,0.2659580443292856,0.11142419296056032
1733724630144073200,1.1110732421875,0.16499474736750125,0.2644444248959422,0.004868044427782297
1733724630154034200,1.1210341796875,0.22748247546255587,0.1987846426360309,-0.0632537440314889
1733724630163995400,1.130995361328125,0.3905219971090555,0.05846957849487662,-0.10634557452201843
1733724630173956000,1.1409560546875,0.6292413213789463,-0.08611468739807605,-0.10054273346215487
1733724630183917300,1.150917236328125,0.8431728258728981,-0.11271598633676767,-0.11537351510822773
1733724630193878300,1.160878173828125,0.8510165251106023,-0.058658232934772965,-0.09062383538559078
1733724630203839200,1.170839111328125,0.7052543014794588,-0.027023616003990173,-0.0411783980846405
1733724630213800200,1.18080029296875,0.5461053575307131,0.06341536433398723,-0.06859934284314513
1733724630223761400,1.190761474609375,0.3298030322521925,0.20533611010611055,-0.13135887361690401
1733724630233722000,1.20072216796875,0.2937479685306549,0.3022055618830025,-0.11980433716252445
1733724630243683300,1.210683349609375,0.45681262461841105,0.2979255464762449,-0.14415055065080523
1733724630253644300,1.220644287109375,0.5704898572027683,0.235042973844707,-0.10253244597464799
1733724630263604200,1.230604248046875,0.7225356911480426,0.1473483237788081,0.023675474619865414
1733724630273565200,1.240565185546875,0.8695353476196527,0.03748378135040402,-0.0018047113344073294
1733724630283526100,1.250526123046875,0.8972159662276505,-0.048754678557813166,-0.10263970574140548
1733724630293487400,1.2604873046875,0.8535662095934152,-0.07642799064218997,-0.08867533166632055
1733724630303448300,1.2704482421875,0.8185428270071744,-0.08241115670502186,-0.08811389839127659
1733724630313409300,1.2804091796875,0.7953665340811014,-0.0775946963340044,-0.1523519772849977
1733724630323370200,1.290370361328125,0.8411644086599349,0.024632483083754778,-0.17123992536738514
1733724630333331500,1.30033154296875,0.7715326540291308,0.05130523982346057,-0.14882292637601494
1733724630343292200,1.310292236328125,0.6883832461774348,0.04647898871079087,-0.11267813854441046
1733724630353253400,1.32025341796875,0.6795920369565487,0.0716734895914793,-0.07791253011152148
1733724630363214300,1.33021435546875,0.6755220110386609,0.07546557535082102,-0.06635346361249685
1733724630373175000,1.340175048828125,0.6371329514116049,0.0627535394243896,-0.057021425513178105
1733724630383136300,1.35013623046875,0.6062532445013523,0.01949263597726822,-0.06084609836786985
1733724630393097200,1.36009716796875,0.5607698426991701,-0.017213731259852646,-0.09303849531188607
1733724630403058200,1.37005810546875,0.45158816796839235,-0.037356793969869614,-0.055196109782159324
1733724630413019100,1.38001904296875,0.3563344808250665,-0.0562909192815423,-0.027759236802160737
1733724630422980400,1.38998046875,0.2704816592335701,-0.008171323756873607,-0.020866408548504113
1733724630432941300,1.39994140625,0.15205693986117838,0.05429010085314512,-0.005453443100303411
1733724630442902300,1.40990234375,0.10657412258088587,0.06409706298783421,-0.011809387998282909
1733724630452863200,1.41986328125,0.04103577474355698,0.059120005227625366,0.003969195891916751
1733724630462824400,1.429824462890625,-0.05493628980219364,0.05290142297372222,0.04305982791706919
1733724630472785200,1.43978515625,-0.1277916826546192,0.07673018845915794,0.07416033797115087
1733724630482746400,1.449746337890625,-0.16589608012139795,0.08263941250294446,0.07316781980246305
1733724630492707300,1.459707275390625,-0.19858722036778925,0.034324440536648036,0.0380574895851314
1733724630502668000,1.46966796875,-0.1899848117172718,0.0012609598465263842,0.03571209550276398
1733724630512629200,1.479629150390625,-0.0971972224265337,-0.03963905968815088,0.028765637365728614
1733724630522590200,1.489590087890625,-0.12135142047405242,-0.10000672688931227,0.04781944353431463
1733724630532551200,1.49955126953125,-0.17428864541351793,-0.07049450893998145,0.08335910507962108
1733724630542512000,1.50951220703125,-0.22146716069579123,-0.0396675551302731,0.0458668481618166
1733724630552473300,1.519473388671875,-0.2749427302956581,-0.07725684268176555,-0.04858049103468656
1733724630562434300,1.529434326171875,-0.26961656683683394,-0.10545344798788428,-0.09410627067387103
1733724630572395300,1.539395263671875,-0.2301075632691383,-0.11497998574599623,-0.16085560173615812
1733724630582356200,1.549356201171875,-0.2006365541130304,-0.15396905709281564,-0.1077934352427721
1733724630592316200,1.559316162109375,-0.15878478681147098,-0.1591467519916594,-0.03778422560170293
1733724630602277400,1.56927734375,-0.1164852757424116,-0.12338497212827206,-0.0026581132933497426
1733724630612238000,1.579238037109375,-0.0997153427273035,-0.1010959834307432,0.013124708380550146
1733724630622199300,1.58919921875,-0.12493512417972087,-0.09917539063170552,0.0014512217216193675
1733724630632160300,1.59916015625,-0.11785071887671947,-0.1055177453957498,0.03120031716674566
1733724630642121200,1.609121337890625,-0.14440788641273974,-0.08564283210262656,0.02767433499768376
1733724630652082200,1.619082275390625,-0.09108312346041202,-0.10247589348182082,0.05716200302764773
1733724630662043400,1.62904345703125,0.004940379011631012,-0.13313202076926828,0.08767375340834259
1733724630672004000,1.639004150390625,0.058521747073531145,-0.15052943803295493,0.08601897193863987
1733724630681965300,1.64896533203125,0.1753062980234623,-0.1627875927120447,0.05834536759331822
1733724630691926300,1.65892626953125,0.2129804873794317,-0.16091288488134742,0.0349979558840394
1733724630701887200,1.66888720703125,0.13388415431082248,-0.11587035871446132,0.01516425138413906
1733724630711848200,1.67884814453125,0.12442249848246574,-0.072973027882725,0.016028613128513097
1733724630721809200,1.68880908203125,0.051442017945647234,-0.027956951331347225,0.05259294154644012
1733724630731770400,1.698770263671875,-0.050422611770033834,0.03084244363978505,0.06861015649810433
1733724630741731000,1.70873095703125,0.007733809122443198,0.05958586917370558,0.07927285867929458
1733724630751692300,1.7186923828125,0.06624737288951874,0.026477964819967746,0.12503478516191244
1733724630761653200,1.7286533203125,0.06029635553061962,-0.040120559594780204,0.15917159417197108
1733724630771614200,1.7386142578125,0.13513327758908272,-0.05268704957067966,0.09338613970577717
1733724630781575200,1.7485751953125,0.23372692281007765,-0.08303133442997931,0.010783259820938109
1733724630791536400,1.758536376953125,0.2981803980201483,-0.1119033547796309,-0.015382570309937
1733724630801497300,1.768497314453125,0.3146744367033243,-0.13056056284606457,-0.028756869537383316
1733724630811458300,1.778458251953125,0.2117880627244711,-0.11855813649371266,-0.01603241252079606
1733724630821419300,1.788419189453125,0.13816986880600451,-0.07464198400825262,-0.015757979493588207
1733724630831380500,1.79838037109375,0.04546937327682972,-0.02866130020841956,-0.021721417942643165
1733724630841341200,1.808341064453125,-0.0542190814435482,0.013788140725344419,-0.03815086695700884
1733724630851302100,1.81830224609375,-0.12471475942730903,0.05512918202579021,-0.016419366011768577
1733724630861263400,1.828263427734375,-0.11930500933825969,0.044852264291793106,-0.014795418071746825
1733724630871224000,1.83822412109375,-0.13459084127545357,-0.009501257186383009,-0.11082724998071788
1733724630881185300,1.848185302734375,-0.18245792334377764,-0.04594444344267249,-0.07686798949465155
1733724630891146200,1.858146240234375,-0.08888415211141108,-0.06326236572936177,-0.0034277824915945527
1733724630901107200,1.868107177734375,-0.05179390012323856,-0.08353153903707862,0.001939443629980087
1733724630911068200,1.878068115234375,-0.05394786328673362,-0.09819529355317354,0.014296236377954482
1733724630921029400,1.888029296875,0.02946925559043884,-0.09912044557407498,0.010546236194670199
1733724630930990300,1.897990234375,0.03267418911159038,-0.12906272550374268,-0.03460325747802853
1733724630940951300,1.907951416015625,0.03288870864510536,-0.12597981092706323,-0.07417933493256569
1733724630950912300,1.917912353515625,0.03507657407820224,-0.09633066872507333,-0.06339183732792734
1733724630960873500,1.92787353515625,-0.008828034099936485,-0.07467763984352349,-0.029766192710399625
1733724630970834200,1.937834228515625,-0.0450169533342123,-0.03959156728461385,-0.0028692718259990214
1733724630980795100,1.947795166015625,-0.034255320823192596,-0.023135814785212278,0.0161035780608654
1733724630990755300,1.95775537109375,-0.046451370051503175,-0.048191053325682874,0.04159180119112134
1733724631000716300,1.96771630859375,-0.09684534024894237,-0.09747326288893818,0.011831599830091
1733724631010677200,1.97767724609375,-0.02109773308634758,-0.08429828562587499,-0.016516542775928972
1733724631020638200,1.98763818359375,-0.022944822257757187,-0.05446165802776813,0.0018950199663639068
1733724631030599400,1.997599365234375,-0.038328269350528715,-0.05268091209083795,0.02847425320371985
1733724631040560000,2.00756005859375,-0.02190846494734287,-0.034833266841620206,0.06857640035897493
1733724631050521000,2.01752099609375,-0.04569324516057968,-0.018505378505587578,0.036270460037887094
1733724631060482300,2.027482421875,-0.13895312813818453,-0.010511164881289005,0.026651275560259816
1733724631070443300,2.037443359375,-0.14001988058686254,0.04014963955879211,0.05965206627771258
1733724631080404200,2.047404296875,-0.18570611148476598,0.061923956732451914,0.04245002545565366
1733724631090365200,2.057365234375,-0.2161567793279886,0.07848287734538316,0.0207711314804852
1733724631100326400,2.067326416015625,-0.1263625266343355,0.08428922553658486,0.08760039591118693
1733724631110287000,2.077287109375,-0.08846738800406455,0.044255467442423105,0.08837883293777704
1733724631120248300,2.087248291015625,-0.087502342364192,-0.017838731290400027,0.0386819050937891
1733724631130209300,2.097209228515625,0.02008475665152073,-0.036561698069423436,-0.0080943129979074
1733724631140170200,2.107170166015625,0.08873451450765132,-0.0875360985033214,-0.09788885795250535
1733724631150132200,2.11713232421875,0.06242167712152004,-0.1422932323463261,-0.1534105464272201
1733724631160093200,2.12709326171875,0.05759001918137073,-0.1073094511181116,-0.10570683822706341
1733724631170054100,2.13705419921875,0.05384498743414878,-0.05218903692066669,-0.07541238385885954
1733724631180015400,2.147015380859375,0.017114800930023193,-0.03251315333098173,-0.021454583700001237
1733724631189976300,2.156976318359375,0.02547171038687229,0.015227964270114898,0.03651595923155546
1733724631199937000,2.16693701171875,0.0017506430596113203,0.024641981564462182,0.0073792965963482855
1733724631209898200,2.176898193359375,-0.15796820973157882,0.012274521292001008,0.020992519146203995
1733724631219859200,2.186859130859375,-0.1737456245779991,0.06085340489149093,0.07980813459977507
1733724631229820200,2.196820068359375,-0.09967150358557701,0.0185109314635396,0.04839125207290053
1733724631239781000,2.206781005859375,-0.030144378373026845,-0.05274564789012074,0.012251432677358388
1733724631249742300,2.216742431640625,0.07892740624248981,-0.08588774677440524,-0.0052248950414359565
1733724631259703000,2.226703125,0.1580599796682596,-0.12722294285595417,-0.025710633709281682
1733724631269664300,2.236664306640625,0.20859481964111326,-0.15193272895961998,-0.07455781285613775
1733724631279625200,2.246625244140625,0.1951777041852474,-0.14888459343537688,-0.09296031550914048
1733724631289586400,2.25658642578125,0.09394026645720005,-0.11912088494300842,-0.045519788289815184
1733724631299547100,2.266547119140625,-0.033606501525640486,-0.03431728014349937,-0.007943944741785525
1733724631309508400,2.27650830078125,-0.053992286950349806,0.038556963539868594,0.02038593155518174
1733724631319469300,2.28646923828125,-0.05867547633051872,0.06719678256884216,0.08053820243999361
1733724631329430000,2.296429931640625,-0.03271919729709625,0.0316549290664494,0.09926891413405536
1733724631339391200,2.30639111328125,-0.010068389549851417,-0.011503975310921668,0.08194543888941407
1733724631349352200,2.316352294921875,0.09086509679555893,-0.043020226559042925,0.01828369857892394
1733724631359313200,2.326313232421875,0.17103285848796368,-0.07433043384104966,-0.015123480982333421
1733724631369274000,2.336274169921875,0.19338263746201992,-0.09881795549616217,-0.016587562185525893
1733724631379235300,2.3462353515625,0.20884674857556818,-0.12921689315214752,-0.05309869911149144
1733724631389196000,2.356196044921875,0.13363631702959536,-0.1232145839974284,-0.039653380474448205
1733724631399157200,2.3661572265625,0.009376900154352188,-0.06190642107576132,0.018528174859285353
1733724631409118200,2.3761181640625,-0.07943944741785526,0.018321400240808725,0.005879705688357353
1733724631419079400,2.386079345703125,-0.06669628570079802,0.08177344332337379,0.03903174144476652
1733724631429040000,2.3960400390625,-0.08276245436072349,0.05288315666466951,0.061919865079224104
1733724631439001300,2.40600146484375,-0.06876140153706073,0.0008925649255514145,0.019557079515606163
1733724631448962300,2.41596240234375,-0.0369172335088253,-0.016098901885747908,0.00958674351274967
1733724631458923000,2.425923095703125,-0.001585223364830017,-0.029532383954524993,-0.022523381975293157
1733724631468884200,2.43588427734375,0.04739361933767795,-0.09066182930842041,-0.009055559245496989
1733724631478845200,2.44584521484375,0.09344400737285613,-0.10990955061390996,-0.0033121932879090306
1733724631488806100,2.45580615234375,0.13658698352873325,-0.129658937831223,-0.031432226226478815
1733724631498767000,2.46576708984375,0.09117255530953407,-0.17095307125002146,-0.07885974783375858
1733724631508728300,2.475728271484375,0.025551205363869664,-0.17113924147188664,-0.06855959535464644
1733724631518689300,2.485689208984375,-0.10135317306220532,-0.09797375975698232,-0.018552578648179767
1733724631528650200,2.495650146484375,-0.17294249150156973,-0.010546820716559886,0.044677346116304396
1733724631538611200,2.505611083984375,-0.1590852310627699,0.05255334018841386,0.1022159273713827
1733724631548572400,2.515572509765625,-0.1866302405923605,0.08746332552805543,0.16239567078500985
1733724631558533000,2.525533203125,-0.1712760195940733,0.11839695458263158,0.15397256422415376
1733724631568493000,2.5354931640625,-0.15580255613029,0.10330664521753788,0.10070201567709446
1733724631578455300,2.545455322265625,-0.12556290068924425,0.012516074962913988,0.021008739628642796
1733724631588415200,2.555415283203125,-0.047135260662436486,-0.04436769564524293,-0.008011895411461592
1733724631598376200,2.565376220703125,0.004586743268370628,-0.053531391440331935,-0.032422406307607884
1733724631608337200,2.575337158203125,0.1069178214520216,-0.09170768509954214,-0.06355462667420506
1733724631618298400,2.58529833984375,0.11453472619652748,-0.13209683250263332,-0.05583411542475223
1733724631628259000,2.595259033203125,0.10031097053289413,-0.09643661331757902,-0.05775237013623118
1733724631638220300,2.60522021484375,0.14425415715575218,-0.04706409512236714,-0.07298442605957388
1733724631648181200,2.61518115234375,0.08570902920663356,-0.047273353958874935,-0.019961860924214123
1733724631658142200,2.62514208984375,0.08907470624744891,-0.03797098034545779,0.04288286391496658
1733724631668103200,2.635103271484375,0.12585048545897007,-0.026200755313783883,0.08503872872963547
1733724631678064000,2.645064208984375,0.15678104577362537,-0.048016427411139005,0.07503332141339779
1733724631688025300,2.655025390625,0.1956488288283348,-0.07834507630988954,0.058346536637097594
1733724631697986000,2.664986083984375,0.21866846988797187,-0.09615034372210501,0.039760932502150535
1733724631707947300,2.674947265625,0.23845453585386275,-0.10454363966658711,-0.013452186769247055
1733724631717908200,2.684908203125,0.23837679444253443,-0.07701236640140413,-0.04438917682468891
1733724631727869200,2.694869140625,0.14991583617925644,-0.05377440641596913,-0.09006620150282979
1733724631737830100,2.704830078125,0.13790215778052806,-0.021795652222633362,-0.07706570402383804
1733724631747791400,2.714791259765625,0.1534632995277643,0.008875234242528677,-0.043697102907299994
1733724631757752000,2.724751953125,0.15248656345009803,0.01289338384270668,0.02288037871941924
1733724631767713300,2.73471337890625,0.12573065847158432,-0.011071282982081175,0.08404489538669585
1733724631777674200,2.74467431640625,0.047992169752717015,0.012101941204071045,0.10666516186520457
1733724631787635200,2.75463525390625,-0.008992869272828101,0.04493585092201829,0.07766951513588428
1733724631797596200,2.76459619140625,-0.08995207360386848,0.06204699859023094,-0.014378507833927868
1733724631807557000,2.77455712890625,-0.17674071474075317,0.08464929102063179,-0.06770078656822442
1733724631817518300,2.784518310546875,-0.20106150152683258,0.11073533391356467,0.007477496273815632
1733724631827479000,2.79447900390625,-0.1111480063676834,0.10144275104179978,0.055661973728239535
1733724631837440300,2.804440185546875,-0.03889057940840721,0.056538318171352145,0.06422858041301369
1733724631847401200,2.814401123046875,-0.04316577250957489,-0.006853080765157938,0.050313890698552126
1733724631857362200,2.824362060546875,-0.06579729103446007,-0.013397241711616515,0.024472470216453074
1733724631867323100,2.8343232421875,-0.07294891635477542,0.013201134617626667,-0.009246113381534814
1733724631877284400,2.844284423828125,-0.09772621473670005,-0.013613222549855709,-0.03101400081440806
1733724631887245000,2.8542451171875,-0.15618775605559349,-0.022562106550484896,-0.012737024237215518
1733724631897206300,2.864206298828125,-0.25797873601317406,0.017630933758616445,-0.008257394605129956
1733724631907167200,2.874167236328125,-0.32093817327320573,0.058929158830642696,0.03861746155545115
1733724631917128400,2.88412841796875,-0.34090602554678917,0.0817654061473906,0.05850538046061992
1733724631927089200,2.894089111328125,-0.31842063749432564,0.08816416727378965,0.04661167517974973
1733724631937050000,2.904050048828125,-0.23631109408438206,0.08793971086814999,0.04793649404272437
1733724631947011300,2.91401123046875,-0.19158990882635116,0.034520109239220616,0.056161593813449144
1733724631956972000,2.923971923828125,-0.12985504492521285,-0.03969955770373344,0.05109188933372497
1733724631966933200,2.933933349609375,-0.015271218889951706,-0.07386909993961453,0.03060293579548597
1733724631976894200,2.943894287109375,0.08415770811140537,-0.06393047424927353,-0.004074263701587915
1733724631986855200,2.953855224609375,0.060175359499454496,-0.09607698622494935,-0.03131459119617939
1733724631996816100,2.963816162109375,0.029371640434861183,-0.0882644127778709,-0.0885555046789348
1733724632006777300,2.97377734375,0.016606266885995865,-0.051237727545201776,-0.1068240056887269
1733724632016738300,2.98373828125,0.01679389841258526,-0.039714024620503184,-0.053153498038649556
1733724632026699300,2.99369921875,0.021120529440045357,-0.009891425547748803,-0.0035989012748003004
1733724632036660200,3.00366015625,0.03388005777001381,0.0223690681964159,0.010150076483935117
1733724632046621400,3.013621337890625,0.07838029375374317,0.05173895506560802,0.010142916090786457
1733724632056582100,3.02358203125,0.10152209988832474,0.025345453658699987,-0.015602935062348841
1733724632066543000,3.033543212890625,0.12964695513248442,-0.019013328027725217,-0.016542261739075182
1733724632076504300,3.04350439453125,0.20077625484466552,-0.022722703939676285,-0.013430997850745915
1733724632086465000,3.053465087890625,0.23953064065277574,-0.06425546841993927,-0.011661503960192204
1733724632096426200,3.06342626953125,0.23366671705543993,-0.10535583283230662,-0.038140637823939325
1733724632106387200,3.07338720703125,0.16308920600712298,-0.0996390626206994,-0.055308045724034305
1733724632116348200,3.08334814453125,0.1256698681950569,-0.03527808799967169,-0.054817924119532103
1733724632126309000,3.09330908203125,0.03982639895379543,0.047962943658232685,-0.0352571913421154
1733724632136270300,3.103270263671875,-0.05551788908243179,0.1088695400416851,0.0026247955456376072
1733724632146230300,3.113230224609375,-0.07397709035873412,0.14748612481430173,0.020141163013875484
1733724632156191200,3.123191162109375,-0.07148878067433834,0.1142014025889337,0.06908113501071929
1733724632166152200,3.133152099609375,-0.05037701906263828,0.06113105278909206,0.0763956958077848
1733724632176113200,3.143113037109375,-0.012633856123685836,0.06353855232223868,0.06889496478885412
1733724632186074400,3.153074462890625,0.03791442785263061,0.04987506088986993,0.05282879612892866
1733724632196035000,3.16303515625,0.09431085333526133,0.008874503590166569,0.009439005605131388
1733724632205996300,3.172996337890625,0.11082008958756923,-0.024910423242300746,-0.027899814316630363
1733724632215957200,3.182957275390625,0.1539256563425064,-0.037153234221786256,-0.025211305885016917
1733724632225918200,3.192918212890625,0.1882978815436363,-0.052218116884678596,-0.0775697080232203
1733724632235879200,3.202879150390625,0.12496785740554332,-0.06554828470945358,-0.06427417312040924
1733724632245840400,3.21284033203125,0.0260159002661705,-0.0715276513800025,-0.05916559793502092
1733724632255801000,3.222801025390625,-0.04883563483953476,-0.04228255993425846,-0.060664458190649743
1733724632265762000,3.232761962890625,-0.060109893047809594,-0.01918298550620675,-0.06343816068768501
1733724632275723300,3.24272314453125,-0.0608288549721241,-0.029272563974559306,-0.08574293147623538
1733724632285684200,3.252684326171875,-0.06185878254175186,-0.059481093624979255,-0.07429302444010973
1733724632295645200,3.262645263671875,-0.07916881378293036,-0.03116217711344361,0.0033183307677507397
1733724632305606100,3.272606201171875,-0.11017711550891399,-0.013938801242411135,0.04309796797037124
1733724632315567400,3.2825673828125,-0.1311468383014202,-0.025613310814648866,0.03891965937241912
1733724632325528000,3.292528076171875,-0.14746259780824184,-0.02546279642805457,0.025501228742301464
1733724632335489300,3.3024892578125,-0.15706863054335116,-0.02551876439899206,0.015190408738702534
1733724632345450200,3.3124501953125,-0.18885843803584573,-0.004812222587317228,0.03795885151624679
1733724632355411200,3.3224111328125,-0.1484831730276346,0.022001696188747883,0.029410803401470183
1733724632365372200,3.3323720703125,-0.09726093531250952,0.002236380749940872,0.026414836455881593
1733724632375333400,3.34233349609375,-0.06115735627412796,-0.0347103711143136,0.017286504235118627
1733724632385294000,3.352294189453125,-0.05370119504928589,-0.024710516756027937,0.02074877351820469
1733724632395255000,3.362255126953125,-0.011063245806097983,-0.03979395798891783,0.02328691369369626
1733724632405216300,3.37221630859375,0.03628770343363285,-0.09120601918771862,0.0216838624112308
1733724632415177200,3.38217724609375,0.0390653514534235,-0.09786094703227281,0.04328793758451938
1733724632425138200,3.39213818359375,0.026340309914946555,-0.07290200847312808,0.025439561682939527
1733724632435099100,3.40209912109375,-0.03885375452935695,-0.029016835647821426,0.033589696521311996
1733724632445060400,3.412060302734375,-0.025813071170449255,0.035344431234151125,0.013329437172412872
1733724632455021000,3.42202099609375,-0.06497779134511947,0.09120748049244284,-0.006976853275299072
1733724632464982300,3.431982177734375,-0.11382219401299953,0.08945055382251739,0.0340218043282628
1733724632474943200,3.441943115234375,-0.04603811307549476,0.03442000986561179,0.052764790982007974
1733724632484904200,3.451904296875,0.03453589133024215,-0.0014186346262693404,0.009218494722247124
1733724632494865200,3.461865234375,0.08199146998822689,-0.03706920920014381,-0.010948825646191835
1733724632504826400,3.471826416015625,0.04077566250264644,-0.051721273278445,-0.010941811383515595
1733724632514787000,3.481787109375,0.055284664848446845,-0.04051569639220833,-0.05737812999635934
1733724632524748300,3.491748291015625,0.05240764810740947,-0.028384529093652962,-0.0540327650912106
1733724632534709200,3.501709228515625,-0.026913725888729093,-0.00011047463715076445,0.022771365386992693
1733724632544670200,3.511670166015625,-0.017408815440535543,0.0044544951908290385,0.03123129682689905
1733724632554631200,3.521631103515625,-0.0295277077794075,0.031560236520320174,0.018018910162895918
1733724632564592000,3.531592041015625,-0.043022564646601674,0.05124824893921613,0.021477526184171435
1733724632574553300,3.54155322265625,-0.02607902863025665,0.055889791134744876,-0.0016598960362374782
1733724632584514000,3.55151416015625,-0.03000526216328144,0.04719458963423967,0.026711189053952693
1733724632594475300,3.561475341796875,0.009219663766026497,0.05014730195999145,0.0709362613581121
1733724632604436200,3.571436279296875,0.11164251188635825,0.05223068410530686,0.061609337825328105
1733724632614397200,3.581397216796875,0.16345160957872867,0.02574146723896265,0.023618045344203708
1733724632624358100,3.591358154296875,0.10617021795511244,0.00543824553117156,0.01897095019072294
1733724632634319400,3.6013193359375,-0.012647300127148627,0.02581613991037011,0.033671821846812965
1733724632644280300,3.6112802734375,-0.05341068767011165,0.05160115403011441,-0.047546617942303415
1733724632654241300,3.6212412109375,-0.08433423372209072,0.09395297980830072,-0.10030381013974547
1733724632664202200,3.6312021484375,-0.13988953220546244,0.11185235524475574,-0.0585140021584928
1733724632674163200,3.6411630859375,-0.10859306118786334,0.08271364678293466,-0.0216838624112308
1733724632684124200,3.651124267578125,-0.027218261793255805,0.053206689530611036,-0.04446750275790691
1733724632694085000,3.661085205078125,0.04481003258526325,0.04910977560579777,-0.034613194350153205
1733724632704046300,3.67104638671875,0.007529226461052894,0.03031345132961869,0.013059680320322512
1733724632714007000,3.681007080078125,0.016433248406648636,0.013246142803132533,0.013704115703701973
1733724632723968300,3.69096826171875,0.05669745425581932,0.01157704054713249,-0.017679887466877698
1733724632733929200,3.70092919921875,0.016674071425199506,-0.07896583855673671,-0.09418664243370294
1733724632743890200,3.71089013671875,0.2436152796179056,-0.13047580717206,-0.15653876145035028
1733724632753851100,3.72085107421875,0.3661971186697483,-0.09875015095695852,-0.013654577473551035
1733724632763812400,3.730812255859375,0.5003787946224212,-0.13215382338687776,0.3342877764508128
1733724632773773300,3.740773193359375,0.9337216963261366,-0.026129005251824853,0.46026685672551393
1733724632783734300,3.750734375,0.38194413837790486,-0.03776566703170538,0.5439823740273714
1733724632793695200,3.7606953125,-0.029420155751705167,-0.10467618000507355,0.20223112982809544
1733724632803656200,3.77065625,0.4056231201291084,0.013133476208895444,-0.14393676176965237
1733724632813617200,3.7806171875,0.24188451030254363,0.0789738757327199,-0.20129501802176236
1733724632823578000,3.790578125,0.5856634609371424,-0.04242079936116933,-0.08164864789992571
1733724632833539300,3.800539306640625,1.0877999128818512,-0.32256460543125864,-0.008210778984427451
1733724632843500000,3.8105,1.477573721972108,-0.28153862142935393,-0.05837883147150278
1733724632853461200,3.820461181640625,1.4936165097564458,-0.5619054226003587,0.6329495282471179
1733724632863422200,3.830422119140625,1.684481026917696,-0.7883190997876226,0.674061583097279
1733724632873383200,3.840383056640625,1.9401082313686608,-0.5970847264006733,0.04783960953950882
1733724632883344100,3.85034423828125,1.5382675523877143,-0.4759999209735542,-0.4562414006017148
1733724632893305300,3.860305419921875,1.4409458267986774,-0.3375578841626644,-0.5950687104031444
1733724632903266300,3.870266357421875,0.6650280895531178,-0.3335268020156771,-0.3364804641894996
1733724632913227300,3.880227294921875,-0.8473509883403778,-0.47825478722825643,-0.17149390012845395
1733724632923188200,3.890188232421875,-0.23129180461764334,0.04753142037317157,-0.5236712612740695
1733724632933149200,3.900149169921875,0.225294610029459,0.6115397335369139,-0.83165277621001
1733724632943110100,3.910110107421875,-0.05594049840867519,0.5865570487760007,-0.7389207164987921
1733724632953071000,3.920071044921875,0.13376432732343674,0.3307761881332844,-0.38839097642973064
1733724632963031300,3.93003125,0.3378407927572727,0.1650402670096606,-0.23540391611158845
1733724632972993000,3.939992919921875,-0.0257195476680994,0.04977445005960762,-0.04831351066157222
1733724632982954200,3.949954345703125,-0.5812129112690687,0.30865239993482824,0.1417456814661622
1733724632992914200,3.9599140625,-0.9380991807579994,0.2671260651953518,0.1114902439340949
1733724633002875100,3.969875244140625,-1.4292922138839959,0.5397677520070224,0.3228993903435767
1733724633012837000,3.979837158203125,-1.4288479772478342,0.7682200223498046,0.5294697184197604
1733724633022797000,3.989797119140625,-1.3743553395599126,0.5107273162879049,0.36790143836960193
1733724633032759300,3.99975927734375,-1.0799579672098159,0.30083215463794766,0.5084193316064775
1733724633042720300,4.00972021484375,-0.381350848659873,0.29697854794971645,0.6769067433953285
1733724633052681200,4.01968115234375,-0.6255366216421127,0.14010200591236352,0.5032505506664514
1733724633062641200,4.02964111328125,-0.3861468507647514,-0.011709982744418083,0.33298268520161506
1733724633072602400,4.039602294921875,-0.24060148475468157,0.04214483196400106,0.4092947943791747
1733724633082564000,4.049564208984375,-0.41690556164383885,0.08392324176840484,0.36197277897298336
1733724633092524300,4.059524169921875,-0.5696329481124878,0.07553885978274047,0.2872907552152872
1733724633102485200,4.0694853515625,-0.5734089595198631,0.13820669368505478,0.6695470282822847
1733724633112446200,4.0794462890625,-0.7312105805128812,-0.2506727238487452,0.522442157870531
1733724633122407200,4.0894072265625,-0.7490618790239095,-0.7230016281593591,0.45707186007648704
1733724633132368100,4.0993681640625,-0.8526093472599983,-0.729344202119112,0.5157357920996845
1733724633142329300,4.109329345703125,-0.4973708449780941,-0.7284516371935605,0.6510938183553516
1733724633152290600,4.11929052734375,-0.05217208578586578,-0.8012012315839528,0.5335474892526865
1733724633162251800,4.129251708984375,0.06866495542526245,-0.6940354267202318,0.2547887078002095
1733724633172212500,4.13921240234375,0.23668226548433302,-0.47241519435457885,-0.01940919547751546
1733724633182173700,4.149173583984375,0.6959896295279264,-0.3321828400608152,-0.10763634498491882
1733724633192134700,4.159134765625,1.0796551848709584,-0.19821575670689343,-0.0836468359798193
1733724633202095600,4.169095703125,1.3387550338685512,-0.16000103073343633,-0.05806012091115117
1733724633212056600,4.179056640625,1.4502829794645309,-0.2883592612296343,0.19040362165123223
1733724633222017500,4.189017578125,1.0717483572691677,-0.6680141196265816,0.5818843807898462
1733724633231978800,4.198978759765625,0.3390203579306602,-1.0212240386903286,1.0716851558398455
1733724633241939500,4.208939453125,-0.2515238607853651,-1.137548132521659,1.3277911567837
1733724633251900700,4.218900634765625,-0.49359483357071876,-0.905831526620686,1.1975997925762087
1733724633261861600,4.228861572265625,-0.10787760639488696,-0.44883156273663044,0.8061587078608572
1733724633271822600,4.238822509765625,0.6761188078880309,-0.01597016093954444,0.21428492104150354
1733724633281783600,4.248783447265625,0.8545300861895084,0.6684815910078584,-0.5332144579060375
1733724633291744800,4.258744873046875,0.17735270915925502,1.4896430760808288,-1.1992338235188276
1733724633301705500,4.26870556640625,-0.08768822032511234,1.7749330128677188,-1.6102032000467181
1733724633311666700,4.278666748046875,-0.23823066397011278,1.8832184694111347,-2.2704776653319594
1733724633321627600,4.288627685546875,-1.182535129109025,1.8838675809696315,-2.44446776619032
1733724633331588600,4.298588623046875,-1.6494108825802802,1.078117015518248,-1.148802663116157
1733724633341549600,4.308549560546875,-2.0668939518511293,0.24340616691187023,-0.8799166025109588
1733724633351510500,4.318510498046875,-2.489165424442291,-0.37169206282421946,-1.3224410279273986
1733724633361471700,4.3284716796875,-3.0914708081007003,-0.6809934281870722,-1.9220223934493958
1733724633371432400,4.338432373046875,-3.2821073617249725,0.09609444881640374,-2.35349760158509
1733724633381393700,4.3483935546875,-2.8823481651932,1.4185713517747818,-2.059575591661781
1733724633391354600,4.358354736328125,-0.5223702616780996,3.9912539944678542,1.0878126262329517
1733724633401315600,4.368315673828125,3.1595939117342233,4.55943674377203,3.256037100923061
1733724633411276500,4.378276611328125,3.8621547363460063,1.5633622461557388,0.990364790046215
1733724633421237800,4.38823779296875,2.4274212081909177,0.240964838174358,0.10531272434294223
1733724633431198700,4.39819873046875,2.2752210604667664,1.0523989291548728,0.13167173895835876
1733724633441159700,4.40815966796875,2.4877368529438972,3.432627593538165,-0.9014958355039357
1733724633451120600,4.41812060546875,2.740855873966217,4.051188530948758,0.6906473917171359
1733724633461081600,4.42808154296875,3.1204543260008095,2.5062314177945253,2.6057953693524003
1733724633471042600,4.43804248046875,2.4375445427984,0.9602258185006678,3.411932011511922
1733724633481003500,4.44800341796875,3.149055566585064,0.6020880145806818,4.237584086002409
1733724633490964700,4.45796484375,4.6529164069801565,1.1749280151061714,4.658811894759536
1733724633500925400,4.467925537109375,5.898403959086537,1.7284074085362255,4.7135950398266315
1733724633510886700,4.47788671875,5.949224045741558,2.5241315238833426,4.64880780261755
1733724633520847600,4.48784765625,6.774956491991877,4.864629066380858,4.124889142453671
1733724633530808600,4.49780859375,8.399812194508314,6.299549641540646,4.29221788572669
1733724633540769500,4.50776953125,7.252268883803486,7.455840906846523,3.3753479554802177
1733724633550730800,4.517730712890625,8.300046582898498,6.745431122300029,3.5082635570198297
1733724633560691700,4.527691650390625,8.773591731131077,5.907434822282195,3.1648774050951003
1733724633570652700,4.537652587890625,8.26568838622272,5.335331684663892,2.710128142747283
1733724633580613600,4.547613525390625,6.800162829440832,4.273829119338095,2.170895009073615
1733724633590574800,4.557574951171875,4.427036106017232,4.070361141191423,1.0746943475931883
1733724633600535600,4.56753564453125,0.5975047053784132,4.374701230885088,-0.5433049131572246
1733724633610496500,4.57749658203125,-3.1493297073513267,2.911393642413616,-1.639101670011878
1733724633620457700,4.587457763671875,-1.1045920577287673,4.108294858266413,-2.707304317498207
1733724633630418400,4.59741845703125,-3.4031349570721385,4.927530051451921,-4.027501365891099
1733724633640379600,4.607379638671875,-4.142494357249141,4.003903340421616,-3.144707892769575
1733724633650340600,4.617340576171875,-5.307748681211471,2.666475755764544,-2.360424478238821
1733724633660301600,4.627301513671875,-6.848113498139381,4.255657795092463,-2.785296488717198
1733724633670262500,4.637262451171875,-8.091817673960328,5.5975546341180795,-3.3954946714520453
1733724633680223700,4.6472236328125,-7.595867801696062,4.591557975175976,-2.856463782352209
1733724633690184700,4.657184814453125,-7.590619379648566,1.8716487353876232,-2.676960617160797
1733724633700145700,4.667145751953125,-7.269770638224482,-0.5031178641974926,-3.458953874927759
1733724633710106600,4.677106689453125,-5.668689779049158,-1.9577084777280687,-4.103737048831582
1733724633720067800,4.68706787109375,-3.6753123143076896,-2.8432448198169467,-4.878151980298758
1733724633730028500,4.697028564453125,-1.592149949222803,-2.358462238255143,-7.086648113492131
1733724633739989500,4.706989501953125,-0.6392109267294407,-3.259486364594102,-6.795647397843003
1733724633749950700,4.71695068359375,-3.7019460542112586,-5.61691283006072,-6.379883991971612
1733724633759911400,4.726911376953125,-5.738319780114293,-5.751866074907779,-6.314276670551299
1733724633769872600,4.73687255859375,-5.8964393810153,-5.455713967844844,-6.824117121002078
1733724633779833600,4.74683349609375,-4.220364947915077,-6.8882321580380195,-7.324439801523089
1733724633789794600,4.756794677734375,-2.3907161561280486,-7.323883921205997,-8.000643365085125
1733724633799755500,4.766755615234375,-0.38982290892899035,-7.129791089648008,-7.569019542258977
1733724633809716700,4.776716796875,1.9753689298421144,-6.284108911302686,-7.033029336029291
1733724633819677700,4.786677734375,4.6838569041669365,-3.8554830034971235,-7.947263657075166
1733724633829638700,4.796638671875,4.36463488716185,0.25155133331418034,-8.543156835603714
1733724633839599600,4.806599609375,-0.14992226592004299,-0.8022697375982999,-6.527013412302732
1733724633849560800,4.816560791015625,-0.984933997169137,1.5862439400494097,-5.612540606325864
1733724633859521500,4.826521484375,2.3854104509353635,2.1335241865783927,-3.2500001588463783
1733724633869482500,4.836482421875,3.4967958220660686,1.0997300046503544,-2.4705256059020755
1733724633879443700,4.846443603515625,4.097893583500385,-0.14362930325567722,-1.4724211615145206
1733724633889404400,4.856404296875,4.309061468499898,-1.8957441889852285,-0.7269839027285575
1733724633899365600,4.86636572265625,3.0346362834617495,-1.8638772246032953,0.298964241874218
1733724633909326600,4.87632666015625,2.7642905255675316,-0.27402503092885017,0.5841670848995447
1733724633919287800,4.886287841796875,2.194505601763725,-1.8876240108937024,-1.5115952340394259
1733724633929248500,4.89624853515625,0.8517547762572765,-4.782189852625131,-1.983066498607397
1733724633939209700,4.906209716796875,-0.7193003624886274,-4.755810087482631,-2.5159178222894667
1733724633949170700,4.916170654296875,-2.1685957922205326,-0.8872194728702306,-3.227721107020974
1733724633959131600,4.926131591796875,0.9485212060511111,-1.3384300396978854,-3.0810633958548306
1733724633969092600,4.936092529296875,-3.6056244455754753,-0.040464989118278026,-3.189424986374378
1733724633979053800,4.9460537109375,-5.500697018909454,-1.5738538295537232,-4.245098407155275
1733724633989014500,4.9560146484375,-3.815682908028364,-1.0588263318538664,-2.971075080916285
1733724633998975500,4.9659755859375,-3.654475277984142,-1.4846145803943276,-2.4613246468365193
1733724634008936700,4.975936767578125,-5.223409186792374,0.08671089972555637,0.821865249428153
1733724634018897400,4.9858974609375,-4.145315844410658,1.138970128148794,2.9470740276038643
1733724634028858600,4.995858642578125,-3.1579017208635807,2.9881688390582797,4.643649396941066
1733724634038819600,5.005819580078125,-1.2152858905881643,5.118232071527839,6.139143975529074
1733724634048780800,5.01578076171875,1.3989416454143822,4.751908111608028,5.550879392182827
1733724634058741500,5.025741455078125,3.9541327628195284,2.6329119243368506,4.531265711298585
1733724634068702700,5.03570263671875,4.8232408249378205,1.0857061554729939,3.899759367597103
1733724634078663700,5.04566357421875,5.073671045267582,0.042156595467031,3.34386209937036
1733724634088624600,5.055624755859375,2.3921827215492724,-2.144917102730274,3.7039609011650083
1733724634098585600,5.065585693359375,1.851702072032541,-1.0557260277509688,1.5813322026103733
1733724634108546800,5.075546875,2.5972119576632977,1.234637656790018,2.9944062721431255
1733724634118507500,5.085507568359375,1.3433967221945524,0.0411237452879548,3.166931415015459
1733724634128468500,5.095468505859375,-0.7561730262033641,-1.6498416752129792,3.2669057009398936
1733724634138429700,5.1054296875,-6.501324259772896,-1.833043110400438,6.037554071101546
1733724634148390000,5.115389892578125,-8.108834275212883,-1.8887135596960782,3.105195382070541
1733724634158350800,5.125350830078125,-9.759228908133506,-1.9569056369125841,2.6542344060897824
1733724634168311800,5.135311767578125,-9.442288280063867,-0.020925006867945194,1.4580460146814584
1733724634178273000,5.14527294921875,-3.219479932898283,2.961850156453252,-1.287624566090107
1733724634188233700,5.155233642578125,-1.6931506555855274,6.321068814909458,-2.9319360797047613
1733724634198195000,5.16519482421875,-1.4891829112231731,5.696350523912907,-4.182196837562322
1733724634208156000,5.175156005859375,1.1878642151772976,2.906581858217716,-5.0704281178236
1733724634218116900,5.185116943359375,7.496734642770886,1.9431594356328248,-4.50093136331141
1733724634228077800,5.195077880859375,9.26557153072059,1.5478279924154281,-2.9324171412199735
1733724634238038800,5.205038818359375,6.669716832885146,0.1547925023049116,-1.4382237083584068
1733724634248000000,5.215,2.9909798048257827,-0.5693289967298507,-0.9077268388479948
1733724634257960700,5.224960693359375,1.3920844729959965,0.8447375909715891,-0.47579321942031383
1733724634267922000,5.234921875,0.6417576886028051,1.9733868161141872,0.5560352153927087
1733724634277883000,5.2448828125,-0.12276479440331459,1.1399603082299232,0.46723757252097126
1733724634287843800,5.25484375,-0.14721300696134568,0.5891431197464466,0.3317757936298847
1733724634297804800,5.2648046875,-0.7492857509076595,0.6226473299413919,-0.8449760759025812
1733724634307766000,5.27476611328125,-1.8449065666735172,2.814419122827053,-3.4270150143533944
1733724634317727000,5.28472705078125,-4.243182344400882,4.291504769021272,-7.616756275945901
1733724634327688000,5.29468798828125,-4.099828935477137,4.433572229787707,-8.186795466771722
1733724634337649000,5.30464892578125,-1.93941966458261,4.810924948722124,-7.074025947806239
1733724634347609900,5.31460986328125,1.265568801626563,4.431195563784241,-4.864198858270049
1733724634357570800,5.32457080078125,1.931938953438401,2.9353841743320226,-3.5580239054888483
1733724634367531800,5.33453173828125,0.43267946935892104,1.3642162228614092,-4.3497418539345265
1733724634377493000,5.344492919921875,0.9205774064622819,1.989894298800826,-5.333870964461565
1733724634387453700,5.35445361328125,0.9075047205299138,1.8034288933813571,-6.225154033508897
1733724634397415000,5.364414794921875,-1.0266302085828036,1.7284797431200742,-6.514883998569846
1733724634407376000,5.3743759765625,0.7727004556994884,2.790716175678372,-6.462271767801046
1733724634417336800,5.3843369140625,3.1877941703021526,3.0000907475203276,-2.7220576499938964
1733724634427297800,5.3942978515625,6.872568724960089,-2.0227251397788524,2.301273785611987
1733724634437259000,5.404259033203125,5.481984719654918,-8.744387848478555,7.2925547169625755
1733724634447220000,5.414219970703125,3.7799358873426914,-6.89552289956808,8.613785200056434
1733724634457181000,5.424180908203125,-0.6389221729159354,-5.567417270007729,10.043574257546663
1733724634467142000,5.434141845703125,-2.6645126389980316,-4.113088814544677,10.996341430604458
1733724634477102800,5.444102783203125,-3.8725609795480964,-3.3920085829019544,10.432390035259724
1733724634487063800,5.454063720703125,-5.426855537629127,-2.774569050736725,9.928532166349887
1733724634497024800,5.464024658203125,-4.734512155649066,-2.817890890590846,12.84918346645236
1733724634506986000,5.473986083984375,-2.2482792775273324,-2.7288962638422847,12.505880901157855
1733724634516946700,5.48394677734375,-1.0673385780028999,-2.7138646989271042,10.356287623310088
1733724634526908000,5.493907958984375,0.9684171621322631,-3.519171320003271,9.427002448126673
1733724634536868900,5.503868896484375,4.43916201261878,-4.988491008371114,11.874674417185783
1733724634546829800,5.513829833984375,7.027590944367647,-5.657648160552978,14.93357098941803
1733724634556790800,5.523790771484375,6.16061755619049,-4.094990263274312,14.37201613382101
1733724634566752000,5.533751953125,-2.1295617126882074,-1.2861726137161253,9.189154645994305
1733724634576713000,5.543712890625,-0.243733937561512,-2.2608464981555936,5.139551338410377
1733724634586674000,5.553673828125,4.088776211065054,-0.49703357584774494,4.381036571386456
1733724634596635000,5.563634765625,1.0625473982036113,0.4352525347173214,3.1234400638133284
1733724634606595800,5.573595947265625,-1.0293594143509863,-1.0294283879339694,0.6418985583782195
1733724634616556800,5.583556884765625,0.45502924833297725,-0.25223639296889305,-2.8259102386564017
1733724634626517800,5.593517822265625,1.3729307135842739,2.657216052249074,-6.273574657806754
1733724634636479000,5.60347900390625,2.3271396098829804,5.568220987606049,-6.509651943135261
1733724634646439700,5.613439697265625,1.9029810083709655,6.404069169679284,-5.4827732396841045
1733724634656401000,5.62340087890625,2.4141059456743297,7.789265052205324,-3.1658655393496153
1733724634666361900,5.63336181640625,2.9627661022543905,7.601871426025032,-1.498150792185217
1733724634676322800,5.64332275390625,3.0750971809267997,5.659440304666758,-1.2775997234210372
1733724634686283800,5.65328369140625,2.270034890000522,7.2724091700345275,-2.1817299990817904
1733724634696245000,5.663244873046875,1.0881392278388142,10.846828914529084,-3.0412898961320516
1733724634706206000,5.6732060546875,0.11470657563209533,14.114094680953025,-3.0251749198943374
1733724634716167000,5.6831669921875,-0.7472996916569768,13.679646448355912,-2.5777713441342116
1733724634726127900,5.6931279296875,-1.6765744915768503,8.071531841778755,-2.2678923250138756
1733724634736089000,5.703089111328125,-2.331823676045984,3.039920653605461,-2.538311732666194
1733724634746049800,5.7130498046875,-2.2517723803400993,0.6865934401512146,-3.3706557060107585
1733724634756010800,5.7230107421875,-1.7549824039898811,0.08661737622320652,-4.108205134156346
1733724634765972000,5.732971923828125,-1.2789900087356567,0.1360147365987301,-4.614290031465888
1733724634775932700,5.7429326171875,-1.077311252093315,0.6420271531939507,-4.797668576785922
1733724634785894000,5.752893798828125,-1.3979565798997877,1.4846668951034545,-4.3909693518579
1733724634795854800,5.762854736328125,-1.5896721609324216,2.054374662017822,-3.5856577623456714
1733724634805815800,5.77281591796875,-1.462996330565214,1.5199790315032005,-2.4424872598975895
1733724634815776800,5.78277685546875,-0.5093582198917865,-0.0954021557033062,-1.5206430483698845
1733724634825738000,5.792738037109375,0.7839841393232345,-0.2832762588769197,0.31144319969713685
1733724634835699000,5.802698974609375,1.3553776673674582,1.0928192023485899,1.734876750680804
1733724634845660000,5.812659912109375,1.2661660368673502,1.8892220937401054,2.43539934746325
1733724634855620900,5.822620849609375,0.5108522578418254,1.9018308154225347,2.840042224383354
1733724634865582000,5.83258203125,-0.7383072607755661,1.545211672437191,3.0439386570751665
1733724634875542800,5.842542724609375,-1.913089876061678,1.0887328098177909,3.0147774445205924
1733724634885503700,5.852503662109375,-2.749001771020889,0.45486441316008563,2.9784155068069693
1733724634895465000,5.86246484375,-3.186032421326637,-0.17006605928242205,2.897368624192476
1733724634905425700,5.87242578125,-3.1985014422774314,-0.7576280473172664,2.5077450372278687
1733724634915387000,5.882386962890625,-2.856515220278501,-1.2199322550892828,2.0499948394984004
1733724634925347800,5.892347900390625,-2.4004221421062946,-1.5664526133865118,1.799230857169628
1733724634935309000,5.90230908203125,-1.9409505274116992,-1.752203148534894,1.6730764203280208
1733724634945269800,5.912269775390625,-1.484417888778448,-1.7079828985363243,1.593772581988573
1733724634955231000,5.92223095703125,-0.9743255093932152,-1.4737714070796966,1.5943799002319574
1733724634965192000,5.93219189453125,-0.40192200058884914,-1.2383739207088946,1.6287398504734039
1733724634975153000,5.94215283203125,0.11776055637523532,-0.958247650295496,1.4942477933973073
1733724634985113900,5.95211376953125,0.5356738337568938,-0.6726742203921079,1.2123650347054005
1733724634995075000,5.962074951171875,0.8890088405050337,-0.3993827644348144,0.9326584510087966
1733724635005035800,5.972035888671875,1.2129777597762643,-0.12176350840628146,0.6868284179508686
1733724635014996700,5.981996826171875,1.4839023404717444,0.12325754635632037,0.5096358677893876
1733724635024958000,5.9919580078125,1.71300803322196,0.31481296839118,0.3405249172747135
1733724635034919000,6.0019189453125,1.9031413134992121,0.42915655592977997,0.1901023006170988
1733724635044880000,6.0118798828125,2.0461130296289918,0.5602770907461643,-0.025481062737107277
1733724635054840800,6.0218408203125,2.383763414380699,0.8088467779010534,-0.49572658490240573
1733724635064802000,6.031802001953125,2.7722610660552975,1.1176631362259388,-1.0589274541407823
1733724635074762800,6.0417626953125,2.6898247749090194,1.137599424317479,-1.1748761387884616
1733724635084724000,6.051723876953125,2.286576421087235,1.0401000040739774,-0.9165075266748666
1733724635094685000,6.061684814453125,1.9080477902412414,0.8892407495647668,-0.834827022331953
1733724635104646000,6.07164599609375,1.618171548577398,0.7343781046330928,-0.9205009802252053
1733724635114606800,6.08160693359375,1.3289292209029198,0.5857651677459478,-1.037185577932
1733724635124568000,6.091568115234375,0.9884294380694627,0.4745096093505621,-1.0736515605419874
1733724635134528800,6.10152880859375,0.6488556840397417,0.43957507409155366,-0.9651023384958505
1733724635144489700,6.11148974609375,0.3366263024009764,0.4284451927900314,-0.7926409085094929
1733724635154451200,6.121451171875,0.006044102469831705,0.3398310897916555,-0.5995026011973619
1733724635164412000,6.131411865234375,-0.361642377974838,0.24810499225258825,-0.43525311923921106
1733724635174373000,6.141373046875,-0.6397837581813335,0.17800562011003493,-0.2992605944722891
1733724635184334000,6.151333984375,-0.834631207498908,0.13274901280105114,-0.20530162331461904
1733724635194295000,6.161294921875,-0.9747451961100101,0.07648994996249675,-0.13918810593783854
1733724635204256000,6.171256103515625,-1.073081651699543,0.04759586391150951,-0.1098538749039173
1733724635214217200,6.18121728515625,-1.1157821447849272,0.029426000970602034,-0.09113806851804256
1733724635224178200,6.19117822265625,-1.1000725344777107,0.04624912547767162,-0.0728892951220274
1733724635234139100,6.20113916015625,-1.077029512542486,0.07753565962314606,-0.05398410364389419
1733724635244100000,6.21110009765625,-1.0737731410950422,0.11624971342086791,-0.03837093944847583
1733724635254061300,6.221061279296875,-1.080979711472988,0.08903437423706054,-0.10530278747081756
1733724635264022000,6.23102197265625,-1.1403102907113731,0.044621232014894485,-0.18132044374644754
1733724635273983200,6.240983154296875,-1.1791267089050264,0.026987375646829605,-0.23385025692880151
1733724635283944200,6.250944091796875,-1.1810124495863914,0.033417116433382035,-0.25819559363424777
1733724635293905000,6.26090478515625,-1.1181975353635847,0.01601122360229492,-0.29814181957542896
1733724635303866000,6.2708662109375,-0.9738124453045427,0.010415595552325248,-0.34887364342510696
1733724635313827000,6.2808271484375,-0.7605518258094787,0.04967383922934532,-0.389579163300991
1733724635323788300,6.290788330078125,-0.5367360561609268,0.09139584267139435,-0.4360270262211561
1733724635333749000,6.3007490234375,-0.3439348718486726,0.11396540187597275,-0.4848907181113958
1733724635343710200,6.310710205078125,-0.19717428482994437,0.10966916598677634,-0.524318473136425
1733724635353671200,6.320671142578125,-0.08565349962711334,0.051501054656505584,-0.561433859565854
1733724635363632000,6.330632080078125,0.006807926449179649,0.05969079085290432,-0.5294914918601512
1733724635373593000,6.340593017578125,0.04049684556126594,0.24376024104654787,-0.3898983122527599
1733724635383554300,6.35055419921875,0.014391513445973395,0.3126256874799728,-0.31201544662714004
1733724635393515000,6.360514892578125,0.04846037178635597,0.2788414912998676,-0.265196412307024
1733724635403476200,6.370476318359375,0.14992051235437392,0.1740109975159168,-0.20655951442122458
1733724635413437200,6.380437255859375,0.24426570635065434,0.07712649430036544,-0.17141747389137743
1733724635423398100,6.390398193359375,0.36243937357142564,0.03777823425233364,-0.14600187760591507
1733724635433359000,6.400359130859375,0.44033100702539085,0.020829437538981435,-0.1458294436484575
1733724635443320000,6.410320068359375,0.49376785205006596,0.04333119220435619,-0.15024959817826747
1733724635453281300,6.42028125,0.5048116625033319,0.07200900515615939,-0.15286884076595306
1733724635463242000,6.430241943359375,0.45772155615687365,0.1306897421836853,-0.2224357134670019
1733724635473204200,6.440204345703125,0.39355508119463917,0.18406594306230545,-0.3042214317500591
1733724635483164200,6.4501640625,0.3104524350941181,0.2081190188229084,-0.38614100554585457
1733724635493125000,6.460125,0.25139351240396496,0.24245617271065711,-0.4637643434524536
1733724635503087000,6.470087158203125,0.20625673208236694,0.2741805137515068,-0.5260504114955663
1733724635513048000,6.480048095703125,0.15184592745900152,0.3049883244693279,-0.5666302591651677
1733724635523009000,6.490009033203125,0.09738953012824057,0.33759295547604556,-0.5715174466848373
1733724635532970200,6.49997021484375,0.01625438470840454,0.3509323295205831,-0.566145105996728
1733724635542931200,6.50993115234375,-0.07469137610793113,0.3432639868497848,-0.5577817667990923
1733724635552892200,6.51989208984375,-0.19330138891935347,0.2989402764767408,-0.5324374821841716
1733724635562853000,6.52985302734375,-0.3093476887226105,0.23285540067255495,-0.48536710345149037
1733724635572814300,6.539814453125,-0.3961082728087902,0.14409049102663993,-0.43548868156075476
1733724635582775000,6.549775146484375,-0.4810298048995435,0.0846183113604784,-0.388697119769454
1733724635592736000,6.559736083984375,-0.5334463669657706,0.04187281008958816,-0.34311960994303226
1733724635602697200,6.569697265625,-0.5621895002387464,0.01776712735891342,-0.29877251869440075
1733724635612658000,6.579657958984375,-0.5727566330909729,-0.003327683117985725,-0.2537421213567257
1733724635622619100,6.589619140625,-0.5659608354710042,0.0022317045748233796,-0.20117840590476987
1733724635632580000,6.599580078125,-0.5539733144268393,-0.0017629180192947386,-0.12966799792051314
1733724635642541000,6.609541015625,-0.5321440521955489,-0.00047580081820487974,-0.0750105250597
1733724635652502000,6.619501953125,-0.48996787524521346,-0.005251344656944275,-0.0494698410898447
1733724635662463200,6.629463134765625,-0.4486147051155567,-0.020796704313158988,-0.05696574980318546
1733724635672424200,6.639424072265625,-0.37580446657910943,-0.041324528557062146,-0.08707271877527237
1733724635682385200,6.64938525390625,-0.2849858392737806,-0.032578327521681785,-0.138741531214118
1733724635692346000,6.65934619140625,-0.18939196039065717,-0.024423078116774556,-0.1751145748436451
1733724635702307300,6.669307373046875,-0.10448737943470478,0.004515431597828865,-0.200633631503582
1733724635712268000,6.67926806640625,-0.02802314843535423,0.032740240085124966,-0.20577333247959612
1733724635722229200,6.689229248046875,0.01793663870692253,0.06083353114724159,-0.20335107376873493
1733724635732190200,6.699190185546875,0.03370002502799034,0.07250760232806205,-0.21233692877888677
1733724635742151000,6.70915087890625,0.03906009075641632,0.0688940880060196,-0.21322774013876913
1733724635752112000,6.719112060546875,0.02189779742285609,0.03777238903343677,-0.2047767226576805
1733724635762073000,6.729072998046875,0.011730623673647642,-0.012796353209018707,-0.2003068837672472
1733724635772034000,6.739033935546875,0.00013780103549361229,-0.07946224377155303,-0.17966507775485516
1733724635781995000,6.7489951171875,-0.019605448701977727,-0.1327501818448305,-0.15335750106573104
1733724635791956200,6.758956298828125,-0.04014277142658829,-0.13657003239393234,-0.103858433881402
1733724635801917200,6.768917236328125,-0.08832476466298103,-0.11657821472287178,-0.06751461634635925
1733724635811878100,6.778878173828125,-0.1408943253338337,-0.08327332649230956,-0.012467851907014845
1733724635821839000,6.788839111328125,-0.17443170714601874,-0.04380523945689201,0.019233108258247374
1733724635831800300,6.79880029296875,-0.22112769960835574,-0.030519056904315948,0.01075578729212284
1733724635841761000,6.808760986328125,-0.23750044999942183,-0.019382161340117453,-0.04227437662780285
1733724635851722200,6.81872216796875,-0.22254677262604236,0.009959668478369712,-0.10362287155985832
1733724635861683200,6.82868310546875,-0.17558029265925287,0.051112347599864,-0.17918635432720184
1733724635871644000,6.838643798828125,-0.1273299103617668,0.07381576231718064,-0.2505734281927347
1733724635881605000,6.848605224609375,-0.08568272572159767,0.11849895365238189,-0.2972077535957098
1733724635891566000,6.858566162109375,-0.07073401678428054,0.16005086122453213,-0.32500352301597596
1733724635901527000,6.868527099609375,-0.07282339027896523,0.19170798224806784,-0.34577275480031966
1733724635911488000,6.878488037109375,-0.057875265863537785,0.20504794081449507,-0.36894027989804745
1733724635921449200,6.88844921875,-0.058682490593194955,0.18921207377910612,-0.37140053253173827
1733724635931410200,6.89841015625,-0.037963089299947024,0.1600169589549303,-0.36351474771797654
1733724635941371100,6.90837109375,-0.01584887264743447,0.12742401838600634,-0.34210137281119823
1733724635951332000,6.91833203125,0.007750614126771688,0.07940145349502563,-0.2981844896733761
1733724635961293300,6.928293212890625,0.018878887993097303,0.057539165776968,-0.21426702005863188
1733724635971254000,6.93825390625,0.015449644196778535,0.049156537356972695,-0.13555822500288486
1733724635981215200,6.94821533203125,0.006096417178958654,0.0338935017734766,-0.09727788644731045
1733724635991176200,6.95817626953125,-0.013556231665611266,-0.009502572360634804,-0.1121592292368412
1733724636001137000,6.968136962890625,-0.020694412982463835,-0.01949380502104759,-0.14230185404419898
1733724636011098000,6.97809814453125,0.006815525233745574,0.02625204710960388,-0.16347323688864707
1733724636021059000,6.98805908203125,0.02645896785855293,0.048750294643640515,-0.17696634019017218
1733724636031020300,6.998020263671875,0.035738837379217146,0.06533259613215923,-0.1866939534783363
1733724636040981000,7.00798095703125,0.03479673422351479,0.08261457032263278,-0.1911392424494028
1733724636050942200,7.017942138671875,0.0159597856760025,0.0892103153258562,-0.1949257752507925
1733724636060903200,7.027903076171875,-0.009499065229296683,0.07624503529071808,-0.2050374194204807
1733724636070864100,7.037864013671875,-0.03325345030426979,0.06545066955387592,-0.21973288424909113
1733724636080825000,7.0478251953125,-0.04647065927386283,0.052341012611985205,-0.2628437117010355
1733724636090786300,7.057786376953125,-0.036674656924605364,0.057935471618175506,-0.29666940893530847
1733724636100747000,7.0677470703125,-0.01984802528619766,0.06830372089743614,-0.3182978878974914
1733724636110708200,7.077708251953125,-0.012402385455369948,0.09634089785814284,-0.33420623564720153
1733724636120669200,7.087669189453125,-0.0292705181479454,0.11664952639341354,-0.32287177168428893
1733724636130630100,7.097630126953125,-0.04991130124703049,0.13486147491037845,-0.29389351448118683
1733724636140591000,7.107591064453125,-0.09652429160103201,0.14351941314041614,-0.2704740604490042
1733724636150551800,7.1175517578125,-0.11298165153563022,0.1242325288683176,-0.23558336433172225
1733724636160513000,7.127512939453125,-0.11327741961181163,0.10210895986557006,-0.20968787557482718
1733724636170473700,7.1374736328125,-0.10298223556876182,0.07769815670847892,-0.19780629912316797
1733724636180435000,7.14743505859375,-0.07801219109371305,0.06855038913488387,-0.1904343090504408
1733724636190396000,7.15739599609375,-0.05851297924518585,0.06566285099983216,-0.18458382945656776
1733724636200356900,7.16735693359375,-0.04539396995306015,0.07002338429689407,-0.18333003000319004
1733724636210317800,7.17731787109375,-0.034986996098607774,0.07059153957366943,-0.17994389469623565
1733724636220279000,7.187279052734375,-0.027046266227215527,0.06998129872083664,-0.20596856279075146
1733724636230239700,7.19723974609375,-0.005644289497286081,0.07742635402977466,-0.23684242448210716
1733724636240200700,7.20720068359375,0.0019873744249343872,0.07365501879751682,-0.27488895428180693
1733724636250162000,7.217161865234375,0.022877163849025963,0.09362520915865898,-0.29241584314405916
1733724636260123000,7.227122802734375,0.0380938760727644,0.11020809516906738,-0.2860451390683651
1733724636270083800,7.237083740234375,0.02484159578979015,0.10785247195363044,-0.2868073556125164
1733724636280044800,7.247044921875,-0.009454495435208082,0.08267126894593238,-0.2951139961868524
1733724636290006000,7.257006103515625,-0.03077741557955742,0.03292436448037624,-0.28176760787963867
1733724636299966700,7.266966796875,-0.05398220394775271,-0.009038461980223655,-0.2545224580794573
1733724636309928000,7.276927978515625,-0.05687500277981162,-0.009217910200357437,-0.19246493809521198
1733724636319889000,7.286888916015625,-0.07366963184475898,0.012294833427667616,-0.14945172579884528
1733724636329849900,7.296849853515625,-0.0755424399793148,0.0071212301820516586,-0.1347106682628393
1733724636339810800,7.306810791015625,-0.06721285692080856,0.01374912388920784,-0.1259358256548643
1733724636349772000,7.31677197265625,-0.03256546804010868,0.029850363862514495,-0.1279658701777458
1733724636359733000,7.32673291015625,-0.006401683735847472,0.04359831870794296,-0.12622984016537667
1733724636369693700,7.336693603515625,0.02104264189824462,0.04093289889097213,-0.15649346100389958
1733724636379655000,7.346655029296875,0.04898804892227053,0.04384206433594227,-0.19602000022828578
1733724636389615900,7.356615966796875,0.07313201783671974,0.061608607172966,-0.21728256848752497
1733724636399576800,7.366576904296875,0.09479089193716644,0.07149521041512488,-0.24121172560751436
1733724636409537800,7.376537841796875,0.10494506007432937,0.05664134015440941,-0.2604302208185196
1733724636419499000,7.3864990234375,0.11084946181252599,0.062273793083429334,-0.2737742710381746
1733724636429459700,7.396459716796875,0.10962138132229447,0.06677636519968509,-0.2982090395927429
1733724636439421000,7.4064208984375,0.1076550496853888,0.0845528449088335,-0.30376199754476546
1733724636449382000,7.4163818359375,0.09854571442604064,0.138937346047163,-0.29312720628380773
1733724636459342800,7.4263427734375,0.08517638363465667,0.1836626229584217,-0.24584055445194242
1733724636469303800,7.4363037109375,0.050625586996227497,0.16438626008033752,-0.24713468591570853
1733724636479265000,7.44626513671875,0.031495208460092544,0.1149690259605646,-0.2540378894329071
1733724636489226000,7.45622607421875,0.004851531684398651,0.061709144937992094,-0.22331483438909053
1733724636499187000,7.46618701171875,0.0006600713439285754,0.04827741643488407,-0.19060849657356738
1733724636509148000,7.47614794921875,-0.017972879064083097,0.01911269674897194,-0.1687619909465313
1733724636519108900,7.48610888671875,-0.03443725326135754,-0.014055997881293296,-0.14330898526012897
1733724636529069800,7.49606982421875,-0.05229600442647934,-0.047235213905572886,-0.1071136362850666
1733724636539030800,7.50603076171875,-0.06608136867284774,-0.057794017320871346,-0.06941255892217159
1733724636548992000,7.515991943359375,-0.07703954666927457,-0.06800853734314441,-0.022626257827877996
1733724636558953700,7.52595361328125,-0.07213219314441084,-0.06074935999512672,-0.003063479223847389
1733724636568914000,7.535913818359375,-0.07310498369932174,-0.08865034335553645,-0.016883330261707304
1733724636578875000,7.545875,-0.047333267452567815,-0.08846446539461612,-0.015090017104148864
1733724636588836900,7.5558369140625,-0.015025135174393653,-0.08944763121306895,-0.04295943628251552
1733724636598797800,7.5657978515625,0.020952917788177726,-0.07147475214898585,-0.05056932676434517
1733724636608759000,7.575759033203125,0.05407368162348866,-0.043698856472969054,-0.06972703169882297
1733724636618719700,7.5857197265625,0.0654600219041109,-0.0066501055389642716,-0.06724573627710342
1733724636628681000,7.595680908203125,0.07911693746522068,-0.0020744681864976883,-0.12083937929868697
1733724636638642000,7.605641845703125,0.07496960852742195,0.03888824132084846,-0.11148586001992225
1733724636648603000,7.615602783203125,0.07765490208864212,0.04289338530898094,-0.15740882228314876
1733724636658563800,7.625563720703125,0.0748376527108252,0.03905132292807102,-0.1965373021006584
1733724636668525000,7.635525146484375,0.07188581716790794,0.06628478229045867,-0.17133564082682132
1733724636678485800,7.64548583984375,0.07571063615307211,0.08918167375326157,-0.16297639328241348
1733724636688446700,7.65544677734375,0.07637187654078006,0.06913081937134266,-0.18454057483673095
1733724636698408000,7.665407958984375,0.05177767964079976,0.06732756934165954,-0.20846213317215442
1733724636708369000,7.675368896484375,0.011336217528581619,0.03523614855408668,-0.21209435219466685
1733724636718329900,7.685329833984375,-0.027901129490882158,0.025495091262459753,-0.1952741502970457
1733724636728290800,7.695290771484375,-0.0721527975410223,0.022550854504108427,-0.19535949049293994
1733724636738252000,7.705251953125,-0.09706789695844054,-0.004869067341089248,-0.2051291893571615
1733724636748212700,7.715212646484375,-0.10362038734182714,-0.0184521870136261,-0.21671149060130118
1733724636758174000,7.725174072265625,-0.09365896529778837,-0.014124971464276314,-0.2087321822851896
1733724636768135000,7.735135009765625,-0.08558204182609916,0.004279284754395485,-0.15855682327449322
1733724636778095900,7.745095947265625,-0.08062544233202934,0.016183073037862778,-0.12039163553118705
1733724636788056800,7.755056884765625,-0.07203866964206099,0.03173544695675373,-0.10233049366176128
1733724636798018000,7.76501806640625,-0.06534487109184264,-0.015385200658440588,-0.13528291519284247
1733724636807978800,7.774978759765625,-0.05107099267616868,0.009039046502113342,-0.1057195515781641
1733724636817939700,7.784939697265625,-0.018435966531187294,0.027161563169956205,-0.12422960625886917
1733724636827901000,7.79490087890625,0.00714271136149764,0.01621639078557491,-0.18070085054337978
1733724636837862000,7.80486181640625,0.024479630609601736,0.045914194434881206,-0.17393267158269882
1733724636847822800,7.81482275390625,0.03352364554777741,0.08447744158506393,-0.15411211882531642
1733724636857783800,7.82478369140625,0.03638824119865894,0.07251520111262798,-0.19041385078430176
1733724636867745000,7.8347451171875,0.031518589335680004,0.06473989093601704,-0.20271102229952812
1733724636877705700,7.844705810546875,0.0335316827237606,0.030514380729198452,-0.2527782447606325
1733724636887667000,7.8546669921875,0.031040888821333646,0.008795885396003723,-0.31578035211861133
1733724636897628000,7.8646279296875,0.022485241921991108,0.04263268854618072,-0.289719443666935
1733724636907588900,7.8745888671875,0.023289105650782585,0.08347089489102363,-0.30946926927566526
1733724636917549800,7.8845498046875,0.013991115951538085,0.1008960769444704,-0.34844343531429767
1733724636927511000,7.894510986328125,-0.00838905816078186,0.12319032633900642,-0.32349253393113614
1733724636937471700,7.9044716796875,-0.028854192432016132,0.13262626320421694,-0.3341770095527172
1733724636947432700,7.9144326171875,-0.04985021870955825,0.16243395696878432,-0.32540625859797
1733724636957394000,7.924393798828125,-0.06424655446112155,0.15803075357377527,-0.29878654721975323
1733724636967355000,7.93435498046875,-0.07550313088223337,0.1636070924013853,-0.28201661420464513
1733724636977315800,7.94431591796875,-0.08038169670403003,0.1663262882322073,-0.2502116091430187
1733724636987276800,7.95427685546875,-0.10068272645473479,0.11292495291233062,-0.26302725157439705
1733724636997238000,7.964238037109375,-0.11043255157470702,0.022269699475169182,-0.29416005646288396
1733724637007198700,7.97419873046875,-0.10148454435691237,0.008823357924818993,-0.2915092496931553
1733724637017160000,7.984159912109375,-0.07274769469425081,0.07933481799960136,-0.21180092220604418
1733724637027121000,7.994120849609375,-0.052218701406568285,0.05519347943365573,-0.20583178466856478
1733724637037081900,8.004081787109374,-0.046131052055954934,0.037515783923864364,-0.2401385434180498
1733724637047042800,8.014042724609375,-0.03612929800152778,0.006318681627511978,-0.21069383774697778
1733724637057004000,8.024004150390626,-0.0038870705664157865,-0.009480360528826713,-0.17297639377117155
1733724637066965000,8.033965087890625,0.0033949031352996824,-0.002681201907992363,-0.14308394433259963
1733724637076925700,8.04392578125,0.017514613902568817,-0.006481178712844848,-0.1280488722860813
1733724637086887000,8.053886962890624,0.021902035206556317,-0.024341245052218435,-0.1355652392655611
1733724637096848000,8.063847900390625,0.026953034985810517,-0.040860418176651,-0.13152034778892993
1733724637106808800,8.073808837890626,0.03638312663212418,-0.03598959726989269,-0.13456804492175578
1733724637116769800,8.083769775390625,0.05427168841361999,-0.01641337466239929,-0.1356745448589325
1733724637126731000,8.09373095703125,0.062045683415979144,-0.007493570625782013,-0.147829677554965
1733724637136691700,8.103691650390624,0.09208265589177608,-0.004784311667084693,-0.14848609563708304
1733724637146653000,8.11365283203125,0.11005538882538676,0.0022270283997058867,-0.15910276671946047
1733724637156614700,8.12361474609375,0.1291343294352293,0.045296939319372176,-0.18884090237915516
1733724637166575600,8.13357568359375,0.12342764222621917,0.08114040611684321,-0.2173766765117645
1733724637176536600,8.14353662109375,0.14546893977299333,0.1101239240169525,-0.2592325354665518
1733724637186497800,8.153497802734375,0.14342545124664902,0.14140169033408165,-0.30058979724943635
1733724637196458500,8.16345849609375,0.15174553582444786,0.16635259171724318,-0.32387948742210865
1733724637206419500,8.17341943359375,0.1484574540644884,0.1907511199146509,-0.3441144661992788
1733724637216380700,8.183380615234375,0.11681304639205337,0.20430910514593123,-0.34389527049064633
1733724637226341400,8.19334130859375,0.06856368700787424,0.1758674390375614,-0.32937750031650065
1733724637236302600,8.203302490234375,0.031037527820467946,0.11934008065164088,-0.3079331457495689
1733724637246263600,8.213263671875,-0.032721535384655,0.05279518612027168,-0.27391806342303754
1733724637256224500,8.223224609375,-0.07856558719277382,-0.002896305963397026,-0.219582077601552
1733724637266185500,8.233185546875,-0.11834697796106337,-0.04481704684793949,-0.17041852598190307
1733724637276146700,8.243146728515624,-0.1614515218026936,-0.07115151154398917,-0.1400958684325218
1733724637286108400,8.2531083984375,-0.182363084667176,-0.090730656760931,-0.11707330476343632
1733724637296069600,8.263069580078126,-0.19519421692863106,-0.09054419427812099,-0.10402619166374207
1733724637306030600,8.273030517578125,-0.19322481655180454,-0.06814706903100014,-0.10886194125711918
1733724637315991600,8.282991455078125,-0.18185761936306952,-0.04071194961667061,-0.1060544826209545
1733724637325952500,8.292952392578124,-0.15585677053555846,0.001554243704676628,-0.0876987417191267
1733724637335913700,8.302913818359375,-0.1160673425912857,0.04178922345936298,-0.07286357615888119
1733724637345874400,8.31287451171875,-0.06215162800848484,0.05512742846012115,-0.07159750174582004
1733724637355835600,8.322835693359375,-0.0217864460028708,0.03595803308784962,-0.05663023423850536
1733724637365796600,8.332796630859375,0.026170214045047758,-0.016495207726955414,-0.04808277064561844
1733724637375757600,8.342757568359374,0.06265855461731552,-0.07010697092711925,-0.03531096735596657
1733724637385718500,8.352718505859375,0.10615721234306692,-0.08400514789819717,-0.019758593437075613
1733724637395679500,8.362679443359376,0.12889292189478874,-0.08073825505673884,-0.0003647416591644287
1733724637405640700,8.372640625,0.15380159157142043,-0.08127543067336082,0.0025666356176137924
1733724637415601400,8.382601318359375,0.1608411348193884,-0.051585810330510136,-0.01989829416871071
1733724637425562600,8.392562744140625,0.1583177538216114,-0.007940729871392249,-0.05751578490138053
1733724637435523600,8.402523681640625,0.16495573053136467,0.03599427344501018,-0.08175181601345538
1733724637445484500,8.412484619140624,0.15308058382049203,0.06505261014699935,-0.09584288520812988
1733724637455445500,8.422445556640625,0.13645619675591586,0.06432195778489112,-0.10491057328283786
1733724637465406700,8.43240673828125,0.10969035490527748,0.0437099623888731,-0.0884305631250143
1733724637475367400,8.442367431640625,0.06420519953742623,0.00891103620827198,-0.0780085378319025
1733724637485328600,8.45232861328125,0.020542437291145323,-0.029440029495954513,-0.07602759314775466
1733724637495289600,8.46228955078125,-0.0424900652050972,-0.05680617532730102,-0.09407646005749702
1733724637505250800,8.472250732421875,-0.07648118213415145,-0.059657473105192184,-0.12067980482280254
1733724637515211500,8.48221142578125,-0.07624196655079722,-0.051536710491776466,-0.16065876398980616
1733724637525172500,8.49217236328125,-0.08267360703349114,0.004338905987143516,-0.20014906285703182
1733724637535133700,8.5021337890625,-0.08042889684662223,0.05083703778982162,-0.2107937909901142
1733724637545094400,8.512094482421874,-0.0762310067653656,0.09239420605897902,-0.2131166809797287
1733724637555055600,8.5220556640625,-0.08674772460460663,0.11354629968106746,-0.2090770502001047
1733724637565016600,8.5320166015625,-0.09466317390426993,0.09936521411538124,-0.20409809274375437
1733724637574977500,8.5419775390625,-0.08473185473755002,0.07651099275052547,-0.20335341185629366
1733724637584938500,8.5519384765625,-0.05327624763548374,0.05662380449771881,-0.18696750972270965
1733724637594899700,8.561899658203124,-0.015522563302516936,0.040432548153400416,-0.16700667171180247
1733724637604860700,8.571860595703125,0.015873860958218574,0.009777882170677184,-0.1542436362504959
1733724637614821600,8.581821533203126,0.0369489438213408,-0.013299042034149168,-0.1545142698854208
1733724637624782600,8.591782470703125,0.04840440381541848,-0.011035188755393027,-0.147585347405076
1733724637634743800,8.601743896484376,0.06159340960383415,-0.005910685348510742,-0.14094400969445706
1733724637644704500,8.61170458984375,0.05755217138901352,-0.00013502455651760102,-0.1526005452185869
1733724637654665500,8.62166552734375,0.047551001856476066,-0.004732873740792274,-0.16285539725124834
1733724637664626700,8.631626708984374,0.058720630646497005,-0.0009440028518438339,-0.17275661354064942
1733724637674587400,8.64158740234375,0.053819414601475,-0.003158171769976616,-0.18293313964009283
1733724637684548600,8.651548583984376,0.0219127027310431,0.0068231240183115,-0.19874854840934275
1733724637694509600,8.661509521484374,0.00017535656690597534,0.018145897543430326,-0.21600655720233916
1733724637704470500,8.671470458984375,-0.028802754505723713,0.04486790025234222,-0.2319943999290466
1733724637714431500,8.681431396484374,-0.05226444024443626,0.04916647422909736,-0.25569500899016856
1733724637724392700,8.691392822265625,-0.06028042730912566,0.06220306593477726,-0.2600467744588852
1733724637734353700,8.701353759765626,-0.05809080831035971,0.08151274656057357,-0.2624456522941589
1733724637744314600,8.711314697265625,-0.05394435615539551,0.09073357937037944,-0.253448691368103
1733724637754275600,8.721275634765625,-0.04871624624356627,0.09883972893655299,-0.24039748661518096
1733724637764236800,8.73123681640625,-0.03287044233605266,0.09255494957864284,-0.2267933241546154
1733724637774197500,8.741197509765625,-0.0314881941974163,0.08831658135652541,-0.20105448726415634
1733724637784158500,8.751158447265626,-0.0014661270298063755,0.05837210946977138,-0.16908698511719703
1733724637794119700,8.76111962890625,0.02875716179832816,0.025112813946604726,-0.12581950579881668
1733724637804080400,8.771080322265625,0.034468086791038514,-0.008744447469711304,-0.07711246577501296
1733724637814041600,8.78104150390625,0.03602656827941537,-0.057253334572911256,-0.03606500059366226
1733724637824002600,8.79100244140625,0.049815147396177054,-0.10966098268032073,0.0009264671951532363
1733724637833963500,8.800963623046876,0.041811435291171074,-0.15792787772119043,0.02226093164682388
1733724637843924500,8.810924560546875,0.029916853227466345,-0.1557125397592783,0.05308335541188717
1733724637853885700,8.8208857421875,0.02839943440183997,-0.15137129568457602,0.07657412111461162
1733724637863846700,8.8308466796875,0.005455781187862157,-0.1380705000847578,0.07380699448883533
1733724637873807600,8.8408076171875,-0.0036674364663660526,-0.09331599707901478,0.0366208809107542
1733724637883769600,8.85076953125,-0.0195458274692297,-0.06490180349946022,-0.02946633298099041
1733724637893730600,8.86073046875,-0.024494828178733587,-0.021433248651027678,-0.10933891111910342
1733724637903691500,8.87069140625,-0.01826777035742998,0.0014800094246864319,-0.17047697817087173
1733724637913652700,8.88065283203125,-0.0010011398665606974,0.03795475986301899,-0.21168051069676874
1733724637923613400,8.890613525390625,0.0016805004328489302,0.0615431407213211,-0.23270868567824363
1733724637933574700,8.90057470703125,-0.011273089164495468,0.08792553621232509,-0.2396504676401615
1733724637943535600,8.91053564453125,-0.02431143443584442,0.10227613312602042,-0.23229425965845585
1733724637953496600,8.92049658203125,-0.04340659552812576,0.08486614864170551,-0.2201268520027399
1733724637963457500,8.93045751953125,-0.051996875349432224,0.05707271730899811,-0.20462650053203105
1733724637973418500,8.94041845703125,-0.04555748995169997,0.03793839325010776,-0.17277298015356063
1733724637983379700,8.950379638671874,-0.019892302819341418,0.031057401564717292,-0.15406418803036212
1733724637993340400,8.96034033203125,-0.029949732583761213,0.007211246553063392,-0.16569909624457357
1733724638003301600,8.970301513671876,-0.028632220244407654,0.003515314644575119,-0.18253683379888533
1733724638013262600,8.9802626953125,0.003406155181676149,0.02144318552315235,-0.18729367293715476
1733724638023223600,8.9902236328125,0.016937252406030893,0.027968203377723693,-0.17198212203681468
1733724638033184500,9.0001845703125,0.02900032290443778,0.030275895798206328,-0.16395897457897662
1733724638043145700,9.010145751953125,0.03973799001798033,0.031867548903822894,-0.14295593403875828
1733724638053106400,9.0201064453125,0.040466888814419504,0.0012923778980970383,-0.11129705944955348
1733724638063067600,9.030067626953125,0.03581380231156945,-0.003081599402427673,-0.07535247036516667
1733724638073028600,9.040028564453126,0.017962503800541162,-0.03538870876729488,-0.05532265877127647
1733724638082989600,9.049989501953124,0.027533465222269297,-0.07156301495432853,-0.0579442394465208
1733724638092950500,9.059950439453125,0.027496055821329354,-0.08975158259570598,-0.06730068133473396
1733724638102911500,9.069911376953126,0.035048955418914556,-0.07393968095779418,-0.0732072750300169
1733724638112872700,9.079872802734375,0.024240268895775078,-0.03998363534212112,-0.08875438825190067
1733724638122833400,9.08983349609375,0.0031004502333700657,-0.026385318100452422,-0.11191080743372439
1733724638132794600,9.099794677734375,-0.009851531928777694,-0.019409633868932723,-0.13543839801549912
1733724638142755600,9.109755615234375,-0.03667947923019528,-0.014542320093512534,-0.14608195710480212
1733724638152716300,9.11971630859375,-0.04583338428363204,0.0028267478585243225,-0.13597966528534888
1733724638162677500,9.129677490234375,-0.05203866866454482,0.028841479080915448,-0.12133563838303088
1733724638172638500,9.139638427734376,-0.05546981215700507,0.041491117295622826,-0.11088146438598633
1733724638182599400,9.149599365234375,-0.058200844556093215,0.033329438149929044,-0.10045534743964671
1733724638192560400,9.159560302734375,-0.04919920745491981,0.015478139638900755,-0.09139525814950465
1733724638202521600,9.169521484375,-0.039727614754438395,0.002395370703935623,-0.09753273799121379
1733724638212482600,9.179482666015625,-0.027267946153879164,-0.016420973446965217,-0.10680150159597396
1733724638222443300,9.189443359375,-0.007785247048735618,-0.013493103301525115,-0.11393792934715748
1733724638232404500,9.199404541015625,0.005527677380293607,-0.009276362389326095,-0.1061725560426712
1733724638242365400,9.209365478515625,0.02419336101412773,-0.01017068088054657,-0.1056195983350277
1733724638252326400,9.219326416015624,0.029068273574113845,-0.013640987339615822,-0.10803601182699203
1733724638262287400,9.229287353515625,0.0405411230944097,-0.014025018221139907,-0.09341770388782024
1733724638272248600,9.23924853515625,0.028797786069661376,-0.002924363014101982,-0.08620821090042591
1733724638282209300,9.249209228515625,0.024146014741063117,-0.0035369419544935225,-0.09098317021727562
1733724638292170500,9.25917041015625,0.007521189285069703,-0.01343757372200489,-0.1126554883211851
1733724638302131500,9.26913134765625,-0.006678747111558914,-0.0159206227093935,-0.1256055707871914
1733724638312092400,9.279092529296875,-0.0067465516507625575,-0.013048282143473625,-0.11841302893459796
1733724638322053400,9.289053466796876,-0.007298340314626693,0.015512626430392265,-0.11380407383441925
1733724638332014600,9.2990146484375,-0.008280921611189842,0.026305238601565358,-0.10714929212033748
1733724638341975600,9.3089755859375,0.0012790800251066684,0.033223639687895774,-0.12257950096428394
1733724638351936300,9.318936279296874,0.022728695289045572,0.03621171558797359,-0.1254518415302038
1733724638361897500,9.3288974609375,0.04460676509812474,0.004726444000005722,-0.14344810146987438
1733724638371858400,9.3388583984375,0.06949322294294834,-0.0058066404521465295,-0.15898235521018503
1733724638381819400,9.3488193359375,0.10045827004909515,-0.0069838675379753105,-0.1937713445186615
1733724638391780400,9.3587802734375,0.11862652555480599,0.025140870997309682,-0.22764088089466095
1733724638401741600,9.368741455078125,0.12273396087363361,0.07719137623012065,-0.24029636432826518
1733724638411702300,9.378702392578125,0.11486454267278313,0.1178536414861679,-0.2529354811489582
1733724638421663500,9.38866357421875,0.1301766780950129,0.12125029818713665,-0.28161446314454075
1733724638431625500,9.39862548828125,0.07228431496620177,0.08693009543418884,-0.2985007160156965
1733724638441586400,9.40858642578125,0.025157822132110593,0.04960428112447261,-0.29749416932165623
1733724638451547400,9.41854736328125,-0.041681086909770966,0.014723521879315376,-0.2551268537133932
1733724638461508600,9.428508544921876,-0.0954487713240087,-0.007477204012870788,-0.1738163517266512
1733724638471469300,9.43846923828125,-0.13804653468728065,-0.02723053675293922,-0.057120648103952405
1733724638481430500,9.448430419921875,-0.1866121204137802,-0.055528994998335836,0.048509471625089645
1733724638491391500,9.4583916015625,-0.22829072310552,-0.09510404953956604,0.11809972520172596
1733724638501352400,9.4683525390625,-0.22126740033999084,-0.15712299107909203,0.13872282651364803
1733724638511313400,9.4783134765625,-0.20231705454587937,-0.2235509812325239,0.11631284178495406
1733724638521274600,9.488274658203125,-0.14336159223020076,-0.2379547696381807,0.07692074259519577
1733724638531235600,9.498235595703125,-0.06783376529812812,-0.18116905257701874,0.029704233390092847
1733724638541196300,9.5081962890625,-0.003911474355310201,-0.10847031159102916,-0.006495791760087013
1733724638551157500,9.518157470703125,0.06517550587430596,-0.027719197052717207,-0.05022270528376102
1733724638561118500,9.528118408203126,0.11295067187547683,0.012896890974044799,-0.09375380397439002
1733724638571079400,9.538079345703125,0.15656769528388975,0.02624503284692764,-0.12728490217626093
1733724638581040400,9.548040283203125,0.18003727206811307,0.04940963533520698,-0.16521218951046465
1733724638591001600,9.558001708984374,0.1976106304205954,0.054746904709935186,-0.17988310441970823
1733724638600962300,9.56796240234375,0.2051122382223606,0.05535071582198143,-0.19061960248947143
1733724638610923500,9.577923583984376,0.19304785254970191,0.02370703880190849,-0.20697861661612987
1733724638620884500,9.587884521484375,0.17603797329887746,0.011304653346538542,-0.18558979162871836
1733724638630845400,9.597845458984375,0.11286401650533079,0.004064765220880508,-0.16605623911917208
1733724638640806400,9.607806396484374,0.043459202498197555,-0.0008393734335899353,-0.15828502059578894
1733724638650767600,9.617767578125,-0.01584697295129299,-0.0027495909690856933,-0.15039397508502006
1733724638660728600,9.627728515625,-0.049782560300827026,-0.012760697373747824,-0.14031974031627178
1733724638670689300,9.637689208984375,-0.06701996469721197,0.009582067337632179,-0.120790863981843
1733724638680650500,9.647650390625,-0.08897942917943,-0.010576923593878745,-0.107340430778265
1733724638690611500,9.657611572265624,-0.10122808537781237,-0.02892681927680969,-0.10479542247056961
1733724638700572400,9.667572509765625,-0.09363324633464216,-0.03882511295676231,-0.09647241528332233
1733724638710533400,9.677533447265626,-0.08405176351889967,-0.03041442748606205,-0.08358429213762283
1733724638720494600,9.68749462890625,-0.05553308665156364,-0.043477322676777834,-0.07532616688013076
1733724638730455300,9.697455322265625,-0.008850099801272153,-0.05013794960975647,-0.07281096918880939
1733724638740416500,9.70741650390625,0.027720512226969002,-0.05953939968347549,-0.07591828755438328
1733724638750377500,9.71737744140625,0.06740706431865692,-0.05130816243290901,-0.0931494083404541
1733724638760338400,9.72733837890625,0.0822406224437058,-0.03088321404159069,-0.09420447035133839
1733724638770299400,9.73729931640625,0.0978885656915605,0.009935118559002875,-0.07887421475052833
1733724638780260600,9.747260498046876,0.12561506926789878,0.01371463709771633,-0.05778408044874668
1733724638790221600,9.7572216796875,0.15443287521228194,0.01615735407471657,-0.029649872854351996
1733724638800182300,9.767182373046875,0.14099486309885978,-0.009019172757863998,-0.0027688801914453505
1733724638810143500,9.7771435546875,0.12000935821533203,-0.025614918249845502,0.004421908095479011
1733724638820104400,9.7871044921875,0.11197802745103835,-0.048369186371564864,-0.008774842607975005
1733724638830065400,9.7970654296875,0.12107084996700286,-0.046776948744058605,-0.019905308431386947
1733724638840026400,9.8070263671875,0.11538140615373849,-0.04499824863374233,-0.03931260421276092
1733724638849987600,9.816987548828125,0.09948387205898761,-0.043327100551128386,-0.07498246800899505
1733724638859948300,9.8269482421875,0.07411576817706227,-0.009367547804117202,-0.08225801196992397
1733724638869909500,9.836909423828125,0.034222587597370145,0.011385317367315292,-0.10054244120121002
1733724638879870500,9.846870361328126,-0.005365910947322845,0.0074181673020124435,-0.11021744751930236
1733724638889831400,9.85683154296875,-0.04801657354161143,-0.014072949016094207,-0.12497136453688144
1733724638899792400,9.86679248046875,-0.08510974813923239,-0.03672843293845653,-0.1466886908262968
1733724638909753600,9.876753662109374,-0.10449015591368079,-0.047293666094541546,-0.1491939516454935
1733724638919714600,9.886714599609375,-0.12208499544560908,-0.056707975649833674,-0.1635416259497404
1733724638929675300,9.89667529296875,-0.1319914724320173,-0.05874971061050892,-0.16437807677388191
1733724638939636500,9.906636474609375,-0.14120076093450187,-0.04764554827213287,-0.13325287066996097
1733724638949597400,9.916597412109375,-0.13741276682838796,-0.02551438048481941,-0.07394143452346325
1733724638959558400,9.926558349609374,-0.14106500572562217,-0.04149754703640938,-0.02026420487165451
1733724638969519400,9.936519287109375,-0.13659092905148862,-0.06774842510223389,0.01340834762752056
1733724638979480600,9.94648046875,-0.12406009491086005,-0.10090367572903633,0.017609306448698042
1733724638989441300,9.956441162109375,-0.09754457455947994,-0.1225941140115261,-0.008612345522642135
1733724638999403500,9.966403564453126,-0.05201207291856408,-0.11837971118688582,-0.07085574346780776
1733724639009364500,9.976364501953125,-0.005942249530553817,-0.07559563147127628,-0.13665654163360594
1733724639019325400,9.986325439453125,0.019860884767770766,-0.01794014583826065,-0.21008476593792438
1733724639029286400,9.996286376953124,0.03082300828695297,0.026208792489767072,-0.27168109815120695
1733724639039247600,10.00624755859375,0.0350783276438713,0.048310149660706514,-0.311720847594738
1733724639049208300,10.016208251953126,0.02780292981341481,0.05864800380170345,-0.3290910845905542
1733724639059169500,10.02616943359375,0.014095306978374718,0.061627896395325656,-0.3388917631149292
1733724639069130500,10.036130615234375,0.013722235882282257,0.06102350076138973,-0.3102513595640659
1733724639079091500,10.046091552734374,0.016655366724729538,0.08473463121652602,-0.2661900995194912
1733724639089052400,10.056052490234375,0.03610694003924727,0.09430208550691604,-0.2504565238147974
1733724639099013600,10.066013671875,0.038338060092180964,0.08857903168499469,-0.2462082187205553
1733724639108974300,10.075974365234375,0.04322174048051238,0.09177227476835251,-0.2375900279790163
1733724639118935300,10.085935302734375,0.04832724692597985,0.09800503167808056,-0.23315759848952292
1733724639128896500,10.095896484375,0.06491700106859206,0.10367898566126822,-0.21642799748480318
1733724639138857500,10.105857421875,0.07507482246756553,0.10317337422668933,-0.1835235067486763
1733724639148818400,10.115818359375,0.08377031622901558,0.07909457950294017,-0.1398784262895584
1733724639158778600,10.125778564453125,0.075541124805063,0.03201660198569298,-0.10926116970777511
1733724639168739800,10.13573974609375,0.08281038515567779,-0.019985972452163697,-0.06487550001442433
1733724639178700800,10.14570068359375,0.08979030717089771,-0.06349135217964649,-0.027113632375001907
1733724639188661800,10.155661865234375,0.07783142769932747,-0.08822831855118274,0.007945990568399428
1733724639198622700,10.165622802734376,0.06806406692266463,-0.10962824945449828,0.03177344087958336
1733724639208583700,10.175583740234375,0.059194531768560404,-0.1338134271621704,0.039654549518227576
1733724639218544600,10.185544677734375,0.06601400252506137,-0.13225041562914847,0.04122691340148449
1733724639228505600,10.195505615234374,0.05746449310556054,-0.10650690256357193,0.04187047200202942
1733724639238466800,10.205466796875,0.05003770410567522,-0.08123217605352401,0.04148468755483627
1733724639248427500,10.215427490234376,0.05285144635215401,-0.07247370005846022,0.02583995917737484
1733724639258388700,10.225388671875,0.047867812720686194,-0.07084697563946246,0.001308159989118576
1733724639268349700,10.235349609375,0.048441228694468735,-0.06587327888011932,-0.035927637949585915
1733724639278310700,10.245310546875,0.05289221675395965,-0.04301555038392543,-0.07080956623852253
1733724639288271600,10.255271728515625,0.0457413220860064,-0.00902910962998867,-0.11934943300187587
1733724639298232800,10.26523291015625,0.041273090630769727,0.005014028769731521,-0.14532266317009926
1733724639308193800,10.27519384765625,0.03986775387749076,0.020252514433860776,-0.15695990947186947
1733724639318154800,10.28515478515625,0.03598725918233395,0.043432899013161656,-0.14393851533532143
1733724639328115700,10.29511572265625,0.004520546164363623,0.04641162256300449,-0.11695756942927836
1733724639338076700,10.30507666015625,-0.0194945356734097,0.0070364745080471035,-0.09387713809311389
1733724639348037600,10.31503759765625,-0.03475450251698494,-0.06644961746335029,-0.08150923942923545
1733724639357998600,10.32499853515625,-0.02305705046057701,-0.12353402521014213,-0.07477379369437694
1733724639367959800,10.334959716796876,-0.01622691217958927,-0.13548632881045342,-0.07110650335848331
1733724639377920500,10.34492041015625,0.005762216788530349,-0.11813655008077621,-0.07476385682225227
1733724639387881700,10.3548818359375,0.012713497231155634,-0.07885667909383773,-0.08912731321752071
1733724639397842700,10.3648427734375,0.018103811967372894,-0.033435821133852,-0.09807868143618106
1733724639407803600,10.3748037109375,0.024482114827632902,0.018097966748476028,-0.11115618967413901
1733724639417764600,10.3847646484375,0.023025632409006357,0.027887539356946944,-0.11850889052450657
1733724639427725800,10.394725830078125,0.027744039233028886,0.041078444841504094,-0.1285235040605068
1733724639437686800,10.404686767578125,0.042294834893941875,0.053685412958264345,-0.11841361345648765
1733724639447647700,10.414647705078124,0.05972177051305771,0.04671206681430339,-0.0983341175019741
1733724639457608700,10.424608642578125,0.08016016290783881,0.018244097220897672,-0.07182254267334938
1733724639467569700,10.434569580078126,0.07582184144258498,0.0025999533653259274,-0.04063303916156292
1733724639477530600,10.444530517578125,0.06954056921601295,-0.018849661898612976,-0.028754969841241835
1733724639487491600,10.45449169921875,0.04874225746765733,-0.03587678454518318,-0.032684710505604744
1733724639497452800,10.464452880859374,0.022214023765176533,-0.0638479105323553,-0.05229249729514122
1733724639507413500,10.47441357421875,-0.0036016777537763115,-0.0744312638670206,-0.06782558199167252
1733724639517374700,10.484374755859376,-0.013335282391309737,-0.09036533057987689,-0.08242343166470527
1733724639527335700,10.494335693359375,-0.011099924554675816,-0.09176116885244846,-0.09024141193926334
1733724639537297000,10.504296875,0.013845423870533703,-0.07574000837802887,-0.08984919775128364
1733724639547257600,10.514257568359374,0.012729571583122015,-0.04645779979228973,-0.05866495493650436
1733724639557218800,10.52421875,-0.0022831425011157988,-0.019050152906775475,-0.03299450710713863
1733724639567179800,10.5341796875,-0.01656228161379695,-0.006786883661150932,-0.026054478710889815
1733724639577140700,10.544140625,-0.011800912430882453,-0.0072188453376293175,-0.03353460533320904
1733724639587102700,10.554102783203126,0.005056698867678642,-0.01918576198518276,-0.04247720572352409
1733724639597063700,10.564063720703125,0.02083352919220924,-0.025559973192214966,-0.08885141888558865
1733724639607024600,10.574024658203125,0.041869302958250046,-0.0467377857774496,-0.12572773586213587
1733724639616985900,10.58398583984375,0.05307239562645554,-0.03303776172697544,-0.1573760890573263
1733724639626946600,10.593946533203125,0.0504513994731009,0.007941898915171624,-0.18059154495000837
1733724639636907800,10.60390771484375,0.026576456758379934,-0.003426467317342758,-0.2261386596381664
1733724639646868700,10.61386865234375,0.02627323602810502,-0.029635844328999517,-0.2565647775620222
1733724639656829700,10.62382958984375,0.026547815185785292,-0.01776712735891342,-0.2431049920082092
1733724639666790700,10.633790771484374,0.018987609064579008,0.022180267626047134,-0.1827647973358631
1733724639676751600,10.643751708984375,-0.012825579303503035,0.0557873536735773,-0.1265636021643877
1733724639686712800,10.653712890625,-0.06829919085279107,0.03626666064560413,-0.08969488397240638
1733724639696673500,10.663673583984375,-0.10944836284294723,-0.00017594108879566192,-0.07105097377896308
1733724639706634800,10.673634765625,-0.12471139842644333,-0.027752514800429343,-0.052587680849432945
1733724639716595700,10.683595703125,-0.13726152178943157,-0.05634615660011768,-0.050449499776959415
1733724639726556700,10.693556640625,-0.11923311314582824,-0.08905717059075832,-0.06616904695630073
1733724639736517600,10.703517578125,-0.08504778881892562,-0.1165811373323202,-0.07798515695631504
1733724639746478800,10.713478759765625,-0.06956614204868673,-0.12406184847652911,-0.1014145478606224
1733724639756439800,10.723439697265626,-0.0478097989231348,-0.10223112494051456,-0.09868775324523449
1733724639766400800,10.73340087890625,-0.03835267313942313,-0.060683893543481825,-0.10421674579977988
1733724639776361700,10.74336181640625,-0.016242548140138386,-0.03984685721993446,-0.10119593667387962
1733724639786322700,10.75332275390625,-0.0067453826069831845,-0.03101473146677017,-0.09928279652893543
1733724639796283600,10.76328369140625,0.007168576455116271,-0.02860357867181301,-0.07800093904733657
1733724639806244600,10.77324462890625,0.025583207937330005,-0.02576806298494339,-0.05195990433990955
1733724639816205800,10.783205810546875,0.0429768258087337,-0.02931727989912033,-0.031471243062615395
1733724639826166500,10.79316650390625,0.04750716271474957,-0.019359949508309365,-0.02326046407818794
1733724639836127700,10.803127685546874,0.04437412538602948,-0.00537350973188877,-0.024025018709897993
1733724639846088700,10.813088623046875,0.05465878803506493,0.021024667850136756,-0.045045010384917254
1733724639856049700,10.823049560546876,0.06854571295976639,0.05200958870053291,-0.09537351413071155
1733724639866010600,10.8330107421875,0.0863445506311953,0.060274728220701214,-0.13744856879413128
1733724639875971800,10.842971923828125,0.12172449157014488,0.03593523673415184,-0.18433190052211285
1733724639885932800,10.852932861328124,0.14772621718049048,-0.0035205753415822982,-0.2224234385073185
1733724639895893800,10.862893798828125,0.1594100791029632,-0.026833061867952344,-0.2276081476688385
1733724639905854700,10.872854736328126,0.13883227823749184,0.0020317980885505675,-0.20266601411402224
1733724639915815700,10.882815673828125,0.12035071899890899,0.03668459379673004,-0.1705260780096054
1733724639925776600,10.892776611328125,0.07756707767471671,0.06144961721897125,-0.12190437818169593
1733724639935737600,10.902737548828124,0.052217824623733755,0.0504284569889307,-0.11814356434345245
1733724639945698800,10.91269873046875,0.018801731103658674,0.010856325057148933,-0.11358078647255897
1733724639955659500,10.922659423828126,-0.009823328747600316,-0.02651917361319065,-0.10669394956827163
1733724639965620700,10.932620849609375,-0.032443302965164185,-0.03974105875790119,-0.10020224946141243
1733724639975581700,10.942581787109376,-0.04455635008513927,-0.03714987322092056,-0.08097147929072379
1733724639985542700,10.952542724609375,-0.05196852603778243,-0.03004968582689762,-0.044544075125455856
1733724639995503600,10.962503662109375,-0.07990297327637672,-0.05146481429934501,-0.034628245788812635
1733724640005464800,10.97246484375,-0.09516294011995195,-0.06177928756475448,-0.01862111383974552
1733724640015425800,10.98242578125,-0.08289177982881665,-0.06805062291920184,-0.012904489758610724
1733724640025386800,10.99238671875,-0.051494186524301766,-0.07608838342428206,-0.01589139661490917
1733724640035347700,11.00234765625,-0.016167290946841238,-0.0809101044923067,-0.033334114325046536
1733724640045308700,11.01230859375,0.018846300897747276,-0.08643208278417587,-0.05014788648188114
1733724640055269600,11.02226953125,0.03327215500473976,-0.08230126658976078,-0.07812719577550888
1733724640065230600,11.032230712890625,0.03344415057078004,-0.049753334206342696,-0.09560966097414493
1733724640075191800,11.04219189453125,0.016814502809196708,-0.031956980752944945,-0.10869710608422756
1733724640085152500,11.052152587890625,0.007799275574088096,-0.02765197703540325,-0.10683715743124485
1733724640095113700,11.06211376953125,0.015929975059628485,-0.02010170778632164,-0.07995791833400726
1733724640105074700,11.07207470703125,0.010750672725588082,-0.01892623426616192,-0.06568097117841243
1733724640115035600,11.08203564453125,0.009454203174263239,-0.02859188823401928,-0.07048457206785678
1733724640124996600,11.09199658203125,0.010195230799913406,-0.057895724129676814,-0.09608546179234981
1733724640134957800,11.101957763671875,-0.0020012568198144436,-0.06139759477078914,-0.1241325756251812
1733724640144918800,11.111918701171875,0.00363967167660594,-0.06030453883707523,-0.14627601837217807
1733724640154880300,11.12188037109375,0.009500818794965744,0.0006686930418014526,-0.15727905842363835
1733724640164841500,11.131841552734375,0.021836130363494157,0.06063888535797596,-0.15415011274814605
1733724640174802200,11.14180224609375,0.022614128998667,0.0948269861638546,-0.16490356195271014
1733724640184763400,11.151763427734375,0.016695260343700648,0.09139175101816653,-0.17850129467248915
1733724640194725400,11.161725341796876,0.02521978145241737,0.05656009161174297,-0.166875154286623
1733724640204685600,11.171685546875,0.025717355711013076,0.004234861090779305,-0.1471416952908039
1733724640214647300,11.181647216796875,0.00658522360920906,-0.0465723660826683,-0.11807868241369723
1733724640224608500,11.1916083984375,-0.011786737775057553,-0.04665419914722442,-0.0812637402355671
1733724640234569200,11.2015693359375,-0.034506519105285405,-0.04538052594959736,-0.0332575419574976
1733724640244530400,11.211530517578124,-0.060091188347339626,-0.06757540662288665,-0.012311200040578842
1733724640254491400,11.221491455078125,-0.05445172115564346,-0.09897650705873966,-0.015827683728933332
1733724640264452000,11.2314521484375,-0.04265957655310631,-0.10823124213814735,-0.015502105036377906
1733724640274413300,11.241413330078124,-0.033437574699521064,-0.11381868688166141,-0.016252046620845794
1733724640284374300,11.251374267578125,-0.016624971586465833,-0.10655307979285716,-0.028863106390833854
1733724640294335500,11.26133544921875,-0.013608254113793372,-0.08919453323483467,-0.04238368222117424
1733724640304296200,11.271296142578125,-0.011609627642482518,-0.08997428543567657,-0.044483284848928446
1733724640314257400,11.28125732421875,-0.00019639935493469238,-0.07421440624594688,-0.04341127170324325
1733724640324218400,11.29121826171875,0.005363572859764099,-0.06012684418261051,-0.05063713130354881
1733724640334179300,11.301179443359375,0.015033903002738951,-0.05627776753902435,-0.032956513184309005
1733724640344140300,11.311140380859374,0.032964550360292194,-0.0540577534019947,-0.027248656931519507
1733724640354101500,11.3211015625,0.02587736857831478,-0.05244271942079067,-0.013414777368307113
1733724640364062200,11.331062255859376,0.03582520048841834,-0.05132043739259243,-0.012127075645327567
1733724640374023400,11.3410234375,0.022702684064954518,-0.07521627676486968,-0.026669980260729788
1733724640383984400,11.350984375,0.020874445724487302,-0.09985679702460765,-0.04691723399758339
1733724640393945300,11.3609453125,0.02918064790740609,-0.09829670810103416,-0.09686696755886078
1733724640403906300,11.37090625,0.04032514225617051,-0.03704699736833572,-0.1385147367209196
1733724640413867300,11.3808671875,0.054409489449113606,0.04371522308588028,-0.18268179522752762
1733724640423828500,11.390828369140625,0.07339607560038566,0.09507423892319201,-0.2199959190994501
1733724640433789200,11.4007890625,0.09239420605897902,0.13237374974787233,-0.2508347094774246
1733724640443750400,11.41075048828125,0.10480784356072545,0.15419219832420347,-0.24655250211358068
1733724640453711400,11.42071142578125,0.08029796394333243,0.13437749078571795,-0.23039397899508474
1733724640463672300,11.43067236328125,0.05186418888047337,0.08604103763997555,-0.20751637675464152
1733724640473633300,11.44063330078125,0.021635493224859238,0.02324526650905609,-0.15149989050030707
1733724640483594500,11.450594482421875,-0.016760434534400702,-0.031332711374759674,-0.08861527204215526
1733724640493555200,11.46055517578125,-0.04361161658093333,-0.09411445398032665,-0.04947860891819
1733724640503516400,11.470516357421875,-0.0556907614313066,-0.12597732670903206,-0.030327918246388433
1733724640513477400,11.480477294921876,-0.052448564639687535,-0.11652268514335155,-0.00378887088894844
1733724640523438300,11.490438232421875,-0.031222090607136484,-0.08540098617076873,0.01307633919417858
1733724640533399300,11.5003994140625,0.0029741935051977634,-0.03645838382542133,0.006725508862733841
1733724640543360300,11.5103603515625,0.04748553540483117,-0.005051438170671462,-0.009223170897364616
1733724640553321500,11.520321533203125,0.03223755125999451,-0.01737725125849247,-0.058846741244196886
1733724640563282200,11.5302822265625,0.027936639195680617,-0.04217091625332832,-0.11173428182303904
1733724640573243400,11.540243408203125,0.04157821105718613,-0.04540799847841263,-0.12728607122004032
1733724640583204400,11.550204345703126,0.06255187937244773,-0.02676759541630745,-0.13519289882183075
1733724640593165300,11.560165283203125,0.06818214034438133,-0.01968728176653385,-0.13853402594327927
1733724640603126300,11.570126220703125,0.04712868479117751,-0.030023382341861724,-0.14406360301971435
1733724640613087500,11.58008740234375,0.010660510224103926,-0.03318213863372803,-0.1322328799724579
1733724640623048200,11.590048095703125,-0.02332943766117096,-0.035896658289432525,-0.12377134109735488
1733724640633009400,11.600009521484376,-0.051668227916955946,-0.02535714409649372,-0.10235796619057655
1733724640642970400,11.609970458984375,-0.08795826943814754,-0.041134558942914005,-0.08858604594767093
1733724640652931300,11.619931396484375,-0.09122399323582649,-0.0743570295870304,-0.08202069608271122
1733724640662892300,11.629892333984374,-0.08031988351419568,-0.08466682667732238,-0.06561316663920878
1733724640672853200,11.639853271484375,-0.07937573453187942,-0.06629588820636272,-0.05315525160431862
1733724640682814500,11.649814453125,-0.07509118908047675,-0.0489554618269205,-0.041788638937473296
1733724640692775200,11.659775146484375,-0.08560834531113505,-0.054712417918443675,-0.05590133544206619
1733724640702736400,11.669736328125,-0.09145648681744932,-0.05689151552319526,-0.07324117729961872
1733724640712697300,11.679697265625,-0.06635550943911075,-0.036090135034918785,-0.07759177372455596
1733724640722658300,11.689658203125,-0.016555851873010397,-0.02633446469604969,-0.06808920136392116
1733724640732619300,11.699619384765626,0.019582067826390267,-0.017242811223864556,-0.05775894600749015
1733724640742580500,11.70958056640625,0.04903671036958694,-0.05130640886723995,-0.047208325898647305
1733724640752541200,11.719541259765625,0.059437692874670024,-0.09529109654426574,-0.03336977016031742
1733724640762502400,11.72950244140625,0.07030337028205394,-0.11414309653043746,-0.012518705311417579
1733724640772463400,11.73946337890625,0.06605228870883584,-0.12998071713149548,0.021567688685655593
1733724640782424600,11.749424560546874,0.055932315102219576,-0.09228431594371796,0.03712532330155372
1733724640792385300,11.75938525390625,0.06441884228810668,-0.07342296360731125,0.03136719816625118
1733724640802346200,11.76934619140625,0.06396642234548926,-0.06607844606339931,0.02312193239033222
1733724640812307500,11.779307373046874,0.0684041125319898,-0.044995326024293895,0.006385317122936249
1733724640822268200,11.78926806640625,0.08602131002619862,-0.0403331794321537,-0.016959902629256247
1733724640832229400,11.7992294921875,0.09340835153758525,-0.02027589530944824,-0.03729132751822471
1733724640842190300,11.8091904296875,0.08994564386308193,-0.008738017728924751,-0.05815525184869766
1733724640852151300,11.8191513671875,0.07055880634784698,-0.0008060556858777999,-0.07402443663179874
1733724640862112300,11.8291123046875,0.0515079227887094,-0.019908815562725064,-0.07824293110966682
1733724640872073500,11.839073486328125,0.03517185114622116,-0.04197860855162144,-0.07195055296719075
1733724640882034200,11.8490341796875,0.019437106397747993,-0.08543488844037056,-0.06061901161372661
1733724640891995400,11.858995361328125,-0.00042187867388129234,-0.12632745532095432,-0.0517792870759964
1733724640901957400,11.868957275390626,-0.029491321291774508,-0.14799743533730506,-0.06657879680097102
1733724640911917600,11.87891748046875,-0.07114683536887169,-0.13890636638700962,-0.06631283934116364
1733724640921879300,11.88887939453125,-0.10470905936136841,-0.11189151821136474,-0.07464169174730777
1733724640931840500,11.898840576171875,-0.1066181078530848,-0.06120528706908226,-0.1008610056310892
1733724640941800400,11.908800537109375,-0.08917582853436469,-0.018075754916667935,-0.1321364338606596
1733724640951762400,11.918762451171874,-0.06542378154695033,0.012165069568157195,-0.15750994457006454
1733724640961723400,11.928723388671875,-0.034183278500288725,0.035002924320101735,-0.1829828240007162
1733724640971684000,11.93868408203125,-0.015541268002986906,0.03796060508191585,-0.19292495682239533
1733724640981645300,11.948645263671875,-0.0011164368093013763,0.032439795833826064,-0.16796587213277817
1733724640991606300,11.958606201171875,0.008530658588558435,0.011693360403180121,-0.13357085057795046
1733724641001567500,11.9685673828125,0.03315817323625087,-0.004210311171412468,-0.0783744485348463
1733724641011528200,11.978528076171875,0.04702478602528572,-0.023465046739578246,-0.05488777448534965
1733724641021489400,11.988489501953126,0.04291925040259957,-0.044244799917936325,-0.06694996820092201
1733724641031450400,11.998450439453125,0.04997486800253391,-0.058301382321119304,-0.07410743874013423
1733724641041411300,12.008411376953125,0.056210693652182814,-0.050077159333229065,-0.08731763344705104
1733724641051372300,12.018372314453124,0.08589037712290883,-0.03650163844525814,-0.09692366618216038
1733724641061333500,12.02833349609375,0.09817994985356926,-0.02501636783480644,-0.09637538464963435
1733724641071294200,12.038294189453126,0.08560922209396958,-0.011980360651016235,-0.10126491025686263
1733724641081255400,12.04825537109375,0.07236424833461642,-0.007758359041810035,-0.10532675286829471
1733724641091216400,12.05821630859375,0.057102966316789384,-0.003649754679203033,-0.08576105165481566
1733724641101177000,12.068177001953124,0.025737229455262422,-0.0012444471031427384,-0.07303425655066967
1733724641111138300,12.07813818359375,0.010206775107234715,-0.015810148072242736,-0.0499316133826971
1733724641121099300,12.088099365234376,0.004792056582123041,-0.04732698384225368,-0.04643617248237133
1733724641131060500,12.098060546875,0.0037808337129652497,-0.048018473237752914,-0.03193769153058529
1733724641141021200,12.108021240234375,0.003902414266020059,-0.04906067576706409,-0.03591127133667469
1733724641150982400,12.117982421875,-0.00806157977208495,-0.037357963013648986,-0.040844051563739776
1733724641160943000,12.127943115234375,-0.005787935751676559,-0.034405542948842044,-0.05708265418112277
1733724641170903800,12.13790380859375,0.008076777341216802,-0.06303834771513939,-0.07100830368101596
1733724641180865000,12.147864990234375,0.022067016509920358,-0.056793900367617604,-0.06845861919820308
1733724641190826000,12.157825927734375,0.04365501733124256,-0.04533668680787086,-0.0604758037507534
1733724641200787000,12.167786865234374,0.05657952696457505,-0.045324411848187446,-0.06133797353804111
1733724641210748000,12.177747802734375,0.05513108172193169,-0.04258241966366768,-0.06374561920166015
1733724641220709000,12.187709228515626,0.06586626461744308,-0.04409516231417656,-0.078287354773283
1733724641230670000,12.197670166015625,0.07301978963389992,-0.03425999699831009,-0.08719371480643749
1733724641240631000,12.207631103515626,0.07469444484785198,-0.010809563305974006,-0.09888181451261042
1733724641250592000,12.217592041015624,0.06639891018941999,0.012847791135311126,-0.1029746367841959
1733724641260553000,12.227552978515625,0.05979322831407189,0.011668810483813285,-0.11029168179929255
1733724641270514000,12.237513916015626,0.04638298099040985,0.015077157622575759,-0.11546645408868789
1733724641280475000,12.247474853515625,0.02410977438390255,-0.0013631050467491149,-0.11142623878717421
