time,seconds_elapsed,z,y,x
1733515989633444900,0.01844482421875,-0.008014841936528683,0.11898260563611984,-0.03032047487795353
1733515989643521800,0.028521728515625,-0.010126115754246712,0.08330582082271576,-0.01350850984454155
1733515989653598700,0.0385986328125,0.013225013390183449,0.03683871775865555,0.0015910807996988297
1733515989663676000,0.048676025390625,0.02820184826850891,-0.0061662159860134125,0.005434506107121706
1733515989673752800,0.0587529296875,0.04385111480951309,-0.03051815927028656,0.0009223120287060738
1733515989683831000,0.0688310546875,0.04895736649632454,-0.03887413814663887,-0.004388744477182627
1733515989693908000,0.078907958984375,0.0552099347114563,-0.039791595190763474,-0.012477830052375793
1733515989703985000,0.08898486328125,0.07446364313364029,-0.05065649747848511,-0.030530022457242012
1733515989714062000,0.09906201171875,0.11578845232725143,-0.07364863157272339,-0.0778203010559082
1733515989724139000,0.109138916015625,0.173844575881958,-0.035152364522218704,-0.08221381157636642
1733515989734216000,0.1192158203125,0.2146868109703064,-0.019763289019465446,-0.0677107647061348
1733515989744294000,0.1292939453125,0.2290666252374649,-0.04201674461364746,-0.03806879743933678
1733515989754370800,0.139370849609375,0.22664473950862885,-0.07133308798074722,-0.0024860347621142864
1733515989764448000,0.149447998046875,0.2455945461988449,-0.09623195976018906,0.007264626678079367
1733515989774525000,0.15952490234375,0.27850908041000366,-0.08653565496206284,-0.014563972130417824
1733515989784601900,0.169601806640625,0.26249006390571594,-0.026480304077267647,-0.04689479619264603
1733515989794679800,0.1796796875,0.20629841089248657,0.028586409986019135,-0.06782297790050507
1733515989804757000,0.189757080078125,0.15690293908119202,0.05402446165680885,-0.08229172229766846
1733515989814834000,0.199833984375,0.17495223879814148,0.06966546922922134,-0.0960107296705246
1733515989824910800,0.209910888671875,0.21639005839824677,0.045889925211668015,-0.09968080371618271
1733515989834987800,0.21998779296875,0.27778124809265137,-0.010097178630530834,-0.08568136394023895
1733515989845065700,0.230065673828125,0.29930388927459717,-0.08772549033164978,-0.017247602343559265
1733515989855143000,0.240142822265625,0.30146104097366333,-0.2242729514837265,0.08451736718416214
1733515989865219800,0.2502197265625,0.28943219780921936,-0.4129091799259186,0.1870381087064743
1733515989875296800,0.260296875,0.315355122089386,-0.5484717488288879,0.24744632840156555
1733515989885373400,0.27037353515625,0.4225332736968994,-0.5867732763290405,0.2555650472640991
1733515989895450400,0.280450439453125,0.7012602686882019,-0.5379983186721802,0.20450611412525177
1733515989905528300,0.2905283203125,1.035196304321289,-0.4456213712692261,0.1395590603351593
1733515989915605200,0.300605224609375,1.3388001918792725,-0.375765323638916,0.0859038233757019
1733515989925682400,0.310682373046875,1.6305397748947144,-0.19734413921833038,-0.019548043608665466
1733515989935759400,0.32075927734375,1.8241041898727417,0.018460601568222046,-0.1442399024963379
1733515989945836300,0.330836181640625,1.9792530536651611,0.16613218188285828,-0.276957243680954
1733515989955914500,0.34091455078125,2.091599941253662,0.18379054963588715,-0.38905635476112366
1733515989965991400,0.350991455078125,2.158714771270752,0.08738205581903458,-0.44972315430641174
1733515989976068600,0.361068603515625,2.1902177333831787,-0.024951407685875893,-0.48707184195518494
1733515989986145500,0.3711455078125,2.1525349617004395,-0.09573376923799515,-0.516684889793396
1733515989996222500,0.381222412109375,2.0355305671691895,-0.1303042769432068,-0.5413481593132019
1733515990006300400,0.391300537109375,1.8897342681884766,-0.13752757012844086,-0.5989995002746582
1733515990016377300,0.40137744140625,1.664299488067627,-0.13991589844226837,-0.6771683096885681
1733515990026454500,0.41145458984375,1.339675784111023,-0.15565794706344604,-0.7527987360954285
1733515990036531500,0.421531494140625,0.9268872141838074,-0.22375763952732086,-0.7979555726051331
1733515990046608400,0.4316083984375,0.5876664519309998,-0.13343270123004913,-0.768977165222168
1733515990056685600,0.441685546875,0.3886907398700714,0.009975071996450424,-0.6627506017684937
1733515990066763500,0.451763427734375,0.2992047369480133,0.1923641562461853,-0.4946657717227936
1733515990076840400,0.46184033203125,0.28336265683174133,0.26971590518951416,-0.260471910238266
1733515990086917400,0.47191748046875,0.22095754742622375,0.19082999229431152,-0.008814576081931591
1733515990096994300,0.481994384765625,0.06819891184568405,0.1116107925772667,0.1939968466758728
1733515990107071500,0.492071533203125,-0.06016543507575989,0.0993504747748375,0.28660088777542114
1733515990117149400,0.5021494140625,-0.12573644518852234,0.10419636219739914,0.2733016014099121
1733515990127226400,0.512226318359375,-0.14362101256847382,0.05615474283695221,0.19362938404083252
1733515990137303300,0.52230322265625,-0.11608739197254181,-0.04342670738697052,0.0764676108956337
1733515990147380500,0.53238037109375,-0.07906550168991089,-0.14040014147758484,-0.04994341731071472
1733515990157457400,0.54245751953125,-0.05281125754117966,-0.1990533322095871,-0.13312485814094543
1733515990167535400,0.552535400390625,-0.05202743038535118,-0.2055794894695282,-0.16416434943675995
1733515990177612300,0.5626123046875,-0.05050596594810486,-0.14874283969402313,-0.15419453382492065
1733515990187689200,0.572689208984375,-0.04303886741399765,-0.0324116013944149,-0.11586219817399979
1733515990197766400,0.582766357421875,-0.02058362402021885,0.10843579471111298,-0.07353685051202774
1733515990207843300,0.59284326171875,-0.0027141282334923744,0.21609556674957275,-0.0576067790389061
1733515990217921500,0.602921630859375,0.0130496546626091,0.2932145595550537,-0.06721626222133636
1733515990227998500,0.61299853515625,0.020267825573682785,0.34547415375709534,-0.09303818643093109
1733515990238075400,0.623075439453125,0.03487526252865791,0.36020514369010925,-0.1178540587425232
1733515990248152600,0.633152587890625,0.05134841427206993,0.3520163893699646,-0.13793475925922394
1733515990258229500,0.6432294921875,0.05952351540327072,0.33404189348220825,-0.13173626363277435
1733515990268306400,0.653306396484375,0.05266214534640312,0.3015376031398773,-0.10671472549438477
1733515990278384400,0.66338427734375,0.024765003472566605,0.2472330629825592,-0.06743203848600388
1733515990288461600,0.673461669921875,0.0071045574732124805,0.19569948315620422,-0.03830476477742195
1733515990298538500,0.68353857421875,0.008628685027360916,0.15796887874603271,-0.04345691576600075
1733515990308615400,0.693615478515625,-0.01912960410118103,0.17095305025577545,-0.0489339604973793
1733515990318692400,0.7036923828125,-0.03984686732292175,0.1972658783197403,-0.04770651087164879
1733515990328770300,0.713770263671875,-0.04445911571383476,0.21296663582324982,-0.03525407239794731
1733515990338847500,0.723847412109375,-0.038811348378658295,0.21603193879127502,-0.029617225751280785
1733515990348924400,0.73392431640625,-0.030832435935735703,0.21591243147850037,-0.03378504514694214
1733515990359001300,0.74400146484375,-0.018696676939725876,0.20864653587341309,-0.04659111797809601
1733515990369078300,0.754078369140625,-0.00320849334821105,0.1999889463186264,-0.06546100229024887
1733515990379155500,0.764155517578125,0.013427474536001682,0.18960420787334442,-0.0818125456571579
1733515990389233400,0.7742333984375,0.027900265529751778,0.18057842552661896,-0.0917905941605568
1733515990399310300,0.784310302734375,0.03356613963842392,0.1763935387134552,-0.09558586776256561
1733515990409387300,0.79438720703125,0.03598084673285484,0.16810356080532074,-0.09214575588703156
1733515990419464400,0.80446435546875,0.0340266190469265,0.15969409048557281,-0.08813264220952988
1733515990429541400,0.814541259765625,0.025884438306093216,0.15786343812942505,-0.07306008040904999
1733515990439619300,0.824619384765625,0.00986525695770979,0.15300557017326355,-0.048319049179553986
1733515990449696300,0.8346962890625,-0.007714725099503994,0.1567736566066742,-0.027525130659341812
1733515990459773200,0.844773193359375,-0.019590027630329132,0.16925856471061707,-0.007481648586690426
1733515990469850400,0.854850341796875,-0.028764329850673676,0.18539732694625854,-0.0002147718332707882
1733515990479927300,0.86492724609375,-0.03287598118185997,0.20104099810123444,-0.008167237043380737
1733515990490005500,0.875005615234375,-0.03593355789780617,0.22461210191249847,-0.033673930913209915
1733515990500082400,0.88508251953125,-0.04301037639379501,0.26031923294067383,-0.06314819306135178
1733515990510159600,0.89515966796875,-0.04673486948013306,0.2942647635936737,-0.09389777481555939
1733515990520236500,0.905236572265625,-0.05038073658943176,0.32555052638053894,-0.11789392679929733
1733515990530313500,0.9153134765625,-0.04652922600507736,0.3587034344673157,-0.13255907595157623
1733515990540390400,0.925390380859375,-0.04569406062364578,0.3904251456260681,-0.14241144061088562
1733515990550468400,0.93546826171875,-0.03847833350300789,0.43999966979026794,-0.14796732366085052
1733515990560545500,0.945545654296875,-0.026118870824575424,0.49047455191612244,-0.15335169434547424
1733515990570622500,0.95562255859375,-0.021694455295801163,0.5363203287124634,-0.15636226534843445
1733515990580699400,0.965699462890625,-0.023334696888923645,0.5675861239433289,-0.16579625010490417
1733515990590776300,0.9757763671875,-0.024770960211753845,0.5788136124610901,-0.17662397027015686
1733515990600854300,0.985854248046875,-0.027779532596468925,0.5781315565109253,-0.19612230360507965
1733515990610931500,0.995931396484375,-0.03317335247993469,0.5804964900016785,-0.21009670197963715
1733515990621008400,1.00600830078125,-0.04532855376601219,0.5872167348861694,-0.21538040041923523
1733515990631085300,1.016085205078125,-0.059444986283779144,0.6092298030853271,-0.21020032465457916
1733515990641162500,1.02616259765625,-0.08333460241556168,0.6356334686279297,-0.19883927702903748
1733515990651240400,1.036240478515625,-0.11867160350084305,0.6656917333602905,-0.1814502477645874
1733515990661317400,1.0463173828125,-0.14802336692810059,0.6838566660881042,-0.1724354475736618
1733515990671394300,1.056394287109375,-0.16960346698760986,0.7067747116088867,-0.17942102253437042
1733515990681471200,1.06647119140625,-0.17210231721401215,0.7174745202064514,-0.1900385022163391
1733515990691548400,1.07654833984375,-0.1653788983821869,0.7191354632377625,-0.2005564570426941
1733515990701625300,1.086625244140625,-0.1551869809627533,0.7293569445610046,-0.2016448825597763
1733515990711703300,1.096703369140625,-0.13091155886650085,0.7433438301086426,-0.18612581491470337
1733515990721780200,1.1067802734375,-0.11233094334602356,0.765801191329956,-0.15952083468437195
1733515990731857400,1.116857421875,-0.11664184182882309,0.7949779033660889,-0.13511444628238678
1733515990741934300,1.126934326171875,-0.12948040664196014,0.8057474493980408,-0.11682785302400589
1733515990752011300,1.13701123046875,-0.14806289970874786,0.778410792350769,-0.11384841799736023
1733515990762089500,1.14708935546875,-0.16268311440944672,0.710717499256134,-0.12121471762657166
1733515990772166400,1.15716650390625,-0.17290207743644714,0.6190032362937927,-0.12992693483829498
1733515990782243600,1.16724365234375,-0.18058077991008759,0.503183126449585,-0.1386948525905609
1733515990792320500,1.177320556640625,-0.1832311749458313,0.3680286109447479,-0.13509303331375122
1733515990802397400,1.1873974609375,-0.18544985353946686,0.23457178473472595,-0.1200467124581337
1733515990812475400,1.197475341796875,-0.1890934705734253,0.13702523708343506,-0.10577692091464996
1733515990822552300,1.20755224609375,-0.1939217746257782,0.09527486562728882,-0.09549285471439362
1733515990832629500,1.21762939453125,-0.19732661545276642,0.11685819178819656,-0.08819189667701721
1733515990842706400,1.22770654296875,-0.19573430716991425,0.17618995904922485,-0.09225055575370789
1733515990852783400,1.237783447265625,-0.19454331696033478,0.22170285880565643,-0.09334253519773483
1733515990862860500,1.247860595703125,-0.18404167890548706,0.2500021457672119,-0.09138671308755875
1733515990872938500,1.2579384765625,-0.1665351837873459,0.2541521191596985,-0.08434157818555832
1733515990883015400,1.268015380859375,-0.1387576162815094,0.23789140582084656,-0.06906302273273468
1733515990893092600,1.278092529296875,-0.11989932507276535,0.21139483153820038,-0.050954025238752365
1733515990903169500,1.28816943359375,-0.1161237582564354,0.1928776055574417,-0.03667468577623367
1733515990913246700,1.298246826171875,-0.11907881498336792,0.187076598405838,-0.026139993220567703
1733515990923324700,1.30832470703125,-0.12511220574378967,0.18136997520923615,-0.026828952133655548
1733515990933401600,1.318401611328125,-0.1365405172109604,0.19543714821338654,-0.049530692398548126
1733515990943478500,1.328478515625,-0.15057989954948425,0.23405218124389648,-0.09507687389850616
1733515990953555500,1.338555419921875,-0.16694140434265137,0.2633288502693176,-0.15799196064472198
1733515990963632600,1.348632568359375,-0.18195657432079315,0.2629759609699249,-0.23639462888240814
1733515990973710600,1.358710693359375,-0.18165798485279083,0.24667948484420776,-0.3103267252445221
1733515990983787500,1.36878759765625,-0.16225232183933258,0.2268035113811493,-0.3541269302368164
1733515990993864400,1.378864501953125,-0.13791722059249878,0.1995193511247635,-0.3717747628688812
1733515991003941600,1.388941650390625,-0.12071932852268219,0.1763083040714264,-0.3591758906841278
1733515991014018600,1.3990185546875,-0.10579564422369003,0.159536674618721,-0.32465842366218567
1733515991024095500,1.409095458984375,-0.0933014303445816,0.15244095027446747,-0.2643870711326599
1733515991034173700,1.419173583984375,-0.08470894396305084,0.13249468803405762,-0.1963832676410675
1733515991044250600,1.429250732421875,-0.08601069450378418,0.07879231125116348,-0.13306714594364166
1733515991054327800,1.439327880859375,-0.09160804748535156,-0.0022168010473251343,-0.0746840313076973
1733515991064404700,1.44940478515625,-0.10049129277467728,-0.0977632999420166,-0.035980574786663055
1733515991074481700,1.459481689453125,-0.10633090138435364,-0.1805243194103241,-0.01335696130990982
1733515991084559600,1.4695595703125,-0.10010496526956558,-0.24051788449287415,-0.010498058050870895
1733515991094636800,1.47963671875,-0.0882735401391983,-0.27137842774391174,-0.018741149455308914
1733515991104713700,1.489713623046875,-0.07072650641202927,-0.2659152150154114,-0.02846568450331688
1733515991114790700,1.499790771484375,-0.04840473458170891,-0.21529853343963623,-0.030924595892429352
1733515991124867600,1.50986767578125,-0.019934210926294327,-0.13626018166542053,-0.0235684122890234
1733515991134944800,1.51994482421875,0.017452828586101532,-0.04203387349843979,-0.0068038469180464745
1733515991145022700,1.530022705078125,0.04483385384082794,0.047595877200365067,0.017150754109025
1733515991155099600,1.540099609375,0.07207510620355606,0.12862829864025116,0.03844546899199486
1733515991165176600,1.550176513671875,0.0856471061706543,0.19179154932498932,0.04858092963695526
1733515991175253500,1.56025341796875,0.0773603692650795,0.2505403757095337,0.0424128919839859
1733515991185330700,1.57033056640625,0.05071064829826355,0.31263408064842224,0.009029105305671692
1733515991195408600,1.58040869140625,0.004406774882227182,0.3645998239517212,-0.05041122809052467
1733515991205485600,1.590485595703125,-0.04071010276675224,0.3985857665538788,-0.1333705484867096
1733515991215562500,1.6005625,-0.07137603312730789,0.4235065281391144,-0.22770890593528748
1733515991225639700,1.6106396484375,-0.0880570113658905,0.4369959831237793,-0.3135082423686981
1733515991235716600,1.620716552734375,-0.09232603758573532,0.4501901865005493,-0.3754408657550812
1733515991245793500,1.63079345703125,-0.08882930129766464,0.46920302510261536,-0.40942439436912537
1733515991255871500,1.64087158203125,-0.08357171714305878,0.483711302280426,-0.4176284968852997
1733515991265948400,1.650948486328125,-0.0922861099243164,0.4993989169597626,-0.40730369091033936
1733515991276025600,1.661025634765625,-0.10756728053092957,0.5177937746047974,-0.3853483200073242
1733515991286102500,1.6711025390625,-0.1262160688638687,0.5298197865486145,-0.3565656840801239
1733515991296179500,1.681179443359375,-0.14564639329910278,0.5257568359375,-0.3247049152851105
1733515991306257700,1.691257568359375,-0.15609557926654816,0.48538172245025635,-0.2896638512611389
1733515991316334800,1.7013349609375,-0.15999658405780792,0.40192610025405884,-0.2600666582584381
1733515991326411800,1.711411865234375,-0.14282292127609253,0.2876426577568054,-0.22518885135650635
1733515991336488700,1.72148876953125,-0.1116342768073082,0.1530849039554596,-0.1769762933254242
1733515991346565600,1.731565673828125,-0.06920186430215836,0.022840874269604683,-0.12028665095567703
1733515991356643600,1.7416435546875,-0.025684261694550514,-0.07253862917423248,-0.06161576509475708
1733515991366720800,1.751720703125,0.01357898861169815,-0.10481587052345276,-0.012495627626776695
1733515991376797700,1.761797607421875,0.0493830181658268,-0.07656693458557129,0.02506285160779953
1733515991386874600,1.77187451171875,0.09748290479183197,-0.020934563130140305,0.0436708889901638
1733515991396951600,1.78195166015625,0.1401098221540451,0.02674606628715992,0.04293959215283394
1733515991407028700,1.79202880859375,0.15585176646709442,0.05751249939203262,0.024136876687407494
1733515991417106700,1.802106689453125,0.14920839667320251,0.05693582817912102,-0.005052548833191395
1733515991427183600,1.81218359375,0.13030661642551422,0.03701325133442879,-0.03087269514799118
1733515991437260500,1.822260498046875,0.10001200437545776,0.0074005164206027985,-0.04971398785710335
1733515991447337700,1.832337646484375,0.06966235488653183,-0.01560546737164259,-0.05424642190337181
1733515991457414700,1.84241455078125,0.04184575751423836,-0.03003511391580105,-0.045355480164289474
1733515991467492600,1.85249267578125,0.006676854100078344,-0.031822893768548965,-0.029423385858535767
1733515991477569500,1.862569580078125,-0.016973450779914856,-0.012547292746603489,-0.013292292132973671
1733515991487646500,1.872646484375,-0.022933870553970337,0.02214837074279785,-0.011433405801653862
1733515991497723600,1.8827236328125,-0.023976478725671768,0.08363107591867447,-0.01825897768139839
1733515991507800600,1.892800537109375,-0.016434138640761375,0.1593487411737442,-0.03551413118839264
1733515991517878500,1.90287841796875,-0.015360310673713684,0.22266797721385956,-0.05255595222115517
1733515991527955500,1.91295556640625,-0.022179067134857178,0.2526237368583679,-0.07393953949213028
1733515991538032600,1.92303271484375,-0.038675013929605484,0.22763079404830933,-0.09267439693212509
1733515991548109600,1.933109619140625,-0.05724204331636429,0.16889052093029022,-0.10350227355957031
1733515991558186500,1.9431865234375,-0.07580894231796265,0.10790891200304031,-0.09847578406333923
1733515991568263400,1.953263427734375,-0.08366873115301132,0.06118454784154892,-0.08165072649717331
1733515991578341600,1.963341552734375,-0.07655065506696701,0.02784842625260353,-0.047353919595479965
1733515991588418800,1.973418701171875,-0.05773942172527313,0.002510312246158719,-0.005903946235775948
1733515991598495700,1.983495849609375,-0.02277405560016632,-0.012669980525970459,0.03610353544354439
1733515991608572700,1.99357275390625,0.02025916799902916,-0.02881273254752159,0.08369103074073792
1733515991618649600,2.003649658203125,0.0662163496017456,-0.04207968711853027,0.12665070593357086
1733515991628727600,2.0137275390625,0.10447771847248077,-0.05319305881857872,0.1569497436285019
1733515991638804700,2.0238046875,0.12829893827438354,-0.07100474089384079,0.17449407279491425
1733515991648881700,2.033881591796875,0.13733743131160736,-0.10395070910453796,0.17970961332321167
1733515991658958600,2.04395849609375,0.13464181125164032,-0.13469280302524567,0.17542243003845215
1733515991669035800,2.054035888671875,0.12316703796386719,-0.16062958538532257,0.15201403200626373
1733515991679112700,2.06411279296875,0.11482979357242584,-0.16911737620830536,0.12085361033678055
1733515991689190700,2.074190673828125,0.09332823008298874,-0.1553155481815338,0.0852561965584755
1733515991699267600,2.084267578125,0.07177841663360596,-0.1280813366174698,0.05750850588083267
1733515991709344500,2.094344482421875,0.04329325258731842,-0.0814664289355278,0.03181113302707672
1733515991719421700,2.104421630859375,0.007195658050477505,-0.03531865403056145,0.020007653161883354
1733515991729498600,2.11449853515625,-0.02006552368402481,-0.00021233095321804285,0.011233869940042496
1733515991739576600,2.12457666015625,-0.0339198000729084,0.036796823143959045,0.006618252489715815
1733515991749653500,2.134653564453125,-0.0340857170522213,0.08013603836297989,-0.005194465164095163
1733515991759730700,2.144730712890625,-0.019761882722377777,0.11775612831115723,-0.019212637096643448
1733515991769807600,2.1548076171875,0.004291522316634655,0.15438178181648254,-0.024194346740841866
1733515991779884500,2.164884521484375,0.029125193133950233,0.1866559237241745,-0.025077998638153076
1733515991789961500,2.17496142578125,0.05405930429697037,0.19800205528736115,-0.02467452920973301
1733515991800039400,2.185039306640625,0.07480963319540024,0.17839780449867249,-0.028949487954378128
1733515991810116600,2.19511669921875,0.0875571221113205,0.14988307654857635,-0.03914166986942291
1733515991820193500,2.205193603515625,0.09800814092159271,0.12850666046142578,-0.061976321041584015
1733515991830270500,2.2152705078125,0.09888778626918793,0.13497574627399445,-0.0876217633485794
1733515991840347600,2.22534765625,0.08876670897006989,0.167583167552948,-0.11004544049501419
1733515991850425600,2.235425537109375,0.07190064340829849,0.20894978940486908,-0.12204564362764359
1733515991860502800,2.245502685546875,0.050984255969524384,0.21473751962184906,-0.12366947531700134
1733515991870579700,2.255579833984375,0.017060911282896996,0.2275041788816452,-0.11935275793075562
1733515991880656600,2.26565673828125,-0.01978492923080921,0.20993584394454956,-0.10557091236114502
1733515991890734000,2.275734130859375,-0.04745783656835556,0.1744401752948761,-0.08205946534872055
1733515991900812000,2.28581201171875,-0.07202015072107315,0.13429196178913116,-0.054442040622234344
1733515991910889000,2.295888916015625,-0.08261314034461975,0.10044451802968979,-0.028760911896824837
1733515991920966000,2.3059658203125,-0.08111041784286499,0.08526946604251862,-0.005869652144610882
1733515991931042800,2.316042724609375,-0.06228240579366684,0.08889082819223404,0.012530660256743431
1733515991941120000,2.3261201171875,-0.02733130380511284,0.11960072070360184,0.019204024225473404
1733515991951197000,2.336197021484375,0.011755911633372307,0.1638030707836151,-0.002128695137798786
1733515991961275000,2.34627490234375,0.02808559499680996,0.17237631976604462,-0.019956335425376892
1733515991971351800,2.356351806640625,0.02477209083735943,0.1799069344997406,-0.048313677310943604
1733515991981428700,2.3664287109375,0.03747307509183884,0.1673976182937622,-0.06675080209970474
1733515991991506000,2.376505859375,0.028781315311789513,0.1409982293844223,-0.07473842054605484
1733515992001582800,2.386582763671875,0.006935160141438246,0.13298548758029938,-0.09615865349769592
1733515992011660800,2.396660888671875,0.008708558976650238,0.14760570228099823,-0.13907228410243988
1733515992021737700,2.40673779296875,0.021732687950134277,0.17162485420703888,-0.18328973650932312
1733515992031815000,2.41681494140625,0.028347715735435486,0.19297967851161957,-0.20533166825771332
1733515992041891800,2.426891845703125,0.02749568410217762,0.19648377597332,-0.21658754348754883
1733515992051968800,2.43696875,0.011501273140311241,0.18339194357395172,-0.21404555439949036
1733515992062045700,2.447045654296875,-0.02526339888572693,0.15880466997623444,-0.21590279042720795
1733515992072124000,2.4571240234375,-0.06472399085760117,0.13402901589870453,-0.20367275178432465
1733515992082201000,2.467201171875,-0.09220433235168457,0.12223430722951889,-0.17715047299861908
1733515992092278000,2.477278076171875,-0.11944793909788132,0.12986932694911957,-0.12465105205774307
1733515992102355000,2.48735498046875,-0.1277303844690323,0.14364756643772125,-0.05130051448941231
1733515992112432000,2.49743212890625,-0.10499444603919983,0.12692610919475555,0.03925281763076782
1733515992122510000,2.507510009765625,-0.05310843139886856,0.05573455989360809,0.12375029921531677
1733515992132587000,2.5175869140625,-0.0012146041262894869,-0.05697521194815636,0.16642239689826965
1733515992142664000,2.527663818359375,0.03687562420964241,-0.17650258541107178,0.16174662113189697
1733515992152740900,2.537740966796875,0.06415704637765884,-0.25623470544815063,0.12736813724040985
1733515992162818000,2.547818115234375,0.09047145396471024,-0.28188493847846985,0.0921173021197319
1733515992172895000,2.55789501953125,0.10416968911886215,-0.2532471716403961,0.0727744922041893
1733515992182973000,2.567972900390625,0.1052311360836029,-0.18706779181957245,0.07140030711889267
1733515992193049900,2.5780498046875,0.08567820489406586,-0.12009754776954651,0.07695113122463226
1733515992203126800,2.588126708984375,0.0580107606947422,-0.0835663452744484,0.07049138098955154
1733515992213204000,2.598203857421875,0.022500701248645782,-0.09421685338020325,0.049122974276542664
1733515992223281000,2.608281005859375,-0.00643804669380188,-0.11850763112306595,0.014641215093433857
1733515992233358800,2.61835888671875,-0.026553435251116753,-0.12361184507608414,-0.011027130298316479
1733515992243435800,2.628435791015625,-0.028284858912229538,-0.09544794261455536,-0.032361652702093124
1733515992253513000,2.638512939453125,-0.023085568100214005,-0.04850253462791443,-0.04917871579527855
1733515992263590000,2.64858984375,-0.009438545443117619,-0.0006516416324302554,-0.059226248413324356
1733515992273666800,2.658666748046875,0.006450406275689602,0.02710968255996704,-0.06259141862392426
1733515992283743700,2.66874365234375,0.009591501206159592,0.02831786498427391,-0.06970306485891342
1733515992293821700,2.67882177734375,0.013243228197097778,0.012198548763990402,-0.07288793474435806
1733515992303899000,2.68889892578125,0.010606533847749233,-0.0056268940679728985,-0.0818784311413765
1733515992313975800,2.698975830078125,-0.0065173255279660225,-0.01902179606258869,-0.0901171863079071
1733515992324052700,2.709052734375,-0.029086586087942123,-0.02575533278286457,-0.0978553518652916
1733515992334130000,2.7191298828125,-0.044077254831790924,-0.02376834861934185,-0.08591826260089874
1733515992344208100,2.7292080078125,-0.05375555902719498,-0.029884202405810356,-0.06691109389066696
1733515992354285000,2.73928515625,-0.05334596335887909,-0.04976736381649971,-0.046586114913225174
1733515992364362000,2.749362060546875,-0.04952891543507576,-0.07561511546373367,-0.019921401515603065
1733515992374439000,2.75943896484375,-0.03960198163986206,-0.10085948556661606,0.008642865344882011
1733515992384516000,2.76951611328125,-0.02540440298616886,-0.12965892255306244,0.029654938727617264
1733515992394594000,2.779593994140625,-0.0007384724449366331,-0.14708398282527924,0.05324495583772659
1733515992404671000,2.7896708984375,0.023059187456965446,-0.1555919498205185,0.07545416057109833
1733515992414748000,2.799747802734375,0.040798772126436234,-0.14947573840618134,0.09070900827646255
1733515992424824800,2.809824951171875,0.05107884109020233,-0.13901478052139282,0.09786932170391083
1733515992434902000,2.819902099609375,0.051280174404382706,-0.12486327439546585,0.09524610638618469
1733515992444979000,2.82997900390625,0.04349476844072342,-0.11214037239551544,0.07983475923538208
1733515992455057000,2.840056884765625,0.034205395728349686,-0.09134507924318314,0.0607587955892086
1733515992465133800,2.8501337890625,0.022033050656318665,-0.07368272542953491,0.03902220353484154
1733515992475211000,2.8602109375,0.007059427443891764,-0.058721885085105896,0.01201668567955494
1733515992485288000,2.870287841796875,-0.012483544647693634,-0.03918254375457764,-0.007837042212486267
1733515992495364900,2.88036474609375,-0.026951700448989868,-0.010250494815409184,-0.02006095089018345
1733515992505442800,2.89044287109375,-0.035439521074295044,0.014049339108169079,-0.028086576610803604
1733515992515519700,2.900519775390625,-0.04185560718178749,0.03233779966831207,-0.025561098009347916
1733515992525597000,2.910596923828125,-0.040187813341617584,0.04738066345453262,-0.021713318303227425
1733515992535673900,2.920673828125,-0.040980104357004166,0.05093412101268768,-0.023159148171544075
1733515992545750800,2.930750732421875,-0.03990859538316727,0.04319559782743454,-0.024568649008870125
1733515992555828000,2.940827880859375,-0.03952296823263168,0.023241864517331123,-0.024196073412895203
1733515992565906000,2.950906005859375,-0.03431249037384987,0.00869924109429121,-0.016536220908164978
1733515992575982800,2.96098291015625,-0.02481592632830143,0.0019537208136171103,0.0023850060533732176
1733515992586059800,2.971059814453125,-0.015189049765467644,-0.011800087988376617,0.030854228883981705
1733515992596136700,2.98113671875,-0.0026157337706536055,-0.024423472583293915,0.05237363278865814
1733515992606214000,2.9912138671875,0.009938346222043037,-0.040774229913949966,0.06146780773997307
1733515992616292000,3.0012919921875,0.01621168851852417,-0.05395074933767319,0.05449991300702095
1733515992626369000,3.011369140625,0.02078593336045742,-0.05771902576088905,0.04401671141386032
1733515992636446000,3.021446044921875,0.024065615609288216,-0.05444919690489769,0.03605598956346512
1733515992646523000,3.03152294921875,0.02370641753077507,-0.03829837590456009,0.03608966991305351
1733515992656600000,3.04160009765625,0.019641634076833725,-0.0251839030534029,0.0435265451669693
1733515992666677000,3.051677001953125,0.010251307860016823,-0.024302836507558823,0.040701888501644135
1733515992676755000,3.0617548828125,0.005078915972262621,-0.04119313508272171,0.023553263396024704
1733515992686831900,3.071831787109375,0.003676171414554119,-0.05492733046412468,-0.0015131942927837372
1733515992696909000,3.081908935546875,0.00554437842220068,-0.060746606439352036,-0.02344139665365219
1733515992706986000,3.091986083984375,0.005498264450579882,-0.0510462187230587,-0.03473721072077751
1733515992717063000,3.10206298828125,0.0014494606293737888,-0.03731070086359978,-0.03173422813415527
1733515992727140900,3.112140869140625,0.0039231861010193825,-0.02720639295876026,-0.01948978193104267
1733515992737217800,3.1222177734375,0.0041455598548054695,-0.026132341474294662,-0.007368935737758875
1733515992747295000,3.132294921875,0.006409207824617624,-0.02793477475643158,-0.004074419382959604
1733515992757372000,3.142371826171875,0.006884848233312368,-0.023650014773011208,-0.006943176966160536
1733515992767448800,3.15244873046875,0.004778081085532904,-0.01398069690912962,-0.018935203552246094
1733515992777526000,3.162526123046875,0.004260096233338118,0.0004288689815439284,-0.03216232359409332
1733515992787604000,3.17260400390625,-0.0008181820157915354,0.014088413678109646,-0.03386940434575081
1733515992797681000,3.182680908203125,-0.0071005793288350105,0.014101197011768818,-0.030009685084223747
1733515992807757800,3.1927578125,-0.013323832303285599,0.009490805678069592,-0.01782967895269394
1733515992817834800,3.202834716796875,-0.011633791029453278,0.002950082067400217,-0.0028022583574056625
1733515992827912000,3.212911865234375,-0.008950862102210522,-0.0021150701213628054,0.01760147139430046
1733515992837990000,3.222989990234375,-0.013233492150902748,-0.003893795423209667,0.03305686265230179
1733515992848066800,3.23306689453125,-0.005973713472485542,-0.0022385409101843834,0.044695474207401276
1733515992858143700,3.243143798828125,-0.004279410466551781,0.010814144276082516,0.05301332473754883
1733515992868221000,3.253220947265625,-0.0033941944129765034,0.029208961874246597,0.051954351365566254
1733515992878297900,3.2632978515625,0.0005363649688661098,0.04597382992506027,0.04717450588941574
1733515992888375000,3.273375,-0.0014273712877184153,0.05347060784697533,0.037895746529102325
1733515992898453200,3.283453369140625,-0.005611729808151722,0.044496554881334305,0.028927285224199295
1733515992908530200,3.2935302734375,-0.007711220532655716,0.034507475793361664,0.0200687013566494
1733515992918607400,3.303607421875,-0.011976273730397224,0.02353445254266262,0.015590330585837364
1733515992928684300,3.313684326171875,-0.017000487074255943,0.01636868342757225,0.01615825854241848
1733515992938761200,3.32376123046875,-0.019226090982556343,0.01386904064565897,0.019551126286387444
1733515992948839200,3.333839111328125,-0.021374816074967384,0.021222300827503204,0.0256228968501091
1733515992958916000,3.343916015625,-0.018980899825692177,0.0234199408441782,0.028134524822235107
1733515992968993300,3.3539931640625,-0.017405251041054726,0.026835443452000618,0.032023053616285324
1733515992979070200,3.3640703125,-0.006300668697804213,0.023148030042648315,0.02971569076180458
1733515992989147100,3.374147216796875,0.0022941511124372482,0.013428290374577045,0.029005426913499832
1733515992999225000,3.38422509765625,0.011741448193788528,0.00011248543160036206,0.02849729359149933
1733515993009302000,3.394302001953125,0.018229011446237564,-0.015037082135677338,0.017536992207169533
1733515993019379200,3.404379150390625,0.021529467776417732,-0.026581084355711937,0.010091060772538185
1733515993029456100,3.4144560546875,0.024549532681703568,-0.028330504894256592,0.007658346556127071
1733515993039533000,3.424532958984375,0.020144930109381676,-0.01706266961991787,0.013264033943414688
1733515993049610200,3.4346103515625,0.012345577590167522,-0.005833289120346308,0.025468260049819946
1733515993059688200,3.444688232421875,0.002927841618657112,-0.010503941215574741,0.03831588476896286
1733515993069765000,3.45476513671875,0.001983300782740116,-0.023986106738448143,0.04578368365764618
1733515993079842000,3.464842041015625,0.006939709652215242,-0.04274008795619011,0.053395263850688934
1733515993089919000,3.4749189453125,0.01283441111445427,-0.0539860725402832,0.056745246052742004
1733515993099996200,3.48499609375,0.015571074560284615,-0.058094531297683716,0.05360324680805206
1733515993110074000,3.49507421875,0.017034729942679405,-0.05264420434832573,0.05209512263536453
1733515993120151000,3.505151123046875,0.013733740895986557,-0.02684270218014717,0.05303335562348366
1733515993130228000,3.51522802734375,0.007193855009973049,0.011579262092709541,0.05728117749094963
1733515993140305200,3.52530517578125,0.004379692487418652,0.035064078867435455,0.059357378631830215
1733515993150382000,3.535382080078125,-0.008614648133516312,0.02404116466641426,0.05995190516114235
1733515993160459000,3.545458984375,-0.0181700699031353,-0.027187401428818703,0.06516264379024506
1733515993170537200,3.555537109375,-0.01919260062277317,-0.07881134748458862,0.07337754219770432
1733515993180614100,3.5656142578125,-0.02425500378012657,-0.10892105102539062,0.08628428727388382
1733515993190691300,3.57569140625,-0.02043846622109413,-0.12272768467664719,0.09963569790124893
1733515993200768300,3.585768310546875,0.004264482297003269,-0.1151248961687088,0.09897284209728241
1733515993210845200,3.59584521484375,0.030641619116067886,-0.08197945356369019,0.09360715001821518
1733515993220923100,3.605923095703125,0.04727678745985031,-0.030487237498164177,0.08022689074277878
1733515993231000000,3.616,0.05839148163795471,-0.006164407357573509,0.06447220593690872
1733515993241077200,3.6260771484375,0.06658629328012466,-0.006719144061207771,0.051665861159563065
1733515993251154200,3.636154296875,0.06395081430673599,-0.015564655885100365,0.04385120049118996
1733515993261231000,3.646231201171875,0.046939872205257416,-0.006947997957468033,0.035657986998558044
1733515993271308300,3.656308349609375,0.039381638169288635,0.015108388848602772,0.028861630707979202
1733515993281386200,3.66638623046875,0.03885752707719803,0.03779665753245354,0.02017226815223694
1733515993291463200,3.676463134765625,0.03889958932995796,0.06539366394281387,0.006154014728963375
1733515993301540000,3.6865400390625,0.04058590158820152,0.07410113513469696,-0.009680874645709991
1733515993311617000,3.696616943359375,0.044638700783252716,0.060577332973480225,-0.02435089834034443
1733515993321694200,3.706694091796875,0.03997524082660675,0.03560114651918411,-0.037923429161310196
1733515993331772200,3.716772216796875,0.03946463018655777,0.017999427393078804,-0.053461942821741104
1733515993341849000,3.72684912109375,0.0382038876414299,0.02339259348809719,-0.07252724468708038
1733515993351926000,3.736926025390625,0.04247254505753517,0.04591025039553642,-0.09369509667158127
1733515993362003200,3.747003173828125,0.04000299423933029,0.0889410749077797,-0.1170683279633522
1733515993372080000,3.757080078125,0.03479751944541931,0.13184548914432526,-0.1365860253572464
1733515993382157000,3.767156982421875,0.023628752678632736,0.1731836050748825,-0.1480645090341568
1733515993392235000,3.777235107421875,0.005765049252659082,0.20181311666965485,-0.15400193631649017
1733515993402312000,3.78731201171875,-0.010328433476388454,0.21383675932884216,-0.15317289531230927
1733515993412389000,3.79738916015625,-0.023897627368569374,0.20675434172153473,-0.14767511188983917
1733515993422466000,3.807466064453125,-0.03519688919186592,0.1933804750442505,-0.1347143054008484
1733515993432543000,3.81754296875,-0.03957159072160721,0.18110595643520355,-0.11499620229005814
1733515993442621200,3.82762109375,-0.046651072800159454,0.18213766813278198,-0.09668377041816711
1733515993452698000,3.837697998046875,-0.045735832303762436,0.19448436796665192,-0.0821833685040474
1733515993462775300,3.847775390625,-0.040022287517786026,0.19832198321819305,-0.0655340850353241
1733515993472852200,3.857852294921875,-0.03125875070691109,0.19813209772109985,-0.05668124929070473
1733515993482929200,3.86792919921875,-0.02537769079208374,0.18605731427669525,-0.049681663513183594
1733515993493006300,3.87800634765625,-0.022979265078902245,0.16644686460494995,-0.041630301624536514
1733515993503084300,3.888084228515625,-0.017825782299041748,0.13419385254383087,-0.03191296011209488
1733515993513161200,3.8981611328125,-0.017072580754756927,0.10285768657922745,-0.013567851856350899
1733515993523238100,3.908238037109375,-0.01581663452088833,0.0648634284734726,0.003550947178155184
1733515993533315000,3.918315185546875,-0.017972461879253387,0.032682325690984726,0.021186400204896927
1733515993543392300,3.928392333984375,-0.01655326411128044,0.011323771439492702,0.03138364478945732
1733515993553470200,3.93847021484375,-0.013644130900502205,-0.001750745577737689,0.0341944694519043
1733515993563547100,3.948547119140625,-0.008445640094578266,-0.006311941426247358,0.0360240638256073
1733515993573624000,3.9586240234375,0.0010882122442126274,-0.004386039450764656,0.03382742404937744
1733515993583701200,3.968701171875,0.0040525770746171474,0.011672555468976498,0.022455191239714622
1733515993593778200,3.978778076171875,0.009303180500864983,0.03671453520655632,0.013875320553779602
1733515993603855000,3.988855224609375,0.007500221487134695,0.06251710653305054,0.004961987026035786
1733515993613933000,3.99893310546875,0.0035808472894132137,0.07799166440963745,-0.007464589085429907
1733515993624010000,4.009010009765625,-0.008872093632817268,0.07629203796386719,-0.016873270273208618
1733515993634087200,4.019087158203125,-0.01486256718635559,0.06906866282224655,-0.024172447621822357
1733515993644164000,4.0291640625,-0.027593541890382767,0.07060743123292923,-0.029443107545375824
1733515993654241000,4.039240966796875,-0.035547152161598206,0.08737078309059143,-0.03081393428146839
1733515993664319000,4.049319091796875,-0.041145384311676025,0.10957089066505432,-0.03548964858055115
1733515993674396200,4.059396240234375,-0.044201940298080444,0.12502050399780273,-0.036224961280822754
1733515993684473000,4.06947314453125,-0.0454096794128418,0.12264470010995865,-0.02693106047809124
1733515993694550000,4.079550048828125,-0.046169213950634,0.10249975323677063,-0.01164771243929863
1733515993704627000,4.089626953125,-0.043542005121707916,0.07308726757764816,0.00403883820399642
1733515993714705200,4.099705078125,-0.04112190380692482,0.052699439227581024,0.026467151939868927
1733515993724782300,4.1097822265625,-0.03211376070976257,0.042175423353910446,0.035419102758169174
1733515993734859300,4.119859375,-0.020271241664886475,0.04692775011062622,0.03335323929786682
1733515993744936200,4.129936279296875,-0.009235103614628315,0.06368515640497208,0.01661047898232937
1733515993755013000,4.14001318359375,0.007098247297108173,0.09263736754655838,-0.008610219694674015
1733515993765090300,4.15009033203125,0.025985118001699448,0.11622711271047592,-0.04117428883910179
1733515993775168300,4.160168212890625,0.03979194164276123,0.13925091922283173,-0.07381121814250946
1733515993785245200,4.1702451171875,0.048540420830249786,0.15710395574569702,-0.10049103200435638
1733515993795322000,4.180322021484375,0.0620185062289238,0.18224571645259857,-0.11759012192487717
1733515993805399300,4.1903994140625,0.06143980473279953,0.209150031208992,-0.12623926997184753
1733515993815476200,4.200476318359375,0.06836484372615814,0.2251574993133545,-0.12554188072681427
1733515993825553200,4.21055322265625,0.06743193417787552,0.23379680514335632,-0.12447982281446457
1733515993835631000,4.220631103515625,0.053636349737644196,0.22935517132282257,-0.12712667882442474
1733515993845708000,4.2307080078125,0.03326743096113205,0.2165200561285019,-0.13124792277812958
1733515993855785200,4.24078515625,0.02453572489321232,0.20958945155143738,-0.13059651851654053
1733515993865862100,4.250862060546875,0.016016805544495583,0.21111251413822174,-0.12650243937969208
1733515993875939000,4.26093896484375,0.007651928346604109,0.21521422266960144,-0.1259489506483078
1733515993886017000,4.27101708984375,-0.004789294674992561,0.21544671058654785,-0.1245497316122055
1733515993896093700,4.28109375,-0.010706987231969833,0.21724790334701538,-0.11921238154172897
1733515993906170600,4.291170654296875,-0.015357665717601776,0.21391256153583527,-0.1074470654129982
1733515993916247600,4.30124755859375,-0.014813338406383991,0.20194600522518158,-0.09036566317081451
1733515993926324500,4.311324462890625,-0.02121637761592865,0.18437527120113373,-0.06691572815179825
1733515993936402400,4.32140234375,-0.029954474419355392,0.16623887419700623,-0.04136829078197479
1733515993946479600,4.331479736328125,-0.03693968057632446,0.140476256608963,-0.012515072710812092
1733515993956556500,4.341556640625,-0.04047951102256775,0.11515961587429047,0.01214368361979723
1733515993966633500,4.351633544921875,-0.03857029229402542,0.08873999863862991,0.03661920130252838
1733515993976710700,4.361710693359375,-0.034844592213630676,0.06493162363767624,0.05343673750758171
1733515993986787600,4.37178759765625,-0.02841918356716633,0.05111008137464523,0.06521909683942795
1733515993996865800,4.38186572265625,-0.02518925629556179,0.046193335205316544,0.07463724911212921
1733515994006942700,4.391942626953125,-0.025411898270249367,0.04520263895392418,0.0833314061164856
1733515994017019600,4.40201953125,-0.029595911502838135,0.039915215224027634,0.09320177137851715
1733515994027096800,4.412096923828125,-0.02903398498892784,0.014064707793295383,0.09886977821588516
1733515994037173800,4.422173828125,-0.02531229890882969,-0.030299214646220207,0.10653106123209
1733515994047251700,4.432251708984375,-0.015081766992807388,-0.07298941910266876,0.11502654105424881
1733515994057328600,4.44232861328125,-0.009726517833769321,-0.09909994155168533,0.12176281213760376
1733515994067405800,4.45240576171875,-0.004136010073125362,-0.10400814563035965,0.11522474884986877
1733515994077482800,4.462482666015625,0.015635831281542778,-0.06992874294519424,0.10497797280550003
1733515994087559700,4.4725595703125,0.03489341586828232,-0.027746664360165596,0.08984855562448502
1733515994097636600,4.48263671875,0.051094695925712585,0.012181130237877369,0.07840555906295776
1733515994107714600,4.492714599609375,0.04137628898024559,0.028482072055339813,0.07879650592803955
1733515994117791700,4.502791748046875,0.015912573784589767,0.022445043548941612,0.07939352840185165
1733515994127868700,4.51286865234375,-0.00868464820086956,-0.004263266921043396,0.08901339769363403
1733515994137945600,4.522945556640625,-0.018791507929563522,-0.04793768748641014,0.09751015901565552
1733515994148022500,4.5330224609375,-0.015995189547538757,-0.08377237617969513,0.08900241553783417
1733515994158100500,4.5431005859375,-0.004213589709252119,-0.10864666849374771,0.06397804617881775
1733515994168177700,4.553177734375,0.010827677324414253,-0.10375843197107315,0.032834768295288086
1733515994178254600,4.563254638671875,0.022061260417103767,-0.08814769238233566,0.003647527424618602
1733515994188331500,4.57333154296875,0.02387886680662632,-0.06261676549911499,-0.014007367193698883
1733515994198408700,4.58340869140625,0.012342852540314198,-0.032652102410793304,-0.0194177757948637
1733515994208485600,4.593485595703125,-0.004656103905290365,-0.010830427519977093,-0.02038183994591236
1733515994218563600,4.6035634765625,-0.015765104442834854,-0.012788313440978527,-0.011710043996572495
1733515994228640500,4.613640625,-0.01837952993810177,-0.03472184017300606,0.00010906532406806946
1733515994238717400,4.623717529296875,-0.02066911943256855,-0.06288759410381317,0.014933288097381592
1733515994248794600,4.633794677734375,-0.029645835980772972,-0.07709982246160507,0.029150040820240974
1733515994258871600,4.64387158203125,-0.03336137533187866,-0.08175086975097656,0.044984202831983566
1733515994268949800,4.65394970703125,-0.038617655634880066,-0.08185712993144989,0.04857494309544563
1733515994279026700,4.664026611328125,-0.029858848080039024,-0.07682037353515625,0.049360718578100204
1733515994289104000,4.674103759765625,-0.019951889291405678,-0.06329231709241867,0.049776170402765274
1733515994299180800,4.684180908203125,-0.008020740002393723,-0.04280639812350273,0.050743602216243744
1733515994309257700,4.6942578125,-0.005080344155430794,-0.006840941961854696,0.05926625058054924
1733515994319334700,4.704334716796875,-0.001191206043586135,0.03698883205652237,0.06900947540998459
1733515994329412600,4.71441259765625,0.011819934472441673,0.07944334298372269,0.06519129872322083
1733515994339489800,4.72448974609375,0.015591276809573174,0.11238576471805573,0.05721408128738403
1733515994349566700,4.734566650390625,0.015911921858787537,0.12604698538780212,0.04021858796477318
1733515994359643600,4.7446435546875,0.008490325883030891,0.11543116718530655,0.036006201058626175
1733515994369720600,4.754720458984375,-0.002886431757360697,0.08857505768537521,0.0430968701839447
1733515994379798500,4.764798583984375,-0.016365505754947662,0.06427690386772156,0.06070072203874588
1733515994389875700,4.774875732421875,-0.028305258601903915,0.053209878504276276,0.08292719721794128
1733515994399952600,4.78495263671875,-0.03741999343037605,0.04717729240655899,0.09699075669050217
1733515994410029600,4.795029541015625,-0.03668922185897827,0.04514024034142494,0.09474411606788635
1733515994420106800,4.805106689453125,-0.019932426512241364,0.05067677050828934,0.0811680257320404
1733515994430183700,4.81518359375,0.005485848523676395,0.0702696442604065,0.04486487805843353
1733515994440261600,4.82526171875,0.028126059100031853,0.09793343394994736,-0.00416409270837903
1733515994450338600,4.835338623046875,0.05333501100540161,0.11151502281427383,-0.06492624431848526
1733515994460415500,4.84541552734375,0.07685600221157074,0.12435704469680786,-0.11911952495574951
1733515994470492700,4.85549267578125,0.08965062350034714,0.15181556344032288,-0.16077856719493866
1733515994480569600,4.865569580078125,0.07907123863697052,0.19513700902462006,-0.1758994162082672
1733515994490647600,4.8756474609375,0.05116264522075653,0.2361678034067154,-0.1646914929151535
1733515994500724500,4.885724365234375,0.006058447528630495,0.26265692710876465,-0.13097813725471497
1733515994510801700,4.8958017578125,-0.03354116156697273,0.2522330582141876,-0.08162178099155426
1733515994520878600,4.905878662109375,-0.04726073890924454,0.18741251528263092,-0.028400452807545662
1733515994530955500,4.91595556640625,-0.03350631147623062,0.10330428928136826,0.00778924347832799
1733515994541032400,4.926032470703125,-0.01110124122351408,0.0647427886724472,0.023108670487999916
1733515994551110700,4.936110595703125,0.01215747557580471,0.05665450170636177,0.001341056078672409
1733515994561187800,4.946187744140625,0.029761383309960365,0.07165946066379547,-0.023573458194732666
1733515994571264800,4.9562646484375,0.042151473462581635,0.09226060658693314,-0.03634624183177948
1733515994581341700,4.966341796875,0.03563479706645012,0.12173585593700409,-0.030690662562847137
1733515994591418600,4.976418701171875,0.006482238415628672,0.17044587433338165,0.0038332268595695496
1733515994601496600,4.98649658203125,-0.02553844079375267,0.19735631346702576,0.0506991446018219
1733515994611573800,4.99657373046875,-0.05349976569414139,0.17639723420143127,0.09967947006225586
1733515994621650700,5.006650634765625,-0.06326410919427872,0.07770927250385284,0.14373503625392914
1733515994631727600,5.0167275390625,-0.05539579316973686,-0.06746229529380798,0.16283762454986572
1733515994641804800,5.0268046875,-0.03511713817715645,-0.1932404637336731,0.15769736468791962
1733515994651881700,5.0368818359375,-0.016301371157169342,-0.21890561282634735,0.11927033960819244
1733515994661959700,5.046959716796875,0.005951429717242718,-0.12142983824014664,0.04664192721247673
1733515994672036600,5.05703662109375,0.05485372245311737,0.012152725830674171,-0.020050816237926483
1733515994682113500,5.067113525390625,0.10112215578556061,0.11610273271799088,-0.06305693089962006
1733515994692190700,5.077190673828125,0.11062724143266678,0.18584559857845306,-0.0789613351225853
1733515994702267600,5.087267578125,0.07662729918956757,0.2131766378879547,-0.07779893279075623
1733515994712345600,5.097345703125,0.020790135487914085,0.18917995691299438,-0.07052530348300934
1733515994722422500,5.107422607421875,-0.021656658500432968,0.11173470318317413,-0.06039463356137276
1733515994732499700,5.117499755859375,-0.029867183417081833,0.01796613819897175,-0.053456034511327744
1733515994742576600,5.12757666015625,-0.017067911103367805,-0.0424603633582592,-0.06646654009819031
1733515994752653600,5.137653564453125,0.00231084693223238,-0.04546627402305603,-0.10773646831512451
1733515994762730500,5.14773046875,0.0395563468337059,-0.008293339051306248,-0.14765986800193787
1733515994772808400,5.157808349609375,0.08349450677633286,0.054454997181892395,-0.1648053079843521
1733515994782885600,5.1678857421875,0.08980078995227814,0.1235741600394249,-0.15140265226364136
1733515994792962600,5.177962646484375,0.0631803646683693,0.1881648749113083,-0.11478471010923386
1733515994803039500,5.18803955078125,0.015739217400550842,0.20537208020687103,-0.0698048546910286
1733515994813116700,5.19811669921875,-0.021723467856645584,0.15690360963344574,-0.032445505261421204
1733515994823193600,5.208193603515625,-0.03919712081551552,0.06833850592374802,-0.0006495141424238682
1733515994833271800,5.218271728515625,-0.03433125838637352,-0.02148645557463169,0.022366855293512344
1733515994843348700,5.2283486328125,-0.022617937996983528,-0.06250917166471481,0.02777661196887493
1733515994853425700,5.23842578125,-0.007981471717357635,-0.04046778753399849,0.014127379283308983
1733515994863502800,5.2485029296875,0.008967602625489235,0.004162978380918503,0.0012989011593163013
1733515994873579800,5.258579833984375,0.027814792469143867,0.03256053104996681,0.0007409686222672462
1733515994883657700,5.26865771484375,0.02224608324468136,0.045985881239175797,0.010771483182907104
1733515994893734700,5.278734619140625,-0.001227551605552435,0.04673769325017929,0.03102109394967556
1733515994903811600,5.2888115234375,-0.024148577824234962,0.03031601384282112,0.05380730330944061
1733515994913888800,5.298888671875,-0.04259655997157097,0.0021243232768028975,0.06783124059438705
1733515994923965700,5.308965576171875,-0.0354296900331974,-0.04182874783873558,0.07082950323820114
1733515994934042600,5.319042724609375,-0.01813805103302002,-0.08651152998209,0.0651915967464447
1733515994944120600,5.32912060546875,0.0006011179648339748,-0.09387587755918503,0.05261635407805443
1733515994954197800,5.33919775390625,0.016193127259612083,-0.0643499493598938,0.03546959161758423
1733515994964274700,5.349274658203125,0.028618356212973595,-0.028493240475654602,0.013671116903424263
1733515994974351600,5.3593515625,0.028866028413176537,-0.013078598305583,-0.0024764281697571278
1733515994984428500,5.369428466796875,0.013274097815155983,0.00006348325405269861,-0.014501572586596012
1733515994994506500,5.379506591796875,-0.007481514476239681,0.005715243984013796,-0.014657898806035519
1733515995004583700,5.389583740234375,-0.03583850339055061,0.0013538727071136236,-0.005283541977405548
1733515995014660600,5.39966064453125,-0.05002622678875923,-0.02432272769510746,0.0039544315077364445
1733515995024737500,5.409737548828125,-0.04986537620425224,-0.06660590320825577,0.009490410797297955
1733515995034814700,5.419814697265625,-0.03365684300661087,-0.09471503645181656,0.006351608783006668
1733515995044891600,5.4298916015625,-0.013676518574357033,-0.08920229971408844,0.001320017036050558
1733515995054969600,5.439969482421875,0.01557963714003563,-0.05328558012843132,-0.010365134105086327
1733515995065046500,5.450046630859375,0.04170426353812218,-0.0043098642490804195,-0.019391555339097977
1733515995075123500,5.46012353515625,0.05431433022022247,0.029752498492598534,-0.019738566130399704
1733515995085200600,5.47020068359375,0.05128263309597969,0.03911847993731499,-0.017126070335507393
1733515995095277600,5.480277587890625,0.035005126148462296,0.032850466668605804,-0.009872950613498688
1733515995105355800,5.490355712890625,0.00974946841597557,0.014973277226090431,-0.000293215736746788
1733515995115432700,5.5004326171875,-0.01330258697271347,-0.011125436052680016,0.0057095494121313095
1733515995125509600,5.510509521484375,-0.03084610030055046,-0.04477003589272499,0.016143202781677246
1733515995135586800,5.5205869140625,-0.03060854598879814,-0.07539000362157822,0.022678334265947342
1733515995145663700,5.530663818359375,-0.020225882530212402,-0.09455587714910507,0.029190421104431152
1733515995155740700,5.54074072265625,-0.005328426603227854,-0.0924844741821289,0.03364802151918411
1733515995165818600,5.550818603515625,0.012178473174571991,-0.07149539142847061,0.037072937935590744
1733515995175895800,5.560895751953125,0.026337968185544014,-0.044251784682273865,0.03179748356342316
1733515995185972700,5.57097265625,0.03502550721168518,-0.021648027002811432,0.024948114529252052
1733515995196049700,5.581049560546875,0.033056363463401794,-0.0022128098644316196,0.008410151116549969
1733515995206126600,5.591126708984375,0.025544654577970505,0.01176382414996624,-0.006172720342874527
1733515995216204500,5.60120458984375,0.013631802052259445,0.018219327554106712,-0.02237406000494957
1733515995226281700,5.61128173828125,-0.0038777843583375216,0.015901654958724976,-0.022590313106775284
1733515995236358700,5.621358642578125,-0.019879387691617012,-0.004149284679442644,-0.01710180565714836
1733515995246435600,5.631435546875,-0.033385053277015686,-0.045996423810720444,0.00624544033780694
1733515995256512800,5.6415126953125,-0.03291447088122368,-0.10165488719940186,0.03060590848326683
1733515995266589700,5.651589599609375,-0.023597773164510727,-0.16589385271072388,0.055231619626283646
1733515995276667600,5.661667724609375,-0.009999940171837807,-0.19146685302257538,0.06775247305631638
1733515995286744600,5.67174462890625,0.017157725989818573,-0.16146326065063477,0.05957086756825447
1733515995296821500,5.681821533203125,0.04537897929549217,-0.08048400282859802,0.03619896620512009
1733515995306898700,5.691898681640625,0.0663084089756012,0.011896705254912376,0.014191372320055962
1733515995316975600,5.7019755859375,0.07947134971618652,0.07238002121448517,0.00035119056701660156
1733515995327053600,5.712053466796875,0.07420128583908081,0.09481120854616165,-0.0026244372129440308
1733515995337130500,5.722130615234375,0.038956474512815475,0.08092895150184631,-0.00034956447780132294
1733515995347207400,5.73220751953125,-0.004871142562478781,0.04009081423282623,0.004840114153921604
1733515995357284600,5.74228466796875,-0.04033725708723068,-0.0010560898808762431,-0.003182925283908844
1733515995367361500,5.752361572265625,-0.045558881014585495,-0.028563806787133217,-0.02074652723968029
1733515995377438500,5.7624384765625,-0.033207137137651443,-0.022102445363998413,-0.030156273394823074
1733515995387516700,5.7725166015625,-0.023040927946567535,0.016819557175040245,-0.034902844578027725
1733515995397593900,5.78259375,-0.007201776839792728,0.0620000846683979,-0.030190646648406982
1733515995407670800,5.7926708984375,0.0022130487486720085,0.08459514379501343,-0.0245182067155838
1733515995417747700,5.802747802734375,0.0038982974365353584,0.09374043345451355,-0.01538809109479189
1733515995427824600,5.81282470703125,-0.0012979416642338037,0.09471951425075531,-0.0150217954069376
1733515995437902600,5.822902587890625,-0.008476758375763893,0.08781686425209045,-0.01442364975810051
1733515995447979800,5.832979736328125,-0.010788177140057087,0.07667028903961182,-0.011396355926990509
1733515995458056700,5.843056640625,-0.007076529785990715,0.05869634822010994,-0.00854597520083189
1733515995468133600,5.853133544921875,-0.005680868402123451,0.04101419821381569,-0.006987165659666061
1733515995478210600,5.86321044921875,-0.005645981058478355,0.02675457112491131,-0.003854755312204361
1733515995488287700,5.873287841796875,-0.0011379595380276442,0.02081012725830078,-0.0020686015486717224
1733515995498365700,5.88336572265625,0.0036735734902322292,0.016984496265649796,0.0008949642069637775
1733515995508442600,5.893442626953125,0.009114136919379234,0.016070151701569557,0.00367969018407166
1733515995518519600,5.90351953125,0.01047448068857193,0.014177177101373672,0.0024264066014438868
1733515995528596700,5.9135966796875,0.007453411351889372,0.004895701538771391,0.00409098993986845
1733515995538673700,5.923673583984375,0.004151357803493738,-0.0014873631298542023,0.006851889193058014
1733515995548750600,5.93375048828125,0.0025280993431806564,-0.007622303906828165,0.005550012923777103
1733515995558828500,5.94382861328125,0.004320140462368727,-0.006579676177352667,0.0028860527090728283
1733515995568905500,5.953905517578125,0.00503573939204216,0.002776886336505413,-0.005067603196948767
1733515995578982700,5.963982666015625,0.001799998339265585,0.020623793825507164,-0.012430710718035698
1733515995589059600,5.9740595703125,0.0024032588116824627,0.021599581465125084,-0.007679648697376251
1733515995599136500,5.984136474609375,-0.0015193112194538116,0.01323725376278162,-0.002481957897543907
1733515995609214500,5.99421435546875,-0.0067541636526584625,0.0012600505724549294,0.0014859987422823906
1733515995619291600,6.004291748046875,-0.013881049118936062,-0.012206222862005234,0.012138908728957176
1733515995629368600,6.01436865234375,-0.016885893419384956,-0.027810314670205116,0.02085270546376705
1733515995639445500,6.024445556640625,-0.015807047486305237,-0.041829194873571396,0.030747149139642715
1733515995649522400,6.0345224609375,-0.014995889738202095,-0.04916851222515106,0.03929055109620094
1733515995659600600,6.0446005859375,-0.011274920776486397,-0.04656047746539116,0.044474128633737564
1733515995669677800,6.054677734375,-0.004729031585156918,-0.026862408965826035,0.04450329765677452
1733515995679754800,6.064754638671875,0.0008865096606314182,-0.01528804562985897,0.036519408226013184
1733515995689831700,6.074831787109375,0.004057696554809809,-0.0038945067208260298,0.02917107567191124
1733515995699908600,6.08490869140625,0.00885777734220028,-0.0008273441344499588,0.023173101246356964
1733515995709985800,6.09498583984375,0.008219643495976925,-0.0039337328635156155,0.016458259895443916
1733515995720063700,6.105063720703125,0.00539136677980423,-0.013834034092724323,0.008971048519015312
1733515995730140700,6.115140625,0.0020947447046637535,-0.0222244244068861,0.0025459800381213427
1733515995740217600,6.125217529296875,0.000571682583540678,-0.024064403027296066,-0.00021225586533546448
1733515995750294800,6.135294677734375,-0.0013827115762978792,-0.018957339227199554,-0.0037209680303931236
1733515995760371700,6.145371826171875,0.00027830200269818306,-0.002540549263358116,-0.0064459145069122314
1733515995770448600,6.15544873046875,0.005795634351670742,0.008711389265954494,-0.009355295449495316
1733515995780526600,6.165526611328125,0.007823632098734379,0.004350995644927025,-0.003543212078511715
1733515995790603500,6.175603515625,0.005816857796162367,-0.00475577125325799,0.004196701571345329
1733515995800680700,6.1856806640625,0.0026551526971161366,-0.015897372737526894,0.01165754720568657
1733515995810757600,6.195757568359375,-0.0016498251352459192,-0.021843770518898964,0.019664984196424484
1733515995820834600,6.20583447265625,-0.008941560052335262,-0.0256145391613245,0.023091671988368034
1733515995830912500,6.21591259765625,-0.014836816117167473,-0.02449796348810196,0.01835094764828682
1733515995840989700,6.22598974609375,-0.012499626725912094,-0.0213189497590065,0.013619309291243553
1733515995851066600,6.236066650390625,-0.005770125426352024,-0.01317864190787077,0.0037347052711993456
1733515995861143600,6.2461435546875,0.0022707567550241947,0.00034861842868849635,0.0029283000621944666
1733515995871220500,6.256220458984375,0.005942599382251501,0.00809229351580143,0.013360388576984406
1733515995881297700,6.266297607421875,0.008448367938399315,-0.0018530151573941112,0.026053545996546745
1733515995891376000,6.276376220703125,0.005559311248362064,-0.019863886758685112,0.02639663964509964
1733515995901453000,6.286453125,0.005243459716439247,-0.02798333205282688,0.014818812720477581
1733515995911530000,6.296530029296875,0.0005240500904619694,-0.010274284519255161,-0.0022393749095499516
1733515995921607000,6.30660693359375,-0.0008695819415152073,0.009754817001521587,-0.012302927672863007
1733515995931684000,6.31668408203125,0.0016769361682236195,0.015842709690332413,-0.014291040599346161
1733515995941762000,6.326761962890625,-0.002166538033634424,0.000557496736291796,-0.00923716090619564
1733515995951839000,6.3368388671875,-0.007391002960503101,-0.015467808581888676,-0.004446885082870722
1733515995961916000,6.346916015625,-0.006957973353564739,-0.018254540860652924,-0.002858842257410288
1733515995971993000,6.3569931640625,-0.008844826370477676,-0.01514653954654932,0.00047043757513165474
1733515995982070000,6.367070068359375,-0.005220531020313501,-0.01818174310028553,0.0034459875896573067
1733515995992147000,6.37714697265625,-0.005122504662722349,-0.0258107278496027,0.006476774346083403
1733515996002225000,6.387224853515625,-0.002578919753432274,-0.02977830544114113,0.014707006514072418
1733515996012301800,6.3973017578125,-0.0012242044322192669,-0.025983300060033798,0.019990377128124237
1733515996022379000,6.40737890625,-0.0017698861192911863,-0.019884927198290825,0.024665288627147675
1733515996032456000,6.4174560546875,-0.0008737610187381506,-0.012515779584646225,0.017250467091798782
1733515996042532900,6.427532958984375,0.005425147246569395,-0.009652615524828434,0.008398386649787426
1733515996052610800,6.43761083984375,0.012056276202201843,-0.00286288745701313,0.000591642688959837
1733515996062688000,6.44768798828125,0.010482347570359707,0.005950311664491892,-0.00288032041862607
1733515996072765000,6.457764892578125,0.009891536086797714,0.0019639271777123213,-0.0036813789047300816
1733515996082841900,6.467841796875,0.00962708331644535,-0.010607258416712284,-0.0034707230515778065
1733515996092918800,6.477918701171875,0.0027984101325273514,-0.01594308391213417,-0.006331680808216333
1733515996102996000,6.487995849609375,-0.002309532603248954,-0.010785872116684914,-0.0009273276664316654
1733515996113074000,6.498073974609375,-0.006583659444004297,-0.004987808875739574,0.0014867219142615795
1733515996123150800,6.50815087890625,-0.007768499664962292,-0.009052058681845665,0.0009990967810153961
1733515996133227800,6.518227783203125,-0.005543834529817104,-0.012804115191102028,0.00217559770680964
1733515996143304700,6.5283046875,-0.002180262003093958,-0.014575383625924587,0.004214247688651085
1733515996153382000,6.5383818359375,0.004617664497345686,-0.012332380749285221,0.009281258098781109
1733515996163460000,6.548460205078125,0.001304425299167633,-0.016639243811368942,0.012644831091165543
1733515996173537000,6.558537109375,0.0035069426521658897,-0.02747129462659359,0.01728595420718193
1733515996183614000,6.568614013671875,0.005476883612573147,-0.035398729145526886,0.024166230112314224
1733515996193691100,6.578691162109375,0.0026151644997298717,-0.038080617785453796,0.02402631752192974
1733515996203768000,6.58876806640625,-0.0010368283838033676,-0.039452943950891495,0.022058773785829544
1733515996213845000,6.598844970703125,0.004627632908523083,-0.037615980952978134,0.016522297635674477
1733515996223923000,6.6089228515625,0.01176596898585558,-0.03675178810954094,0.00983110535889864
1733515996234000000,6.618999755859375,0.013441408053040504,-0.01856124773621559,0.007741274777799845
1733515996244077000,6.6290771484375,0.01745346002280712,-0.006522428244352341,0.007456050254404545
1733515996254154000,6.639154052734375,0.020371217280626297,-0.0019163964316248894,0.00815599225461483
1733515996264231000,6.64923095703125,0.01527472585439682,-0.005384364631026983,0.006305628456175327
1733515996274308900,6.659308837890625,0.006352276541292667,-0.005513343494385481,0.004227973986417055
1733515996284385800,6.6693857421875,-0.006063380744308233,-0.004872853402048349,0.007407521829009056
1733515996294463000,6.679462890625,-0.012982001528143883,-0.01186943519860506,-0.0026849210262298584
1733515996304540000,6.689539794921875,-0.01855333521962166,-0.019688742235302925,-0.006565413437783718
1733515996314616800,6.699616943359375,-0.015133697539567947,-0.021373363211750984,-0.012204908765852451
1733515996324694000,6.709694091796875,-0.009170347824692726,-0.017593538388609886,-0.012807847000658512
1733515996334772000,6.71977197265625,-0.002284088870510459,-0.010756840929389,-0.013367265462875366
1733515996344849000,6.729848876953125,0.0027434267103672028,-0.0022994407918304205,-0.00797676108777523
1733515996354925800,6.73992578125,0.00763909425586462,0.003963775932788849,-0.008269084617495537
1733515996365002800,6.750002685546875,0.01299710851162672,0.008594480343163013,-0.006184095982462168
1733515996375080000,6.760079833984375,0.011139308102428913,0.005409611854702234,-0.00108343455940485
1733515996385156900,6.770156982421875,0.011548902839422226,-0.0052880397997796535,0.008829383179545403
1733515996395234800,6.78023486328125,0.0072868019342422485,-0.021139632910490036,0.019500447437167168
1733515996405311700,6.790311767578125,-0.0015040263533592224,-0.027803126722574234,0.024489078670740128
1733515996415389000,6.800388916015625,-0.007664584554731846,-0.03275163471698761,0.0208104457706213
1733515996425465900,6.8104658203125,-0.004357737489044666,-0.025728875771164894,0.016224747523665428
1733515996435542800,6.820542724609375,-0.004267652053385973,-0.015194210223853588,0.012058651074767113
1733515996445621000,6.83062109375,-0.0032671024091541767,-0.0051186722703278065,0.011555579490959644
1733515996455698000,6.840697998046875,-0.00154938455671072,-0.0029840555507689714,0.01114161591976881
1733515996465775000,6.850775146484375,0.0000386582687497139,-0.008133010938763618,0.003763594664633274
1733515996475852000,6.86085205078125,0.0014920122921466827,-0.008172966539859772,-0.008314843289554119
1733515996485929000,6.870928955078125,0.005090741440653801,0.0014277287991717458,-0.02321549504995346
1733515996496006000,6.881005859375,0.0046855914406478405,0.006217867601662874,-0.02992509864270687
1733515996506083800,6.891083740234375,0.008934665471315384,0.010437913239002228,-0.029818037524819374
1733515996516161000,6.9011611328125,0.006422583479434252,0.006626311223953962,-0.015346060506999493
1733515996526238000,6.911238037109375,0.0017015975899994373,-0.006256996653974056,0.00016072764992713928
1733515996536315000,6.92131494140625,-0.00560392439365387,-0.020871445536613464,0.014727609232068062
1733515996546392000,6.93139208984375,-0.009313441812992096,-0.032855138182640076,0.021985521540045738
1733515996556470000,6.941469970703125,-0.009773841127753258,-0.03159448131918907,0.018025323748588562
1733515996566547000,6.951546875,-0.0049505895003676414,-0.02954225055873394,0.020580094307661057
1733515996576623900,6.961623779296875,-0.005383783020079136,-0.0195681843906641,0.02455260418355465
1733515996586700800,6.97170068359375,0.000555865466594696,-0.014494331553578377,0.02924243174493313
1733515996596778000,6.981778076171875,0.0010002441704273224,-0.011241006664931774,0.021469591185450554
1733515996606855000,6.99185498046875,0.004236783366650343,-0.004071511328220367,0.00827123038470745
1733515996616932900,7.001932861328125,0.005464029964059591,0.009823880158364773,-0.007124380208551884
1733515996627009800,7.012009765625,0.007325845304876566,0.025582337751984596,-0.015471791848540306
1733515996637087000,7.0220869140625,0.004157453775405884,0.022707099094986916,-0.01475127600133419
1733515996647164000,7.032163818359375,0.0017904359847307205,0.004049791023135185,-0.012469746172428131
1733515996657240800,7.04224072265625,-0.005306262988597155,-0.007963020354509354,-0.011108344420790672
1733515996667318800,7.05231884765625,-0.011960171163082123,-0.010620322078466415,-0.014058860018849373
1733515996677395700,7.062395751953125,-0.009372678585350513,0.0006480447482317686,-0.014301816932857037
1733515996687473000,7.072472900390625,-0.008959888480603695,0.00653309840708971,-0.01118698250502348
1733515996697549800,7.0825498046875,-0.006270841229707003,0.00513600604608655,-0.006389849819242954
1733515996707626800,7.092626708984375,-0.004479332827031612,0.0013308816123753786,-0.0057038189843297005
1733515996717704000,7.102703857421875,-0.00041356286965310574,0.003360296133905649,0.0013481378555297852
1733515996727782000,7.112781982421875,-0.0008513866923749447,0.0077571747824549675,0.009214849211275578
1733515996737859000,7.122859130859375,0.0009058504365384579,0.007325299549847841,0.01583256945014
1733515996747936000,7.13293603515625,-0.0002741962671279907,0.002977954689413309,0.01544321607798338
1733515996758013000,7.143012939453125,0.004389812238514423,0.0002352608717046678,0.014609348960220814
1733515996768090000,7.153090087890625,0.005007132887840271,0.00058679812354967,0.010229247622191906
1733515996778168000,7.16316796875,0.0023693577386438847,0.0052664983086287975,0.007040879223495722
1733515996788245000,7.173244873046875,0.0008678678423166275,0.01125008799135685,0.00033823540434241295
1733515996798322000,7.183322021484375,-0.000005216803401708603,0.003920447546988726,-0.005621056072413921
1733515996808398800,7.19339892578125,-0.0027892854996025562,0.0066480571404099464,-0.010320204310119152
1733515996818476000,7.20347607421875,-0.009573610499501228,0.004205052740871906,-0.009156842716038227
1733515996828553000,7.213552978515625,-0.007800211664289236,0.0027701416984200478,-0.008983205072581768
1733515996838631000,7.223630859375,-0.006169793661683798,-0.006974276155233383,-0.010949097573757172
1733515996848707800,7.233707763671875,-0.0009023274760693312,-0.010251295752823353,-0.015264751389622688
1733515996858785000,7.243784912109375,0.0025446522049605846,-0.009709512814879417,-0.00845047552138567
1733515996868862000,7.253862060546875,0.001075652427971363,-0.014363120310008526,0.0033712959848344326
1733515996878939000,7.26393896484375,0.0006189276464283466,-0.024427924305200577,0.017516817897558212
1733515996889015800,7.274015869140625,0.0012895120307803154,-0.030927369371056557,0.022635413333773613
1733515996899093800,7.28409375,-0.0018163151107728481,-0.026157639920711517,0.01963786780834198
1733515996909171000,7.2941708984375,-0.004868031479418278,-0.014694860205054283,0.008125289343297482
1733515996919248000,7.304247802734375,0.0001387130469083786,-0.002270778873935342,0.004157380200922489
1733515996929324800,7.31432470703125,0.004394178278744221,0.0005111592472530901,-0.002685079351067543
1733515996939402000,7.324402099609375,0.006875951774418354,-0.001244748244062066,-0.008427519351243973
1733515996949480000,7.33447998046875,0.008057596161961555,0.001989128068089485,-0.0076575991697609425
1733515996959556900,7.344556884765625,0.004665104206651449,0.002119530225172639,-0.004810783546417952
1733515996969633800,7.3546337890625,-0.0014292739797383547,-0.007453202269971371,0.002998670097440481
1733515996979710700,7.364710693359375,-0.007781380787491798,-0.019874097779393196,0.010377617552876472
1733515996989788000,7.374787841796875,-0.01437962893396616,-0.030813565477728844,0.012261804193258286
1733515996999864800,7.38486474609375,-0.020108481869101524,-0.02579687349498272,0.011500953696668148
1733515997009942800,7.39494287109375,-0.018068768084049225,-0.015070727095007896,0.011100680567324162
1733515997020019700,7.405019775390625,-0.0118164774030447,-0.010197502560913563,0.008848478086292744
1733515997030097000,7.415096923828125,-0.005839811637997627,-0.014299568720161915,0.008475902490317822
1733515997040173800,7.425173828125,-0.0007972235325723886,-0.011345856823027134,0.008205447345972061
1733515997050250800,7.435250732421875,0.0028321323916316032,-0.0045201750472188,0.009708269499242306
1733515997060328700,7.44532861328125,0.0034900344908237457,0.006821786053478718,0.00548683013767004
1733515997070405600,7.455405517578125,0.0017568496987223625,0.016708238050341606,-0.00627848319709301
1733515997080482800,7.46548291015625,0.00046435464173555374,0.026058247312903404,-0.018949128687381744
1733515997090559700,7.475559814453125,-0.002008124254643917,0.030200794339179993,-0.030754921957850456
1733515997100636700,7.48563671875,-0.002772594802081585,0.028997309505939484,-0.023030642420053482
1733515997110713600,7.495713623046875,-0.005082354415208101,0.018110306933522224,-0.0063898805528879166
1733515997120791600,7.50579150390625,-0.0067123291082680225,-0.004223054740577936,0.006572679616510868
1733515997130868700,7.51586865234375,-0.008882006630301476,-0.02449929714202881,0.016618655994534492
1733515997140945700,7.525945556640625,-0.013668324798345566,-0.026745667681097984,0.01753028854727745
1733515997151022600,7.536022705078125,-0.011976152658462524,-0.0199279747903347,0.010827911086380482
1733515997161099800,7.546099853515625,-0.008112204261124134,-0.008998990058898926,0.0012771436013281345
1733515997171176700,7.5561767578125,-0.003075900487601757,0.0014176982222124934,-0.004759710282087326
1733515997181255000,7.5662548828125,0.0012502800673246384,0.013847735710442066,-0.006389080546796322
1733515997191331800,7.576331787109375,0.002992520108819008,0.020863033831119537,-0.009383272379636765
1733515997201408800,7.58640869140625,0.0024481648579239845,0.019558975473046303,-0.007959752343595028
1733515997211486000,7.59648583984375,0.0012369588948786259,0.008979568257927895,-0.00475064292550087
1733515997221563000,7.60656298828125,-0.0015544039197266102,-0.006712303962558508,-0.000212755985558033
1733515997231640800,7.616640869140625,-0.00483168987557292,-0.019405994564294815,0.0015004556626081467
1733515997241717800,7.6267177734375,-0.004930062685161829,-0.026859741657972336,0.005472888704389334
1733515997251794700,7.636794677734375,-0.006042731460183859,-0.025182748213410378,0.00920184701681137
1733515997261871900,7.646871826171875,-0.004810219630599022,-0.023585284128785133,0.01150608155876398
1733515997271948800,7.65694873046875,0.0015595289878547192,-0.021352224051952362,0.008172070607542992
1733515997282025700,7.667025634765625,0.0003519076853990555,-0.012805710546672344,0.0024465189781039953
1733515997292103700,7.677103759765625,0.0010925326496362686,0.005425225477665663,-0.0012653949670493603
1733515997302180900,7.687180908203125,0.0027686855755746365,0.015314795076847076,-0.00539244432002306
1733515997312257800,7.6972578125,-0.0008675942663103342,0.017118288204073906,-0.010340331122279167
1733515997322334700,7.707334716796875,-0.010231494903564453,0.012083660811185837,-0.013751625083386898
1733515997332411600,7.71741162109375,-0.011214200407266617,0.0057365489192306995,-0.015311439521610737
1733515997342489600,7.727489501953125,-0.015373606234788895,0.00490991584956646,-0.011335304006934166
1733515997352566800,7.73756689453125,-0.012876095250248909,0.005527769215404987,-0.007018053438514471
1733515997362643700,7.747643798828125,-0.013255287893116474,0.008464779704809189,-0.0031381454318761826
1733515997372720600,7.757720703125,-0.005285245832055807,0.005102806258946657,-0.0028009889647364616
1733515997382797800,7.7677978515625,-0.003237050026655197,0.006594798061996698,0.004231871571391821
1733515997392874800,7.777874755859375,-0.002915872959420085,0.009975414723157883,0.0032310555689036846
1733515997402952700,7.78795263671875,-0.003769456874579191,0.006582370959222317,0.0017820135690271854
1733515997413029600,7.798029541015625,0.0007725642062723637,-0.002116578631103039,-0.0023421570658683777
1733515997423106600,7.8081064453125,0.0012885467149317265,-0.0069572338834404945,-0.0053209178149700165
1733515997433183700,7.818183837890625,0.0044997865334153175,-0.012517914175987244,-0.004604527726769447
1733515997443260700,7.8282607421875,0.008634627796709538,-0.013680383563041687,-0.0012029674835503101
1733515997453339000,7.8383388671875,0.011668501421809196,-0.021770533174276352,0.002876462647691369
1733515997463415800,7.848415771484375,0.010850359685719013,-0.03240320459008217,0.012687910348176956
1733515997473492700,7.85849267578125,0.01408423576503992,-0.046454042196273804,0.02179592102766037
1733515997483570000,7.86856982421875,0.015462031587958336,-0.05667578801512718,0.02763218991458416
1733515997493646800,7.878646728515625,0.0154923927038908,-0.06428177654743195,0.027743777260184288
1733515997503723800,7.888723876953125,0.01876252517104149,-0.061431124806404114,0.02722294069826603
1733515997513801700,7.8988017578125,0.018062911927700043,-0.05418386682868004,0.018035568296909332
1733515997523879000,7.90887890625,0.021997328847646713,-0.03703239932656288,0.0028395559638738632
1733515997533955800,7.918955810546875,0.02648715302348137,-0.014813381247222424,-0.013508258387446404
1733515997544032800,7.92903271484375,0.028023608028888702,0.00409577414393425,-0.024406619369983673
1733515997554109700,7.939109619140625,0.02705421671271324,0.016044313088059425,-0.02841547504067421
1733515997564187000,7.949186767578125,0.023482099175453186,0.013259976170957088,-0.019539332017302513
1733515997574264800,7.959264892578125,0.011463520117104053,0.0026858949568122625,-0.007618757430464029
1733515997584341800,7.969341796875,0.0017054318450391293,-0.013708524405956268,0.00015287939459085464
1733515997594418700,7.979418701171875,-0.003578279633074999,-0.03206942230463028,0.00996076874434948
1733515997604496000,7.989495849609375,-0.004645734094083309,-0.03215668350458145,0.007479847874492407
1733515997614572800,7.99957275390625,-0.003399641253054142,-0.013410428538918495,0.003160733263939619
1733515997624650800,8.009650634765626,0.0020034057088196278,0.003797499928623438,-0.006350900512188673
1733515997634727700,8.019727783203125,0.011307958513498306,0.02136131376028061,-0.01074698194861412
1733515997644804600,8.0298046875,0.013335414230823517,0.029249152168631554,-0.008504273369908333
1733515997654881800,8.0398818359375,0.012697320431470871,0.03295094519853592,0.0010783122852444649
1733515997664958700,8.049958740234375,0.007527167443186045,0.02531619556248188,0.00901547446846962
1733515997675035600,8.06003564453125,0.005858697462826967,0.01839543879032135,0.009550238028168678
1733515997685113600,8.070113525390624,0.0019028098322451115,0.014535368420183659,0.004748242441564798
1733515997695190800,8.080190673828126,0.0012852228246629238,0.027358489111065865,-0.014072583056986332
1733515997705267700,8.090267822265625,0.0013360478915274143,0.04758501797914505,-0.03207236900925636
1733515997715344600,8.1003447265625,0.0012745289131999016,0.05353798344731331,-0.04143737629055977
1733515997725421600,8.110421630859374,0.00020721973851323128,0.03580186143517494,-0.03436778113245964
1733515997735498800,8.120498779296875,-0.004624553024768829,0.006112672854214907,-0.010302126407623291
1733515997745577000,8.130576904296875,-0.00872434675693512,-0.019119178876280785,0.01701546646654606
1733515997755654000,8.14065380859375,-0.014421114698052406,-0.034895479679107666,0.030236197635531425
1733515997765730800,8.150730712890624,-0.015858832746744156,-0.03667660057544708,0.03158566728234291
1733515997775807700,8.160807861328125,-0.01660504937171936,-0.033501047641038895,0.021509865298867226
1733515997785885000,8.170885009765625,-0.009605621919035912,-0.01897323876619339,0.014275798574090004
1733515997795963000,8.180962890625,-0.004260390996932983,-0.0074388207867741585,0.01166377030313015
1733515997806039800,8.191039794921876,0.0017399773932993412,-0.0016160854138433933,0.009987576864659786
1733515997816116700,8.20111669921875,0.0034942012280225754,-0.010950464755296707,0.010573738254606724
1733515997826194000,8.21119384765625,-0.0025241589173674583,-0.021734049543738365,0.006533296778798103
1733515997836270800,8.221270751953124,-0.004115398041903973,-0.03855271264910698,0.008211088366806507
1733515997846347800,8.23134765625,-0.002453502267599106,-0.042817942798137665,0.008680901490151882
1733515997856425700,8.24142578125,-0.0028668250888586044,-0.038190700113773346,0.014741988852620125
1733515997866502700,8.251502685546875,-0.005619983188807964,-0.03315732255578041,0.014684103429317474
1733515997876579800,8.261579833984374,-0.008037867024540901,-0.038900163024663925,0.02056383155286312
1733515997886656800,8.27165673828125,-0.01325380988419056,-0.0398343987762928,0.01705835945904255
1733515997896733200,8.281733154296875,-0.014995517209172249,-0.03982853889465332,0.01966239884495735
1733515997906811100,8.29181103515625,-0.014649534597992897,-0.0345834419131279,0.015026446431875229
1733515997916888300,8.301888427734376,-0.014267105609178543,-0.026541493833065033,0.005442794878035784
1733515997926965200,8.31196533203125,-0.011447878554463387,-0.022747648879885674,-0.005677030887454748
1733515997937042200,8.322042236328125,-0.01029233355075121,-0.015047917142510414,-0.012819627299904823
1733515997947119400,8.332119384765624,-0.004861325025558472,-0.010440470650792122,-0.008541680872440338
1733515997957196300,8.3421962890625,-0.0059921033680438995,-0.013908972032368183,0.0018654200248420238
1733515997967274200,8.352274169921875,-0.007494167424738407,-0.02615356631577015,0.012170239351689816
1733515997977351200,8.36235107421875,-0.007470731623470783,-0.03580566123127937,0.020269710570573807
1733515997987428000,8.372427978515624,-0.010365285910665989,-0.03655826672911644,0.025143105536699295
1733515997997505300,8.38250537109375,-0.010542652569711208,-0.030821552500128746,0.02353934943675995
1733515998007582200,8.392582275390625,-0.006589657627046108,-0.021737422794103622,0.023534949868917465
1733515998017659100,8.4026591796875,-0.004223705735057592,-0.015923475846648216,0.017676526680588722
1733515998027737300,8.4127373046875,-0.0015328647568821907,-0.012250443920493126,0.00675553223118186
1733515998037814300,8.422814208984375,0.0032432484440505505,-0.0037389802746474743,-0.010563536547124386
1733515998047891500,8.432891357421875,0.005855618976056576,0.004354809410870075,-0.019987307488918304
1733515998057968400,8.442968505859374,0.0053605372086167336,0.014592000283300877,-0.028054287657141685
1733515998068045300,8.45304541015625,0.006741529330611229,0.010129875503480434,-0.028602413833141327
1733515998078123300,8.463123291015625,0.0015566209331154823,0.0025132345035672188,-0.026257768273353577
1733515998088200400,8.473200439453125,-0.0032723997719585896,-0.009900825098156929,-0.015923133119940758
1733515998098277400,8.48327734375,-0.005764585919678211,-0.019792070612311363,-0.006871581077575684
1733515998108354300,8.493354248046876,-0.003103787312284112,-0.03211531788110733,0.0020884331315755844
1733515998118431200,8.50343115234375,-0.0020579639822244644,-0.04795899614691734,0.006689310073852539
1733515998128508400,8.51350830078125,0.005149551667273045,-0.057141393423080444,0.008925974369049072
1733515998138586400,8.52358642578125,0.01225140318274498,-0.05309658497571945,0.011942802928388119
1733515998148663300,8.533663330078125,0.016750957816839218,-0.034813448786735535,0.015219243243336678
1733515998158740200,8.543740234375,0.02001918852329254,-0.020742105320096016,0.015392616391181946
1733515998168817400,8.5538173828125,0.019275153055787086,-0.016001414507627487,0.007317806128412485
1733515998178894300,8.563894287109376,0.0217572208493948,-0.012049817480146885,-0.006903473753482103
1733515998188972300,8.57397216796875,0.019298700615763664,-0.004255631472915411,-0.01909419149160385
1733515998199049200,8.58404931640625,0.018930653110146523,0.002846486633643508,-0.02048196643590927
1733515998209126100,8.594126220703124,0.01735515706241131,0.008550532162189484,-0.020919738337397575
1733515998219203300,8.604203369140626,0.015933826565742493,0.017816467210650444,-0.019583631306886673
1733515998229280300,8.6142802734375,0.01716526225209236,0.0355096273124218,-0.023213930428028107
1733515998239357200,8.624357177734375,0.022062547504901886,0.05193387344479561,-0.021273285150527954
1733515998249435100,8.63443505859375,0.023630723357200623,0.06590800732374191,-0.02378423884510994
1733515998259512000,8.644511962890626,0.01860640197992325,0.07404662668704987,-0.021420683711767197
1733515998269589200,8.65458935546875,0.007311854511499405,0.07598212361335754,-0.014735648408532143
1733515998279666200,8.664666259765625,-0.0027160122990608215,0.06509805470705032,-0.009455133229494095
1733515998289743000,8.6747431640625,-0.014875124208629131,0.05603567138314247,-0.00576369371265173
1733515998299820300,8.6848203125,-0.0177763719111681,0.04598596692085266,-0.0095536382868886
1733515998309898500,8.6948984375,-0.020656367763876915,0.050582051277160645,-0.023822836577892303
1733515998319975400,8.704975341796874,-0.017480812966823578,0.06145573779940605,-0.03716393932700157
1733515998330052400,8.71505224609375,-0.010285371914505959,0.07459089905023575,-0.049100592732429504
1733515998340129300,8.72512939453125,-0.002951559145003557,0.07750865817070007,-0.05226229876279831
1733515998350206500,8.73520654296875,0.007142441347241402,0.06535771489143372,-0.043048590421676636
1733515998360284400,8.745284423828124,0.010561673901975155,0.05560441315174103,-0.022818952798843384
1733515998370361300,8.755361328125,0.010279262438416481,0.04473569989204407,-0.00462593836709857
1733515998380438300,8.765438232421875,0.003976092673838139,0.027213167399168015,0.0025025445502251387
1733515998390515200,8.77551513671875,-0.0010500813368707895,0.012073982506990433,0.002766427118331194
1733515998400592400,8.78559228515625,-0.002881537191569805,-0.0017938957316800952,-0.002861631102859974
1733515998410669300,8.79566943359375,-0.005826195701956749,-0.010822181589901447,-0.002261555753648281
1733515998420747300,8.805747314453125,-0.004122305195778608,-0.024211224168539047,-0.0017132111825048923
1733515998430824200,8.81582421875,0.001670710276812315,-0.03757160156965256,0.0007737260311841965
1733515998440901400,8.8259013671875,0.00872089620679617,-0.04085474833846092,0.003880569711327553
1733515998450978300,8.835978271484375,0.019911017268896103,-0.02015763148665428,-0.00040902430191636086
1733515998461055200,8.84605517578125,0.024299906566739082,0.01728268526494503,-0.007887979969382286
1733515998471133200,8.85613330078125,0.023641888052225113,0.04798120632767677,-0.017095616087317467
1733515998481210000,8.866210205078126,0.021010152995586395,0.06383366882801056,-0.022158019244670868
1733515998491287300,8.876287353515625,0.011680983938276768,0.06704722344875336,-0.023260939866304398
1733515998501364200,8.8863642578125,0.0020949351601302624,0.06915511190891266,-0.01966753788292408
1733515998511441200,8.896441162109374,-0.012291261926293373,0.07110605388879776,-0.024332191795110703
1733515998521518300,8.906518310546875,-0.013765053823590279,0.06967673450708389,-0.028020935133099556
1733515998531596300,8.91659619140625,-0.014265676960349083,0.07243532687425613,-0.03098321333527565
1733515998541673200,8.926673095703125,-0.014035314321517944,0.07310165464878082,-0.028193816542625427
1733515998551750100,8.936750244140624,-0.010287400335073471,0.0711139664053917,-0.024697843939065933
1733515998561827000,8.9468271484375,-0.005256689619272947,0.059982746839523315,-0.016629796475172043
1733515998571904300,8.956904296875,-0.000522182323038578,0.046181630343198776,-0.006253444589674473
1733515998581981200,8.966981201171874,0.0005116569809615612,0.03394946828484535,0.0021954341791570187
1733515998592059400,8.977059326171876,0.00038993125781416893,0.021981917321681976,0.006843209266662598
1733515998602136300,8.98713623046875,0.004573490936309099,0.01712298020720482,0.007569719571620226
1733515998612213200,8.997213134765625,0.004995151422917843,0.011014309711754322,-0.0040456256829202175
1733515998622290400,9.00729052734375,0.002643314190208912,-0.002020531799644232,-0.007816661149263382
1733515998632367400,9.017367431640626,0.00648256903514266,-0.01464160718023777,-0.014733141288161278
1733515998642445300,9.0274453125,0.005482019390910864,-0.03240542486310005,-0.012610601261258125
1733515998652522200,9.037522216796875,0.0010853474959731102,-0.04807377606630325,-0.0013932879082858562
1733515998662599400,9.047599365234374,0.005167440511286259,-0.06105295941233635,0.002414499642327428
1733515998672676400,9.05767626953125,0.010309282690286636,-0.07103447616100311,0.00667864503338933
1733515998682753300,9.067753173828125,0.013069916516542435,-0.07528434693813324,0.0070315138436853886
1733515998692830200,9.077830322265624,0.009544454514980316,-0.08220032602548599,0.010494141839444637
1733515998702908200,9.087908203125,0.006413376424461603,-0.09113576263189316,0.01366942934691906
1733515998712985300,9.0979853515625,0.0027071386575698853,-0.10313853621482849,0.016836492344737053
1733515998723062300,9.108062255859375,0.0010344069451093674,-0.1074368804693222,0.017377115786075592
1733515998733139200,9.11813916015625,0.00021420372650027275,-0.10628612339496613,0.016417821869254112
1733515998743216400,9.12821630859375,0.005244648549705744,-0.09884392470121384,0.010661398991942406
1733515998753293300,9.138293212890625,0.009346693754196167,-0.09145329892635345,0.007815169170498848
1733515998763371300,9.148371337890625,0.011810384690761566,-0.07757662981748581,0.008710790425539017
1733515998773448200,9.1584482421875,0.013500016182661057,-0.06821348518133163,0.017912060022354126
1733515998783525000,9.168525146484376,0.012293072417378426,-0.06462807208299637,0.02345968969166279
1733515998793602300,9.178602294921875,0.010207059793174267,-0.05973726883530617,0.02669171616435051
1733515998803679200,9.18867919921875,0.008305029943585396,-0.052013035863637924,0.02337927743792534
1733515998813757200,9.198757080078124,0.0076923188753426075,-0.043255407363176346,0.017230868339538574
1733515998823834000,9.208834228515625,0.008282741531729698,-0.03716342896223068,0.015321649610996246
1733515998833911300,9.218911376953125,0.008712475188076496,-0.03536348417401314,0.022913051769137383
1733515998843988200,9.22898828125,0.004241560585796833,-0.045450471341609955,0.023190287873148918
1733515998854065200,9.239065185546876,0.006540100555866957,-0.04510852321982384,0.015700338408350945
1733515998864142000,9.24914208984375,0.006090558599680662,-0.039507362991571426,0.0023472497705370188
1733515998874220300,9.25922021484375,0.004786975681781769,-0.02316168136894703,-0.006762017961591482
1733515998884297500,9.26929736328125,-0.0006823583971709013,-0.007731858640909195,-0.011975156143307686
1733515998894374400,9.27937451171875,-0.0033112289384007454,-0.002502295421436429,-0.01507546752691269
1733515998904451300,9.289451416015625,-0.0023471645545214415,0.0004002837813459337,-0.016005177050828934
1733515998914528300,9.2995283203125,-0.004618533421307802,0.002262276830151677,-0.009288935922086239
1733515998924605400,9.30960546875,-0.008001547306776047,0.001218051416799426,-0.0013639009557664394
1733515998934683400,9.319683349609376,-0.010894550010561943,-0.012578011490404606,-0.0019183354452252388
1733515998944760300,9.32976025390625,-0.009998396039009094,-0.02587996795773506,-0.006948514375835657
1733515998954837200,9.339837158203125,-0.005194635130465031,-0.030341386795043945,-0.007840096950531006
1733515998964914400,9.34991455078125,-0.002113890368491411,-0.02374580129981041,-0.0004000244662165642
1733515998974991400,9.359991455078125,0.004986668471246958,-0.01994972489774227,0.011125683784484863
1733515998985069300,9.3700693359375,0.00805702619254589,-0.026216940954327583,0.018760699778795242
1733515998995146200,9.380146240234374,0.011946246027946472,-0.03121534362435341,0.024457544088363647
1733515999005223200,9.39022314453125,0.012743063271045685,-0.026299946010112762,0.025512687861919403
1733515999015300400,9.40030029296875,0.007808758411556482,-0.018254537135362625,0.022328615188598633
1733515999025377300,9.410377197265625,0.004485666286200285,-0.010316187515854836,0.019617782905697823
1733515999035454200,9.4204541015625,-0.001467439578846097,-0.01173165813088417,0.0127719072625041
1733515999045532400,9.430532470703126,-0.0035542927216738462,-0.01435034442692995,0.010970278643071651
1733515999055609300,9.440609375,-0.0052047548815608025,-0.01972202956676483,0.0047124456614255905
1733515999065686500,9.4506865234375,-0.004039621911942959,-0.0150529770180583,0.0007446021772921085
1733515999075763500,9.460763427734374,-0.0023860468063503504,-0.0033726163674145937,0.001653977669775486
1733515999085840400,9.47084033203125,0.004435640759766102,0.010366630740463734,0.0012387908063828945
1733515999095918300,9.48091845703125,0.004386084154248238,0.012449316680431366,-0.0005083512514829636
1733515999105995500,9.49099560546875,-0.00042465003207325935,0.013257320038974285,-0.004584851674735546
1733515999116072400,9.501072509765624,-0.002731131389737129,0.005075111053884029,-0.004065238405019045
1733515999126149400,9.5111494140625,-0.00204323697835207,0.0030218136962503195,-0.01100197434425354
1733515999136226300,9.521226318359375,-0.006979160010814667,0.0027185743674635887,-0.009937348775565624
1733515999146303500,9.531303466796874,-0.005597778595983982,-0.001080425106920302,-0.008008688688278198
1733515999156381400,9.54138134765625,-0.006170676555484533,-0.010261772200465202,-0.006857716012746096
1733515999166458400,9.551458251953125,-0.006784801371395588,-0.014046655967831612,-0.0022722850553691387
1733515999176535300,9.561535400390625,0.00018408801406621933,-0.010851027444005013,0.0035629672929644585
1733515999186612500,9.571612548828124,0.0030861343257129192,-0.009740223176777363,0.014189246110618114
1733515999196689400,9.581689453125,0.0062798792496323586,-0.017333073541522026,0.021227745339274406
1733515999206766300,9.591766357421875,0.006968040019273758,-0.026720184832811356,0.021354777738451958
1733515999216844300,9.60184423828125,0.00488393846899271,-0.021907687187194824,0.020983705297112465
1733515999226921200,9.611921142578124,0.005266901105642319,-0.013662541285157204,0.011902324855327606
1733515999236998400,9.621998291015625,0.008912011981010437,-0.0026501917745918036,0.0008816481567919254
1733515999247075300,9.632075439453125,0.0012780600227415562,0.005544621497392654,-0.010726803913712502
1733515999257152300,9.64215234375,-0.0024921181611716747,0.013855725526809692,-0.015629231929779053
1733515999267230200,9.652230224609376,-0.0070786140859127045,0.0152251236140728,-0.019010379910469055
1733515999277307400,9.662307373046875,-0.0038873483426868916,0.007525390479713678,-0.011789219453930855
1733515999287384300,9.67238427734375,-0.009964948520064354,0.003479782957583666,-0.003973374608904123
1733515999297461200,9.682461181640624,-0.008887989446520805,-0.0016472447896376252,0.002648996887728572
1733515999307538400,9.692538330078126,-0.004977403674274683,-0.0038022748194634914,0.008252553641796112
1733515999317615600,9.70261572265625,-0.005031193140894175,-0.012625150382518768,0.009800856932997704
1733515999327693600,9.712693603515625,-0.00575504032894969,-0.011844045482575893,0.008899643085896969
1733515999337770500,9.7227705078125,0.0019375174306333065,-0.007259946782141924,0.006283789873123169
1733515999347847400,9.732847412109376,0.0015630773268640041,-0.0015932724345475435,0.002509824465960264
1733515999357924400,9.74292431640625,0.003298576455563307,0.0036810291931033134,0.003290631575509906
1733515999368001500,9.75300146484375,0.0020181285217404366,-0.002249031327664852,0.0027042035944759846
1733515999378078500,9.763078369140626,0.007516940589994192,-0.01121198758482933,0.00122878048568964
1733515999388156400,9.773156494140625,0.006306534167379141,-0.020258480682969093,0.00022902991622686386
1733515999398233300,9.7832333984375,0.005257882177829742,-0.02584756724536419,0.009076254442334175
1733515999408310500,9.793310546875,0.008901619352400303,-0.034419748932123184,0.015932563692331314
1733515999418387500,9.803387451171876,0.006462122313678265,-0.03963439539074898,0.018067870289087296
1733515999428464400,9.81346435546875,0.006813392974436283,-0.03646070510149002,0.011038189753890038
1733515999438542300,9.823542236328125,0.00992790050804615,-0.021721353754401207,0.0015675346367061138
1733515999448619300,9.833619384765624,0.010573716834187508,-0.006738676689565182,-0.002442652825266123
1733515999458696400,9.843696533203126,0.007403513416647911,-0.0023767740931361914,-0.0038878396153450012
1733515999468773400,9.8537734375,-0.0010783879552036524,-0.012089322321116924,-0.002347201108932495
1733515999478850300,9.863850341796875,-0.004424655344337225,-0.01620434783399105,-0.004735196940600872
1733515999488927500,9.873927490234376,-0.00696717482060194,-0.020016929134726524,-0.0063980743288993835
1733515999499005400,9.88400537109375,-0.011077558621764183,-0.015780888497829437,-0.0017546415328979492
1733515999509082400,9.894082275390625,-0.00765619520097971,-0.011414368636906147,-0.0006462335586547852
1733515999519159300,9.9041591796875,-0.007614093832671642,-0.007963997311890125,0.001030204351991415
1733515999529236200,9.914236328125,0.0008052238263189793,-0.0037969492841511965,-0.002649218775331974
1733515999539313400,9.9243134765625,0.005894467234611511,0.006731947418302298,0.0009048497304320335
1733515999549390300,9.934390380859375,0.008485722355544567,0.01551744993776083,0.0046354057267308235
1733515999559468500,9.944468505859374,0.006773717701435089,0.012134434655308723,0.010708164423704147
1733515999569545500,9.95454541015625,-0.0005321318749338388,0.003311915323138237,0.012757199816405773
1733515999579622400,9.964622314453125,-0.003707876428961754,-0.004909254610538483,0.009025202132761478
1733515999589699600,9.974699462890625,-0.005078605376183987,-0.007912501692771912,-0.0024572834372520447
1733515999599776500,9.984776611328124,-0.004636275116354227,-0.006269334815442562,-0.010609924793243408
1733515999609854500,9.9948544921875,-0.0020239802543073893,-0.003153703175485134,-0.015025446191430092
1733515999619931400,10.004931396484375,0.002426018938422203,0.00048577127745375037,-0.009134221822023392
1733515999630008600,10.015008544921875,0.004500355571508408,-0.004366774577647448,0.001953316852450371
1733515999640085500,10.02508544921875,0.0038796961307525635,-0.017588304355740547,0.015336547046899796
1733515999650162400,10.035162353515625,0.0009424956515431404,-0.021503418684005737,0.016165588051080704
1733515999660239400,10.0452392578125,0.0009674699977040291,-0.01570802554488182,0.014097191393375397
1733515999670317300,10.0553173828125,0.002061496488749981,-0.0019402820616960526,0.005642186850309372
1733515999680394500,10.06539453125,0.0017819846980273724,0.004112376365810633,0.000911190640181303
1733515999690471400,10.075471435546875,0.0033860066905617714,0.0031930531840771437,-0.0013306583277881145
1733515999700548400,10.08554833984375,0.0005059265531599522,-0.000965831452049315,-0.001508304849267006
1733515999710625500,10.09562548828125,-0.0000679846853017807,0.0007066337275318801,0.0010142410174012184
1733515999720703500,10.105703369140626,-0.006724193226546049,0.0039090001955628395,-0.0009418516419827938
1733515999730780400,10.115780517578125,-0.006668799556791782,-0.0006924095214344561,-0.0005482365377247334
1733515999740857300,10.125857421875,-0.0074012391269207,-0.003362497081980109,0.0040966966189444065
1733515999750934300,10.135934326171874,-0.005028895568102598,-0.007701052352786064,0.0019922666251659393
1733515999761011500,10.146011474609375,0.00009725010022521019,-0.0007827826775610447,-0.004402254242449999
1733515999771088400,10.15608837890625,0.0016173822805285454,0.014832662418484688,-0.004915445577353239
1733515999781166300,10.166166259765625,0.005382885225117207,0.03360156714916229,-0.007451052311807871
1733515999791243300,10.1762431640625,0.008493457920849323,0.041137780994176865,-0.011609844863414764
1733515999801320200,10.1863203125,0.005261982791125774,0.04298609122633934,-0.010229921899735928
1733515999811397400,10.1963974609375,-0.0026619865093380213,0.039046742022037506,-0.010052290745079517
1733515999821474300,10.206474365234374,-0.0039853984490036964,0.031215457245707512,-0.009801922366023064
1733515999831551200,10.21655126953125,-0.00776868499815464,0.02271544560790062,-0.010708728805184364
1733515999841629400,10.22662939453125,-0.008494958281517029,0.022562222555279732,-0.010869985446333885
1733515999851706600,10.23670654296875,-0.003116438165307045,0.03409557417035103,-0.010323505848646164
1733515999861783600,10.246783447265624,-0.0026418745983392,0.0388641431927681,-0.014808946289122105
1733515999871860500,10.256860595703126,-0.0011323948856443167,0.03822072595357895,-0.01926201954483986
1733515999881937400,10.2669375,0.00014560064300894737,0.03086853213608265,-0.01952458918094635
1733515999892015400,10.277015380859375,-0.0005247169174253941,0.02750495821237564,-0.020459357649087906
1733515999902092500,10.287092529296874,0.00048443209379911423,0.021399574354290962,-0.01669888384640217
1733515999912169500,10.29716943359375,0.0015880460850894451,0.015219975262880325,-0.011365370824933052
1733515999922246400,10.307246337890625,0.008078334853053093,0.00694251386448741,-0.0013353107497096062
1733515999932323300,10.3173232421875,0.008233863860368729,-0.0028078509494662285,0.006048303097486496
1733515999942400500,10.327400390625,0.011796640232205391,-0.011602407321333885,0.008678440935909748
1733515999952478500,10.337478515625,0.011329786852002144,-0.017122074961662292,0.009846502915024757
1733515999962555400,10.347555419921875,0.013302373699843884,-0.021406037732958794,0.014000064693391323
1733515999972632300,10.35763232421875,0.010283680632710457,-0.02625725232064724,0.018433162942528725
1733515999982709500,10.36770947265625,0.006893164478242397,-0.03435910865664482,0.022689804434776306
1733515999992786400,10.377786376953125,0.0033836504444479942,-0.04492839425802231,0.026417965069413185
1733516000002863400,10.38786328125,0.0018486091867089272,-0.05275268480181694,0.02493445575237274
1733516000012941300,10.39794140625,0.0059581333771348,-0.04762982949614525,0.018292266875505447
1733516000023018200,10.408018310546876,0.009137144312262535,-0.03641143813729286,0.010937741957604885
1733516000033095400,10.418095458984375,0.013051724061369896,-0.02623683027923107,0.004593559540808201
1733516000043172400,10.42817236328125,0.01701909862458706,-0.01481844112277031,0.0028146931435912848
1733516000053249300,10.438249267578126,0.015609221532940865,-0.012202683836221695,0.0011225207708775997
1733516000063327200,10.4483271484375,0.013443171977996826,-0.01519669871777296,-0.001957362052053213
1733516000073404400,10.458404296875,0.010351242497563362,-0.014059528708457947,-0.004454341251403093
1733516000083481300,10.4684814453125,0.010203657671809196,-0.005160660948604345,-0.004251894541084766
1733516000093558300,10.478558349609376,0.008465945720672607,0.00006952084368094802,-0.0028252387419342995
1733516000103635200,10.48863525390625,0.008625898510217667,-0.002551653189584613,0.0018002004362642765
1733516000113712400,10.49871240234375,0.00883256085216999,-0.006141328252851963,0.007210678420960903
1733516000123790600,10.50879052734375,0.007001472171396017,-0.010410817340016365,0.0074905152432620525
1733516000133867500,10.518867431640626,0.004316740203648806,-0.011427345685660839,0.002919731894508004
1733516000143944400,10.5289443359375,0.001201373990625143,-0.01010934729129076,-0.0018265536054968834
1733516000154021400,10.539021484375,0.005195316392928362,-0.0006143789505586028,-0.010632827877998352
1733516000164098600,10.5490986328125,0.0070363800041377544,0.014582155272364616,-0.01674221269786358
1733516000174175500,10.559175537109375,0.007628667633980513,0.03367675095796585,-0.02234630286693573
1733516000184253400,10.56925341796875,0.011698493734002113,0.047915246337652206,-0.01750864088535309
1733516000194330400,10.579330322265625,0.012129927054047585,0.049599964171648026,-0.006294868420809507
1733516000204407600,10.589407470703126,0.010541800409555435,0.034644629806280136,0.003653338411822915
1733516000214484500,10.599484375,0.00617661327123642,0.017904262989759445,0.008317066356539726
1733516000224561400,10.6095615234375,0.002121702767908573,0.008695852011442184,0.002017796505242586
1733516000234639400,10.619639404296874,0.0032988195307552814,0.012262623757123947,-0.012594702653586864
1733516000244716300,10.62971630859375,0.006402261089533567,0.021135391667485237,-0.023601623252034187
1733516000254793500,10.63979345703125,0.008703498169779778,0.031470585614442825,-0.0346129946410656
1733516000264870400,10.649870361328125,0.014106407761573792,0.031208086758852005,-0.03137395903468132
1733516000274947300,10.659947265625,0.018867872655391693,0.027522804215550423,-0.020824382081627846
1733516000285024500,10.6700244140625,0.019662898033857346,0.01933038979768753,-0.004650318995118141
1733516000295102500,10.6801025390625,0.015405569225549698,0.004382865969091654,0.013613639399409294
1733516000305179400,10.690179443359375,0.006967063061892986,-0.012382625602185726,0.026039982214570045
1733516000315256300,10.70025634765625,-0.0010093702003359795,-0.027401788160204887,0.031467504799366
1733516000325333200,10.710333251953125,-0.0030642400961369276,-0.03814373537898064,0.0361582413315773
1733516000335410400,10.720410400390625,-0.005507424008101225,-0.04350654408335686,0.03379788249731064
1733516000345488400,10.73048828125,-0.0013861823827028275,-0.04130038246512413,0.028887813910841942
1733516000355565300,10.7405654296875,0.0015725893899798393,-0.031048273667693138,0.021447740495204926
1733516000365642200,10.750642333984375,0.008873495273292065,-0.016981106251478195,0.012881521135568619
1733516000375719400,10.760719482421875,0.014180908910930157,-0.010115477256476879,0.006737875286489725
1733516000385796400,10.77079638671875,0.014355137944221497,-0.0143960639834404,0.0056456332094967365
1733516000395873300,10.780873291015626,0.011862685903906822,-0.024974672123789787,0.003835749113932252
1733516000405951500,10.790951416015625,0.0027764225378632545,-0.030758699402213097,0.005688516888767481
1733516000416028400,10.8010283203125,-0.009382238611578941,-0.04003475606441498,0.00939776748418808
1733516000426105600,10.811105712890624,-0.010947729460895061,-0.04480243846774101,0.010382305830717087
1733516000436182500,10.8211826171875,-0.013255092315375805,-0.04665866121649742,0.006644825451076031
1733516000446259500,10.831259521484375,-0.009845804423093796,-0.040601301938295364,0.009080312214791775
1733516000456336400,10.84133642578125,-0.003733050776645541,-0.027709204703569412,0.014627410098910332
1733516000466414300,10.851414306640624,-0.00009256880730390549,-0.019307643175125122,0.02088645100593567
1733516000476491500,10.861491455078125,0.0032009626738727093,-0.015522759407758713,0.026018626987934113
1733516000486568400,10.871568359375,0.00590480538085103,-0.01461044792085886,0.032530996948480606
1733516000496645400,10.881645263671874,0.004596394021064043,-0.006358643062412739,0.03236880898475647
1733516000506722600,10.89172265625,0.00440350454300642,0.00308980792760849,0.0273305494338274
1733516000516800500,10.901800537109375,0.003400291781872511,0.02107812836766243,0.020724046975374222
1733516000526877400,10.91187744140625,0.003484997432678938,0.0270950086414814,0.013004245236515999
1733516000536954400,10.921954345703124,-0.003936166875064373,0.029942193999886513,0.008240915834903717
1733516000547031300,10.93203125,-0.005334734916687012,0.035250939428806305,0.0032912122551351786
1733516000557108500,10.9421083984375,-0.011919400654733181,0.041999123990535736,-0.002917681820690632
1733516000567185400,10.952185302734375,-0.01087837666273117,0.046800628304481506,-0.007740871049463749
1733516000577263400,10.962263427734374,-0.01436498761177063,0.04850132018327713,-0.009500155225396156
1733516000587340300,10.97234033203125,-0.016663968563079834,0.04225221276283264,0.00011416897177696228
1733516000597417500,10.98241748046875,-0.015516679733991623,0.0339607298374176,0.004290804732590914
1733516000607494400,10.992494384765624,-0.014751163311302662,0.018044011667370796,0.00915445014834404
1733516000617571300,11.0025712890625,-0.01578899845480919,0.0123776039108634,0.011671137064695358
1733516000627648300,11.012648193359375,-0.015498345717787743,0.016442278400063515,0.007687384262681007
1733516000637726200,11.022726318359375,-0.013078063726425171,0.024991292506456375,0.010498883202672005
1733516000647803400,11.032803466796874,-0.004354225937277079,0.0309643242508173,0.011556003242731094
1733516000657880300,11.04288037109375,-0.0032008106354624033,0.036887191236019135,0.006203582510352135
1733516000667957200,11.052957275390625,-0.0035126167349517345,0.036473598331213,0.00906903576105833
1733516000678034400,11.063034423828125,0.0023681754246354103,0.027605539187788963,0.009160116314888
1733516000688112400,11.0731123046875,0.0016379943117499352,0.014581791125237942,0.009267628192901611
1733516000698189600,11.083189453125,-0.0015199820045381784,0.004879629239439964,0.01142958179116249
1733516000708266500,11.0932666015625,-0.0044888900592923164,-0.0016464454820379615,0.017963744699954987
1733516000718343400,11.103343505859375,-0.006040447857230902,-0.008059869520366192,0.015229742974042892
1733516000728420600,11.113420654296876,0.0015248693525791168,-0.0089949956163764,0.010877162218093872
1733516000738497500,11.12349755859375,0.00452305655926466,0.00034044909989461303,0.009980742819607258
1733516000748575500,11.133575439453125,0.0018093367107212543,0.015532894060015678,0.011433779262006283
1733516000758652400,11.14365234375,0.0023361099883913994,0.02192634530365467,0.017120692878961563
1733516000768729300,11.153729248046876,0.00015034805983304977,0.011026562191545963,0.013426747173070908
1733516000778806500,11.163806640625,-0.0032318667508661747,0.000079905497841537,0.00455202953889966
1733516000788883500,11.173883544921875,-0.004951593466103077,0.005579867400228977,0.0017090588808059692
1733516000798960400,11.18396044921875,-0.001811726251617074,0.009139182046055794,0.00869825854897499
1733516000809038300,11.194038330078126,-0.0047454833984375,0.004504479933530092,0.016418589279055595
1733516000819115500,11.204115478515625,-0.006150567438453436,-0.004937491379678249,0.021159816533327103
1733516000829192400,11.2141923828125,-0.003475298173725605,-0.006844847928732634,0.017927849665284157
1733516000839269400,11.224269287109376,-0.003979701083153486,0.005781731102615595,0.009086421690881252
1733516000849346300,11.23434619140625,-0.0016264717560261488,0.016561055555939674,-0.004388453438878059
1733516000859423500,11.244423583984375,0.00023587653413414955,0.021081238985061646,-0.014460261911153793
1733516000869501400,11.25450146484375,0.0013690507039427757,0.009007895365357399,-0.01442770566791296
1733516000879578400,11.264578369140626,0.0036447220481932163,0.00006207101978361607,0.001017030794173479
1733516000889655300,11.2746552734375,0.007499778643250465,-0.009481821209192276,0.0177844800055027
1733516000899732700,11.284732666015625,-0.00034110015258193016,-0.025129489600658417,0.032017212361097336
1733516000909810000,11.294809814453124,-0.0027097442653030157,-0.034906573593616486,0.039643656462430954
1733516000919888000,11.304887939453126,-0.006421924568712711,-0.040192414075136185,0.03655918687582016
1733516000929964800,11.31496484375,-0.006484895013272762,-0.031995829194784164,0.02954883687198162
1733516000940041700,11.325041748046875,-0.0027508768253028393,-0.01933169923722744,0.026795392856001854
1733516000950118700,11.33511865234375,-0.0009532051626592875,-0.01399445440620184,0.026466837152838707
1733516000960195800,11.34519580078125,0.003078287933021784,-0.011412253603339195,0.02690972201526165
1733516000970272800,11.355272705078125,0.005163771566003561,-0.016406750306487083,0.021684788167476654
1733516000980350700,11.365350830078125,0.007138238754123449,-0.0141057800501585,0.016699083149433136
1733516000990427600,11.375427734375,0.005291726905852556,-0.008760282769799232,0.011591986753046513
1733516001000504800,11.3855048828125,0.0016120374202728271,-0.00293914508074522,0.008101914077997208
1733516001010581800,11.395581787109375,-0.0012021479196846485,-0.005486901383846998,0.008636034093797207
1733516001020658700,11.40565869140625,-0.003533212700858712,-0.01083532813936472,0.006724949460476637
1733516001030735600,11.415735595703126,-0.006173020228743553,-0.012203214690089226,0.006113722454756498
1733516001040813800,11.425813720703125,-0.004854755476117134,-0.006250783801078796,0.010356936603784561
1733516001050891000,11.43589111328125,-0.003962904214859009,-0.0023704690393060446,0.010153988376259804
1733516001060968000,11.445968017578124,-0.004426294472068548,0.0016583611723035574,0.006984028033912182
1733516001071044900,11.456044921875,-0.007369839586317539,0.013571832329034805,-0.0004869825206696987
1733516001081122000,11.4661220703125,-0.009852172806859016,0.020729344338178635,0.004791934974491596
1733516001091200000,11.476199951171875,-0.011384163983166218,0.02057434804737568,0.009502583183348179
1733516001101277000,11.48627685546875,-0.008276787586510181,0.006743754260241985,0.014058186672627926
1733516001111353900,11.496353759765626,-0.010623074136674404,-0.0028043887577950954,0.018438536673784256
1733516001121430800,11.5064306640625,-0.011751455254852772,-0.004047019872814417,0.0224284864962101
1733516001131508000,11.516508056640625,-0.009339987300336361,-0.005479179322719574,0.024651315063238144
1733516001141585000,11.5265849609375,-0.0015166853554546833,-0.0011512762866914272,0.019171060994267464
1733516001151662800,11.536662841796876,0.0017290743999183178,0.005508401896804571,0.01781104877591133
1733516001161739800,11.54673974609375,0.006423961371183395,0.017597287893295288,0.00907348282635212
1733516001171816700,11.556816650390624,0.006865816656500101,0.02309831604361534,0.004385863430798054
1733516001181894000,11.566893798828126,0.010663483291864395,0.01827186904847622,0.0028098048642277718
1733516001191970800,11.576970703125,0.0069975825026631355,0.013537389226257801,-0.0011590253561735153
1733516001202047700,11.5870478515625,0.002867286093533039,0.007123432122170925,0.003325205296278
1733516001212125700,11.597125732421874,-0.0049376836977899075,-0.006739201955497265,0.007812413852661848
1733516001222203000,11.607202880859376,-0.008618971332907677,-0.021587923169136047,0.007952496409416199
1733516001232279800,11.61727978515625,-0.010104580782353878,-0.018962232396006584,0.00891922228038311
1733516001242356700,11.627356689453125,-0.010382615029811859,-0.012907268479466438,0.005565769970417023
1733516001252433700,11.63743359375,-0.0056325411424040794,-0.006576489191502333,0.0071702455170452595
1733516001262511600,11.64751171875,-0.002459118375554681,-0.00398656539618969,0.006971307564526796
1733516001272588800,11.6575888671875,0.006333372555673122,0.004897827748209238,0.0018773400224745274
1733516001282665700,11.667665771484375,0.007893985137343407,0.00832371786236763,0.007975712418556213
1733516001292742700,11.67774267578125,0.006728397216647863,0.008056250400841236,0.014699753373861313
1733516001302819800,11.68781982421875,-0.0007151381578296423,-0.007686760276556015,0.014824655838310719
1733516001312896800,11.697896728515625,-0.005108957644551992,-0.020075609907507896,0.01257374044507742
1733516001322975000,11.70797509765625,-0.005141714587807655,-0.022694561630487442,0.012087181210517883
1733516001333052000,11.718052001953126,-0.003169424831867218,-0.01917741261422634,0.015623635612428188
1733516001343128800,11.72812890625,0.0027752830646932125,-0.02187652699649334,0.020251411944627762
1733516001353206000,11.7382060546875,0.006602264475077391,-0.03199706971645355,0.022448958829045296
1733516001363283000,11.748282958984374,0.006697073113173246,-0.03292518109083176,0.019724011421203613
1733516001373359900,11.75835986328125,0.0074172792956233025,-0.019985685124993324,0.014767039567232132
1733516001383437800,11.768437744140625,0.006265995092689991,-0.00801663938909769,0.013904175721108913
1733516001393514800,11.7785146484375,0.004010866396129131,-0.01140897162258625,0.00998700875788927
1733516001403592000,11.788592041015624,0.00037218909710645676,-0.019561706110835075,0.006319303065538406
1733516001413668900,11.7986689453125,-0.0029860755894333124,-0.026076331734657288,0.007257628720253706
1733516001423745800,11.808745849609375,-0.005994382314383984,-0.02362915500998497,0.011945857666432858
1733516001433823700,11.81882373046875,-0.010665524750947952,-0.018807323649525642,0.020115386694669724
1733516001443901000,11.82890087890625,-0.008421545848250389,-0.013803776353597641,0.017768608406186104
1733516001453977900,11.838977783203125,-0.004323532804846764,-0.00580035662278533,0.004981254227459431
1733516001464054800,11.8490546875,-0.0029959469102323055,0.002181669697165489,-0.0072780754417181015
1733516001474131700,11.859131591796874,0.0005773170851171017,0.013455452397465706,-0.009165788069367409
1733516001484209000,11.869208984375,-0.0013257779646664858,0.015136172994971275,-0.003042380791157484
1733516001494286800,11.879286865234375,-0.003318106522783637,0.0011090373154729605,0.00741568161174655
1733516001504363800,11.88936376953125,-0.008842035196721554,-0.010229370556771755,0.010006404481828213
1733516001514440700,11.899440673828124,-0.012227615341544151,-0.01441301591694355,0.013942022807896137
1733516001524518000,11.909517822265625,-0.013736562803387642,-0.005222979001700878,0.013307924382388592
1733516001534594800,11.9195947265625,-0.012917395681142807,0.0022267752792686224,0.007869641296565533
1733516001544671700,11.929671630859374,-0.007496263831853867,0.0014440722297877073,0.005270396359264851
1733516001554749700,11.939749755859374,-0.0008057223167270422,0.0024055526591837406,0.0033436922822147608
1733516001564826600,11.94982666015625,-0.001518384087830782,0.01621563918888569,0.003183636348694563
1733516001574903800,11.95990380859375,-0.0021226373501122,0.01935817115008831,0.004203797783702612
1733516001584980700,11.969980712890624,-0.002080292906612158,0.01015535183250904,0.0061870538629591465
1733516001595057700,11.9800576171875,-0.006985179148614407,-0.0025809500366449356,0.006655285134911537
1733516001605136000,11.990135986328125,-0.00950665958225727,-0.015322311781346798,0.014533448964357376
1733516001615212800,12.000212890625,-0.006834507919847965,-0.027149496600031853,0.023427482694387436
1733516001625290000,12.0102900390625,-0.008346118032932281,-0.035405561327934265,0.025113262236118317
1733516001635367000,12.020366943359376,-0.0027374704368412495,-0.04549432918429375,0.023720482364296913
1733516001645443800,12.03044384765625,0.0007443465292453766,-0.04846534878015518,0.021194206550717354
1733516001655521000,12.04052099609375,0.0007161744870245457,-0.037994153797626495,0.012854170985519886
