time,seconds_elapsed,z,y,x
1733714507801753900,0.04775390625,0.04303077608346939,0.039602264761924744,-0.09046940505504608
1733714507811773000,0.05777294921875,0.04331653192639351,0.02097531594336033,-0.06939181685447693
1733714507821792000,0.0677919921875,0.02523128129541874,0.016371291130781174,-0.03521529957652092
1733714507831810800,0.077810791015625,0.021764112636446953,0.025423642247915268,-0.028944887220859528
1733714507841830000,0.087829833984375,0.022573009133338928,0.04307830333709717,-0.0536208301782608
1733714507851849000,0.097848876953125,0.020157787948846817,0.05253811925649643,-0.07168078422546387
1733714507861868000,0.107867919921875,0.022231753915548325,0.028165850788354874,-0.07931794971227646
1733714507871886800,0.117886962890625,0.018696937710046768,-0.0027896673418581486,-0.07928066700696945
1733714507881906000,0.127906005859375,0.005308525171130896,-0.038226187229156494,-0.0729326456785202
1733714507891924200,0.13792431640625,-0.0026250318624079227,-0.07310747355222702,-0.04839374125003815
1733714507901943000,0.147943115234375,0.005300470162183046,-0.11200468987226486,-0.0511808842420578
1733714507911962000,0.157962158203125,0.005119109060615301,-0.14519672095775604,-0.061447903513908386
1733714507921981200,0.167981201171875,0.004356701392680407,-0.1625998467206955,-0.06200692430138588
1733714507932000000,0.178,0.03644326701760292,-0.20470762252807617,-0.07082225382328033
1733714507942019000,0.18801904296875,0.024570796638727188,-0.2761610746383667,-0.07416729629039764
1733714507952038100,0.1980380859375,0.04282969608902931,-0.3579619228839874,-0.10859477519989014
1733714507962057200,0.20805712890625,0.07208665460348129,-0.45843762159347534,-0.1421581506729126
1733714507972076000,0.218075927734375,0.138838529586792,-0.637261688709259,-0.16937778890132904
1733714507982095000,0.22809521484375,0.24752742052078247,-0.8811659812927246,-0.20989760756492615
1733714507992114200,0.2381142578125,0.31511202454566956,-1.103541374206543,-0.24276980757713318
1733714508002133200,0.24813330078125,0.3537324070930481,-1.2826251983642578,-0.2818390429019928
1733714508012152000,0.258152099609375,0.35511085391044617,-1.3721063137054443,-0.3784113824367523
1733714508022171100,0.268171142578125,0.344194233417511,-1.399741768836975,-0.5607317090034485
1733714508032190200,0.278190185546875,0.6773828268051147,-1.534233808517456,-0.7071024775505066
1733714508042209000,0.288208984375,1.2564842700958252,-1.7095204591751099,-0.8657046556472778
1733714508052228000,0.29822802734375,1.9909931421279907,-1.772579312324524,-1.088256597518921
1733714508062247000,0.308246826171875,2.849259853363037,-1.683013916015625,-1.3414561748504639
1733714508072266000,0.318265869140625,3.6939902305603027,-1.4142881631851196,-1.5548908710479736
1733714508082284800,0.328284912109375,4.4323859214782715,-0.9363269805908203,-1.6848574876785278
1733714508092304000,0.338303955078125,5.051416397094727,-0.3920450210571289,-1.7230597734451294
1733714508102323000,0.348322998046875,5.6430253982543945,0.1385665088891983,-1.6840029954910278
1733714508112342000,0.358342041015625,6.264673233032227,0.6666077375411987,-1.6757019758224487
1733714508122360800,0.36836083984375,6.712889671325684,0.8202663660049438,-1.7548753023147583
1733714508132380000,0.3783798828125,6.789217472076416,0.8830757141113281,-1.8613297939300537
1733714508142399000,0.38839892578125,6.373809814453125,1.0467759370803833,-1.9494608640670776
1733714508152417000,0.3984169921875,5.627213478088379,1.102760672569275,-1.950852632522583
1733714508162436000,0.40843603515625,4.689080715179443,1.1042780876159668,-1.838257908821106
1733714508172455200,0.418455078125,3.8089241981506348,0.9764595627784729,-1.6672619581222534
1733714508182474200,0.42847412109375,3.06538462638855,1.2615454196929932,-1.755580186843872
1733714508192493000,0.4384931640625,2.448575496673584,1.516718864440918,-1.8624002933502197
1733714508202512100,0.44851220703125,1.973402500152588,1.573063611984253,-1.9187616109848022
1733714508212531200,0.45853125,1.6027286052703857,1.437731385231018,-1.8524878025054932
1733714508222550300,0.46855029296875,1.204765796661377,1.100093960762024,-1.6780816316604614
1733714508232569000,0.478569091796875,0.4220574200153351,0.9962152242660522,-1.528973937034607
1733714508242588200,0.488588134765625,-0.46693912148475647,1.1968536376953125,-1.2173805236816406
1733714508252607200,0.498607177734375,-0.9648093581199646,1.2516697645187378,-0.6785670518875122
1733714508262626000,0.5086259765625,-0.9219083189964294,0.9790412783622742,-0.15348736941814423
1733714508272645000,0.51864501953125,-0.23395735025405884,0.2069392055273056,0.2739664912223816
1733714508282664000,0.528663818359375,0.06242051720619202,-0.45882707834243774,0.6236200928688049
1733714508292683000,0.53868310546875,0.09551934897899628,-0.8026022911071777,0.8008007407188416
1733714508302701800,0.548701904296875,0.030106227844953537,-0.7589406967163086,0.7270413041114807
1733714508312721000,0.558720947265625,-0.04280047118663788,-0.45330142974853516,0.4498025178909302
1733714508322740000,0.568739990234375,-0.04979507252573967,0.015482885763049126,0.07149699330329895
1733714508332759000,0.578759033203125,-0.04331400245428085,0.3167133033275604,-0.23427650332450867
1733714508342777900,0.58877783203125,-0.03722416236996651,0.3836318254470825,-0.30827900767326355
1733714508352797000,0.598796875,-0.007624459452927113,0.3144327700138092,-0.19155371189117432
1733714508362816000,0.60881591796875,0.011627436615526676,0.24728140234947205,-0.0376361608505249
1733714508372835000,0.6188349609375,0.003220104146748781,0.23664768040180206,0.007996837608516216
1733714508382854000,0.62885400390625,0.005002071149647236,0.2469937801361084,-0.05066271126270294
1733714508392873000,0.638873046875,0.015721825882792473,0.28620216250419617,-0.10851722210645676
1733714508402892000,0.64889208984375,0.019314033910632133,0.3364105224609375,-0.10599332302808762
1733714508412910800,0.658910888671875,0.02188265323638916,0.34600189328193665,-0.07453952729701996
1733714508422930000,0.668929931640625,0.016630830243229866,0.3186958134174347,-0.04675517603754997
1733714508432949000,0.678948974609375,0.004658323712646961,0.2721768021583557,-0.015744531527161598
1733714508442968000,0.688968017578125,-0.0027741389349102974,0.2173544019460678,0.014903212897479534
1733714508452987000,0.69898681640625,-0.0064298599027097225,0.19476227462291718,0.03445294499397278
1733714508463006000,0.709005859375,-0.0041386899538338184,0.2098155915737152,0.03193260729312897
1733714508473025000,0.71902490234375,-0.001727197552099824,0.24354878067970276,0.009695210494101048
1733714508483044000,0.729044189453125,0.0021105280611664057,0.2781694531440735,-0.01592688262462616
1733714508493063000,0.73906298828125,0.004946528468281031,0.30199089646339417,-0.03673602640628815
1733714508503082000,0.74908203125,0.008756566792726517,0.3095288872718811,-0.04174055531620979
1733714508513101000,0.75910107421875,0.01298566721379757,0.31101787090301514,-0.047472476959228516
1733714508523118800,0.769118896484375,0.018857654184103012,0.30565282702445984,-0.06140114367008209
1733714508533138000,0.779137939453125,0.019702674821019173,0.29381057620048523,-0.06701641529798508
1733714508543157000,0.789156982421875,0.021353302523493767,0.2654918432235718,-0.06512104719877243
1733714508553175800,0.79917578125,0.01974794827401638,0.2302587479352951,-0.054810620844364166
1733714508563195000,0.80919482421875,0.014116857200860977,0.20704470574855804,-0.046899713575839996
1733714508573214000,0.8192138671875,0.007882930338382721,0.16548393666744232,-0.03433997929096222
1733714508583233000,0.82923291015625,0.005654826760292053,0.11372984945774078,-0.02131393738090992
1733714508593251800,0.839251953125,0.01408426370471716,0.13213495910167694,-0.028793424367904663
1733714508603271000,0.84927099609375,0.0258709155023098,0.21079908311367035,-0.05797434225678444
1733714508613290000,0.8592900390625,0.03515496477484703,0.28328391909599304,-0.08748377114534378
1733714508623309000,0.86930908203125,0.037359870970249176,0.31671372056007385,-0.11157174408435822
1733714508633327900,0.879327880859375,0.04119056090712547,0.30214276909828186,-0.10789525508880615
1733714508643347000,0.889346923828125,0.04196072742342949,0.25524812936782837,-0.09345166385173798
1733714508653366000,0.899365966796875,0.0448441319167614,0.21311107277870178,-0.08124399930238724
1733714508663385000,0.909385009765625,0.0437873899936676,0.1907077580690384,-0.07837630808353424
1733714508673404000,0.91940380859375,0.0409923791885376,0.18421082198619843,-0.08030255138874054
1733714508683423000,0.929423095703125,0.04232494905591011,0.20856896042823792,-0.08781696856021881
1733714508693442000,0.939442138671875,0.04342297092080116,0.24339112639427185,-0.08594609797000885
1733714508703460900,0.9494609375,0.04812762513756752,0.2845010459423065,-0.08694605529308319
1733714508713480000,0.95947998046875,0.04711109772324562,0.31486931443214417,-0.09017513692378998
1733714508723499000,0.9694990234375,0.04425937309861183,0.34408947825431824,-0.09142832458019257
1733714508733518000,0.97951806640625,0.04041590169072151,0.36341044306755066,-0.09777597337961197
1733714508743537000,0.989536865234375,0.0400887057185173,0.38421809673309326,-0.09839311242103577
1733714508753556000,0.999555908203125,0.03750224411487579,0.40099069476127625,-0.09639254212379456
1733714508763575000,1.009574951171875,0.034294288605451584,0.4148079752922058,-0.09225404262542725
1733714508773594000,1.019593994140625,0.033027153462171555,0.42801856994628906,-0.08596765249967575
1733714508783613000,1.029613037109375,0.03527682274580002,0.44633743166923523,-0.07627283781766891
1733714508793632000,1.039632080078125,0.040849220007658005,0.47333815693855286,-0.06401536613702774
1733714508803651000,1.049651123046875,0.033523477613925934,0.5148993730545044,-0.047763120383024216
1733714508813670100,1.059670166015625,0.03970813751220703,0.5406068563461304,-0.03166670724749565
1733714508823689000,1.06968896484375,0.03525391221046448,0.5799201726913452,-0.01841343194246292
1733714508833708000,1.0797080078125,0.053117066621780396,0.5834161043167114,-0.01587970182299614
1733714508843727000,1.08972705078125,0.02208634279668331,0.6144120693206787,-0.012663147412240505
1733714508853746700,1.09974658203125,0.0463155135512352,0.5726113319396973,-0.013308963738381863
1733714508863765800,1.109765869140625,0.05550945922732353,0.5583817958831787,-0.018276767805218697
1733714508873784800,1.119784912109375,0.034415096044540405,0.5370131731033325,-0.013055109418928623
1733714508883803600,1.1298037109375,0.03823763132095337,0.4882102906703949,-0.0157957561314106
1733714508893822700,1.13982275390625,0.03373023122549057,0.43212729692459106,-0.003434693906456232
1733714508903841800,1.149841796875,0.03571852296590805,0.37656456232070923,0.006301588378846645
1733714508913860900,1.15986083984375,0.031540289521217346,0.3060499131679535,0.02242835983633995
1733714508923879700,1.169879638671875,0.03266865015029907,0.25162142515182495,0.026070797815918922
1733714508933898800,1.179898681640625,0.02928323857486248,0.20430369675159454,0.03243947774171829
1733714508943917800,1.189917724609375,0.03115944378077984,0.16572120785713196,0.03910394012928009
1733714508953937000,1.19993701171875,0.02514176443219185,0.13237017393112183,0.041726090013980865
1733714508963955700,1.209955810546875,0.021603692322969437,0.0918375551700592,0.051173146814107895
1733714508973974800,1.219974853515625,0.011590738780796528,0.05484864115715027,0.060435619205236435
1733714508983993900,1.229993896484375,-0.00010986742563545704,0.009749294258654118,0.07745224982500076
1733714508994012700,1.2400126953125,-0.009180860593914986,-0.037540189921855927,0.09881133586168289
1733714509004030700,1.25003076171875,-0.022414114326238632,-0.08669180423021317,0.11927437037229538
1733714509014049800,1.2600498046875,-0.02588927373290062,-0.13117511570453644,0.13173022866249084
1733714509024068600,1.270068603515625,-0.031597673892974854,-0.1780979037284851,0.1365656852722168
1733714509034087700,1.280087646484375,-0.03427335247397423,-0.22218918800354004,0.1339949369430542
1733714509044106800,1.290106689453125,-0.03872861713171005,-0.25989246368408203,0.13996043801307678
1733714509054125800,1.300125732421875,-0.04238273948431015,-0.2815279960632324,0.14497756958007812
1733714509064144600,1.31014453125,-0.03998058661818504,-0.29319965839385986,0.1527898758649826
1733714509074163700,1.320163818359375,-0.03694511577486992,-0.3027726411819458,0.16296795010566711
1733714509084182800,1.330182861328125,-0.032119572162628174,-0.2984779179096222,0.17021264135837555
1733714509094201900,1.340201904296875,-0.029862012714147568,-0.29093343019485474,0.1751144528388977
1733714509104220700,1.350220703125,-0.026469850912690163,-0.28169065713882446,0.17526103556156158
1733714509114239700,1.36023974609375,-0.02860863506793976,-0.2578186094760895,0.17027533054351807
1733714509124258800,1.3702587890625,-0.023236975073814392,-0.22773754596710205,0.15702661871910095
1733714509134278000,1.38027783203125,-0.018184423446655273,-0.1921425312757492,0.14698490500450134
1733714509144296700,1.390296630859375,-0.010106503963470459,-0.1579740345478058,0.14019380509853363
1733714509154315800,1.400315673828125,-0.00554024800658226,-0.13289397954940796,0.12420845031738281
1733714509164334800,1.4103349609375,-0.0006456454284489155,-0.10855124145746231,0.11231639981269836
1733714509174353700,1.420353759765625,0.009085012599825859,-0.07075778394937515,0.09311127662658691
1733714509184372700,1.430372802734375,0.015387716703116894,-0.022671645507216454,0.08298777788877487
1733714509194391800,1.440391845703125,0.026072852313518524,0.021063318476080894,0.07280651479959488
1733714509204411000,1.450410888671875,0.029154881834983826,0.048783134669065475,0.07405740022659302
1733714509214429700,1.4604296875,0.025301286950707436,0.052329398691654205,0.07644199579954147
1733714509224448800,1.47044873046875,0.03218403831124306,0.0618051253259182,0.08233614265918732
1733714509234467800,1.4804677734375,0.03658198192715645,0.08767054229974747,0.0833050012588501
1733714509244487000,1.49048681640625,0.037602100521326065,0.11064240336418152,0.08478809148073196
1733714509254505700,1.500505615234375,0.03439432010054588,0.13416503369808197,0.07249121367931366
1733714509264524800,1.51052490234375,0.0493403896689415,0.17654769122600555,0.07123476266860962
1733714509274543900,1.5205439453125,0.057923492044210434,0.22335806488990784,0.0574965737760067
1733714509284563000,1.53056298828125,0.058151181787252426,0.26561594009399414,0.0466366708278656
1733714509294581800,1.540581787109375,0.06461706757545471,0.2918728291988373,0.03659628704190254
1733714509304600800,1.550600830078125,0.06635577976703644,0.30420905351638794,0.021518556401133537
1733714509314620000,1.560619873046875,0.06644899398088455,0.31035083532333374,0.006224288605153561
1733714509324638700,1.570638671875,0.06720815598964691,0.307557612657547,-0.00006797429523430765
1733714509334657800,1.58065771484375,0.06507150828838348,0.30831581354141235,-0.0018818533280864358
1733714509344676600,1.590676513671875,0.060481905937194824,0.30854275822639465,-0.005157430190593004
1733714509354695700,1.60069580078125,0.0621383897960186,0.32067957520484924,0.0006762244156561792
1733714509364714500,1.610714599609375,0.06475411355495453,0.32878947257995605,0.004952957853674889
1733714509374733600,1.620733642578125,0.06789132207632065,0.33065685629844666,0.00793702993541956
1733714509384752600,1.630752685546875,0.0640832856297493,0.3206941485404968,0.012690475210547447
1733714509394771700,1.640771728515625,0.06390272080898285,0.3059751093387604,0.014760816469788551
1733714509404790500,1.65079052734375,0.06370209902524948,0.2913426458835602,0.02228456735610962
1733714509414809600,1.6608095703125,0.059442371129989624,0.2752068042755127,0.021843548864126205
1733714509424828700,1.67082861328125,0.049226585775613785,0.25118598341941833,0.030285783112049103
1733714509434847500,1.680847412109375,0.045494165271520615,0.21607699990272522,0.03479371219873428
1733714509444866600,1.690866455078125,0.03909805789589882,0.1779525727033615,0.03421677276492119
1733714509454885600,1.7008857421875,0.038173940032720566,0.15016569197177887,0.029494458809494972
1733714509464904700,1.71090478515625,0.040200408548116684,0.12913666665554047,0.029444364830851555
1733714509474923500,1.720923583984375,0.04771292209625244,0.12496162950992584,0.022210687398910522
1733714509484942600,1.730942626953125,0.056101955473423004,0.1297145038843155,0.013352789916098118
1733714509494961700,1.740961669921875,0.0653681606054306,0.1407857984304428,0.013043863698840141
1733714509504980700,1.750980712890625,0.07328831404447556,0.14805279672145844,0.026322973892092705
1733714509514999600,1.76099951171875,0.06876493990421295,0.15327924489974976,0.04974760487675667
1733714509525018600,1.7710185546875,0.06659658998250961,0.15255114436149597,0.06831862032413483
1733714509535037700,1.78103759765625,0.060699284076690674,0.1475105732679367,0.0768500566482544
1733714509545056800,1.791056884765625,0.05233953520655632,0.1369096040725708,0.07939983159303665
1733714509555075600,1.80107568359375,0.0384996198117733,0.11211211234331131,0.07557952404022217
1733714509565094700,1.8110947265625,0.029217611998319626,0.07165732979774475,0.0687880888581276
1733714509575113700,1.82111376953125,0.018134601414203644,0.030476607382297516,0.07110290974378586
1733714509585132500,1.831132568359375,0.011511845514178276,0.002230272861197591,0.06401260197162628
1733714509595151600,1.841151611328125,0.014104698784649372,-0.01261977944523096,0.049849916249513626
1733714509605170700,1.851170654296875,0.009639296680688858,-0.0046182479709386826,0.027062000706791878
1733714509615189800,1.861189697265625,0.007696520537137985,0.02072039805352688,0.011425250209867954
1733714509625208600,1.87120849609375,0.010430614463984966,0.05649973452091217,0.00406518392264843
1733714509635227600,1.8812275390625,0.008197021670639515,0.08559928834438324,-0.008262588642537594
1733714509645246700,1.891246826171875,0.005238889716565609,0.09725821018218994,-0.025890138000249863
1733714509655265800,1.901265869140625,-0.00003736536018550396,0.10144603252410889,-0.04593202471733093
1733714509665284600,1.91128466796875,-0.004099864978343248,0.11147105693817139,-0.05970117822289467
1733714509675303700,1.9213037109375,-0.007423489820212126,0.1310516744852066,-0.06805045157670975
1733714509685322800,1.93132275390625,-0.005391597282141447,0.16020150482654572,-0.07903894037008286
1733714509695340500,1.941340576171875,-0.004604366607964039,0.19818243384361267,-0.08333542197942734
1733714509705359600,1.951359619140625,-0.006908093579113483,0.22940956056118011,-0.08114027976989746
1733714509715378700,1.961378662109375,-0.009127305820584297,0.24954251945018768,-0.06897948682308197
1733714509725397800,1.971397705078125,-0.00958225503563881,0.2504217028617859,-0.05329111963510513
1733714509735416600,1.98141650390625,-0.00030220358166843653,0.2546961009502411,-0.032950691878795624
1733714509745435600,1.991435546875,0.003200472565367818,0.2748492658138275,-0.017699623480439186
1733714509755454700,2.001454833984375,0.016164474189281464,0.2852579653263092,0.005076528526842594
1733714509765473500,2.0114736328125,0.03408044949173927,0.2657061219215393,0.02316935732960701
1733714509775492600,2.02149267578125,0.030711550265550613,0.2504448890686035,0.056778185069561005
1733714509785511700,2.03151171875,0.025009198114275932,0.2449151575565338,0.09568633139133453
1733714509795530800,2.04153076171875,0.013228705152869225,0.2755417823791504,0.1064433753490448
1733714509805549600,2.051549560546875,-0.0012612943537533283,0.36441540718078613,0.08640265464782715
1733714509815568600,2.061568603515625,-0.012460419908165932,0.5243027806282043,0.03368191793560982
1733714509825587700,2.071587646484375,-0.02831033244729042,0.7098413109779358,-0.03636222705245018
1733714509835606800,2.081606689453125,-0.06237349659204483,0.8302026391029358,-0.10955654084682465
1733714509845625600,2.09162548828125,-0.10938509553670883,0.8103857040405273,-0.17415757477283478
1733714509855644400,2.10164453125,-0.15389743447303772,0.7201745510101318,-0.21057575941085815
1733714509865663500,2.11166357421875,-0.17682112753391266,0.714682936668396,-0.20605993270874023
1733714509875682600,2.1216826171875,-0.16794854402542114,0.8896803259849548,-0.19099709391593933
1733714509885701600,2.13170166015625,-0.15062299370765686,1.182222843170166,-0.2037361115217209
1733714509895720400,2.141720458984375,-0.138169527053833,1.3748165369033813,-0.23476886749267578
1733714509905739500,2.151739501953125,-0.12628614902496338,1.3483535051345825,-0.27090099453926086
1733714509915758600,2.161758544921875,-0.12932002544403076,1.231009840965271,-0.30187782645225525
1733714509925777400,2.17177734375,-0.13543492555618286,1.1350531578063965,-0.3267194926738739
1733714509935796500,2.18179638671875,-0.1402997225522995,1.1068848371505737,-0.33435264229774475
1733714509945815600,2.191815673828125,-0.14520420134067535,1.1201883554458618,-0.3192894160747528
1733714509955834600,2.201834716796875,-0.13436780869960785,1.2369135618209839,-0.2814754545688629
1733714509965853400,2.211853515625,-0.11629495024681091,1.3611947298049927,-0.22024613618850708
1733714509975872500,2.22187255859375,-0.11150578409433365,1.4710583686828613,-0.14468932151794434
1733714509985891600,2.2318916015625,-0.12217822670936584,1.5179978609085083,-0.06576957553625107
1733714509995910700,2.24191064453125,-0.08099563419818878,1.5705851316452026,-0.03805859386920929
1733714510005929500,2.251929443359375,-0.06090296059846878,1.447223424911499,-0.0405874066054821
1733714510015948500,2.261948486328125,-0.0416906476020813,1.2569248676300049,-0.031210681423544884
1733714510025967600,2.271967529296875,0.011799889616668224,1.0197727680206299,-0.022532222792506218
1733714510035986400,2.281986328125,0.04868680238723755,0.7348247170448303,0.030557360500097275
1733714510046005500,2.292005615234375,0.06405016034841537,0.4865322709083557,0.08837110549211502
1733714510056024600,2.302024658203125,0.0640147402882576,0.3735993504524231,0.10723747313022614
1733714510066043600,2.312043701171875,0.09984976053237915,0.2613878846168518,0.06225978583097458
1733714510076062500,2.3220625,0.08830443024635315,0.1166253536939621,0.008517461828887463
1733714510086081500,2.33208154296875,0.06708993762731552,-0.016922734677791595,-0.004953575320541859
1733714510096100600,2.3421005859375,0.04150308296084404,-0.12888334691524506,0.0010710277128964663
1733714510106119700,2.35211962890625,0.018821492791175842,-0.21025818586349487,-0.010237948969006538
1733714510116138500,2.362138427734375,-0.0053088772110641,-0.25089454650878906,-0.02227730117738247
1733714510126157600,2.372157470703125,-0.023346206173300743,-0.26202288269996643,-0.014840591698884964
1733714510136176600,2.3821767578125,-0.04650292545557022,-0.25259849429130554,0.0032039228826761246
1733714510146195700,2.39219580078125,-0.0573897659778595,-0.24229910969734192,0.002598406281322241
1733714510156214500,2.402214599609375,-0.05768644064664841,-0.24491353332996368,-0.011443909257650375
1733714510166233600,2.412233642578125,-0.04998704046010971,-0.2582153081893921,-0.026909492909908295
1733714510176252700,2.422252685546875,-0.028248455375432968,-0.2896136939525604,-0.021906744688749313
1733714510186271500,2.432271484375,0.0016070916317403316,-0.32945215702056885,-0.0015934269176796079
1733714510196290600,2.44229052734375,0.03229735791683197,-0.3601682782173157,0.026557782664895058
1733714510206309600,2.4523095703125,0.05192660540342331,-0.3791448473930359,0.02865610644221306
1733714510216328700,2.46232861328125,0.05975496768951416,-0.38708773255348206,0.00835669320076704
1733714510226347500,2.472347412109375,0.059882279485464096,-0.3669658303260803,-0.01803329959511757
1733714510236366600,2.48236669921875,0.0437626987695694,-0.3243512511253357,-0.04267286881804466
1733714510246385700,2.4923857421875,0.022183287888765335,-0.28862038254737854,-0.05701989307999611
1733714510256404700,2.50240478515625,0.0026756329461932182,-0.24069547653198242,-0.05604756996035576
1733714510266423600,2.512423583984375,-0.02250172197818756,-0.1884280890226364,-0.04201112687587738
1733714510276442600,2.522442626953125,-0.0372987799346447,-0.12562355399131775,-0.042336564511060715
1733714510286461700,2.532461669921875,-0.04732317849993706,-0.07428494840860367,-0.05435417965054512
1733714510296480800,2.542480712890625,-0.05548044294118881,-0.012348610907793045,-0.07580194622278214
1733714510306499600,2.55249951171875,-0.05453599989414215,0.03401615843176842,-0.08803246915340424
1733714510316518700,2.5625185546875,-0.04320212081074715,0.06576397269964218,-0.09427092969417572
1733714510326537700,2.572537841796875,-0.028931576758623123,0.09318702667951584,-0.08769334852695465
1733714510336556500,2.582556640625,-0.018428603187203407,0.1035619005560875,-0.08230577409267426
1733714510346575600,2.59257568359375,-0.008363373577594757,0.10394315421581268,-0.08441672474145889
1733714510356594700,2.6025947265625,-0.008487744256854057,0.0902521088719368,-0.08862745016813278
1733714510366613500,2.612613525390625,-0.015298671089112759,0.07458917051553726,-0.09063458442687988
1733714510376632600,2.622632568359375,-0.019758401438593864,0.06131090968847275,-0.08137717097997665
1733714510386651400,2.6326513671875,-0.0226263590157032,0.058827780187129974,-0.06064979359507561
1733714510396670500,2.64267041015625,-0.02214272879064083,0.07034888118505478,-0.051544178277254105
1733714510406689500,2.652689453125,-0.01866527460515499,0.08193430304527283,-0.04815388843417168
1733714510416708400,2.662708251953125,-0.012502454221248627,0.07481540739536285,-0.05301016569137573
1733714510426727400,2.6727275390625,-0.010292558930814266,0.05314105376601219,-0.06171293929219246
1733714510436746500,2.68274658203125,-0.007170801050961018,0.02177567593753338,-0.06396517902612686
1733714510446765300,2.692765380859375,-0.008627109229564667,0.00413087010383606,-0.05838489904999733
1733714510456784400,2.702784423828125,-0.009301155805587769,0.0010059168562293053,-0.05467671528458595
1733714510466803500,2.712803466796875,-0.011419162154197693,0.016184117645025253,-0.05370822176337242
1733714510476822500,2.722822509765625,-0.011258041486144066,0.03362010046839714,-0.0689188614487648
1733714510486841300,2.73284130859375,-0.013125555589795113,0.05158321186900139,-0.0807977095246315
1733714510496860400,2.7428603515625,-0.009965182282030582,0.06149602681398392,-0.08783378452062607
1733714510506879500,2.75287939453125,-0.002351273549720645,0.06368163228034973,-0.08974147588014603
1733714510516898600,2.762898681640625,0.0059242332354187965,0.06386911869049072,-0.09812883287668228
1733714510526917400,2.77291748046875,0.011518111452460289,0.05995769798755646,-0.10671364516019821
1733714510536936400,2.7829365234375,0.015705132856965065,0.050317052751779556,-0.11167377978563309
1733714510546955500,2.79295556640625,0.014035863801836967,0.040319815278053284,-0.10324780642986298
1733714510556974600,2.802974609375,0.005561684723943472,0.035576723515987396,-0.0812266618013382
1733714510566993400,2.812993408203125,0.00009358581155538559,0.044169336557388306,-0.06581816077232361
1733714510577012500,2.823012451171875,-0.006802137475460768,0.06712205708026886,-0.058813512325286865
1733714510587031600,2.833031494140625,-0.009244700893759727,0.09003108739852905,-0.060337428003549576
1733714510597050400,2.84305029296875,-0.009600233286619186,0.10726173967123032,-0.06119043752551079
1733714510607069400,2.8530693359375,-0.01058134250342846,0.1329692155122757,-0.047629088163375854
1733714510617088500,2.863088623046875,-0.010323015041649342,0.15468011796474457,-0.03132015839219093
1733714510627107600,2.873107666015625,-0.006804247386753559,0.1733115315437317,-0.019885949790477753
1733714510637126400,2.88312646484375,-0.004407402593642473,0.18373806774616241,-0.008959266357123852
1733714510647145500,2.8931455078125,-0.0026292153634130955,0.1888318508863449,-0.004084783606231213
1733714510657164500,2.90316455078125,0.0007929467828944325,0.19575899839401245,-0.009291530586779118
1733714510667183600,2.91318359375,-0.0028641209937632084,0.19660253822803497,-0.019869575276970863
1733714510677202400,2.923202392578125,-0.0012041726149618626,0.19444884359836578,-0.025790315121412277
1733714510687221500,2.933221435546875,-0.0013669049367308617,0.18285809457302094,-0.02380383387207985
1733714510697240600,2.943240478515625,-0.00516510521993041,0.17589633166790009,-0.02079525962471962
1733714510707259600,2.953259765625,-0.0057472726330161095,0.1719665676355362,-0.01766631193459034
1733714510717278500,2.963278564453125,-0.0097566619515419,0.17265740036964417,-0.01736404374241829
1733714510727298600,2.973298583984375,-0.010400522500276566,0.1838861107826233,-0.01907874085009098
1733714510737317600,2.983317626953125,-0.011355532333254814,0.18677031993865967,-0.031381212174892426
1733714510747336700,2.993336669921875,-0.011934053152799606,0.18861274421215057,-0.040696192532777786
1733714510757355500,3.00335546875,-0.011689042672514915,0.1855141669511795,-0.04132123664021492
1733714510767374600,3.01337451171875,-0.008397461846470833,0.17962059378623962,-0.037789564579725266
1733714510777393700,3.0233935546875,-0.008787348866462708,0.16568401455879211,-0.030286641791462898
1733714510787412700,3.033412841796875,-0.007255673408508301,0.14281600713729858,-0.030150707811117172
1733714510797431600,3.043431640625,-0.0033568055368959904,0.12013174593448639,-0.03529912978410721
1733714510807450600,3.05345068359375,-0.00395567249506712,0.10137099027633667,-0.028958270326256752
1733714510817469700,3.0634697265625,-0.000939642486628145,0.09943141043186188,-0.014402762986719608
1733714510827488500,3.073488525390625,-0.0031091407872736454,0.10300778597593307,0.001292899250984192
1733714510837507600,3.083507568359375,-0.004218880087137222,0.1007307842373848,0.0026724166236817837
1733714510847526700,3.093526611328125,-0.008215118199586868,0.08657807111740112,-0.006471632979810238
1733714510857545500,3.10354541015625,-0.0098841218277812,0.07151523232460022,-0.015467524528503418
1733714510867564500,3.113564453125,-0.010329052805900574,0.06180901452898979,-0.012925494462251663
1733714510877583400,3.123583251953125,-0.014957893639802933,0.0627501830458641,-0.003892318345606327
1733714510887602400,3.1336025390625,-0.012659156695008278,0.06765767186880112,-0.001643893076106906
1733714510897621500,3.14362158203125,-0.016915421932935715,0.07985255867242813,-0.0028748060576617718
1733714510907640300,3.153640380859375,-0.01883777044713497,0.08572041243314743,-0.012358997017145157
1733714510917659400,3.163659423828125,-0.019326725974678993,0.07979141175746918,-0.024011125788092613
1733714510927678500,3.173678466796875,-0.02050597034394741,0.06810177862644196,-0.015920273959636688
1733714510937697500,3.183697509765625,-0.018895024433732033,0.06237012520432472,-0.008909503929316998
1733714510947716400,3.19371630859375,-0.014027118682861328,0.0615493543446064,-0.008011163212358952
1733714510957735400,3.2037353515625,-0.00967577937990427,0.056823309510946274,-0.014623260125517845
1733714510967754200,3.213754150390625,-0.0059098913334310055,0.052562274038791656,-0.017509005963802338
1733714510977773300,3.223773193359375,-0.005517607554793358,0.05124028027057648,-0.01237842533737421
1733714510987792100,3.233792236328125,-0.009212398901581764,0.04856368899345398,-0.007010682485997677
1733714510997811200,3.243811279296875,-0.00807469617575407,0.04537056013941765,-0.010271988809108734
1733714511007830300,3.253830322265625,-0.009967412799596786,0.040044140070676804,-0.008897334337234497
1733714511017849300,3.263849365234375,-0.01067794393748045,0.026169605553150177,-0.0017728458624333143
1733714511027868200,3.2738681640625,-0.01221555843949318,0.018611101433634758,-0.00026282062754034996
1733714511037887200,3.28388720703125,-0.012624353170394897,0.014252837747335434,-0.00894392654299736
1733714511047906300,3.29390625,-0.012584401294589043,0.01898026093840599,-0.013531320728361607
1733714511057925000,3.303925048828125,-0.010203802026808262,0.021244481205940247,-0.009983723983168602
1733714511067944200,3.313944091796875,-0.01109622698277235,0.026757225394248962,-0.008430302143096924
1733714511077963300,3.32396337890625,-0.010517521761357784,0.01988706737756729,-0.011759785935282707
1733714511087982300,3.333982421875,-0.01377953216433525,0.01683330163359642,-0.014535585418343544
1733714511098001200,3.344001220703125,-0.008827383629977703,0.015096919611096382,-0.00625501899048686
1733714511108020200,3.354020263671875,-0.008935349993407726,0.014593360014259815,-0.0034964994993060827
1733714511118039300,3.364039306640625,-0.007223736494779587,0.02241852693259716,-0.004651512950658798
1733714511128058400,3.374058349609375,-0.00274846563115716,0.0368042029440403,-0.0062352814711630344
1733714511138077200,3.3840771484375,-0.004926664754748344,0.049468863755464554,-0.016773410141468048
1733714511148096300,3.39409619140625,-0.007900704629719257,0.05374405160546303,-0.017292138189077377
1733714511158115300,3.404115234375,-0.007384051568806171,0.060819003731012344,-0.009873369708657265
1733714511168134400,3.414134521484375,-0.013483675196766853,0.06849811971187592,-0.003652616636827588
1733714511178153200,3.4241533203125,-0.011766202747821808,0.07479783147573471,0.000848658150061965
1733714511188172300,3.43417236328125,-0.008704602718353271,0.08991187065839767,0.0008453032351098955
1733714511198191400,3.44419140625,-0.007072617765516043,0.10076238960027695,0.00010281396680511534
1733714511208210200,3.454210205078125,-0.004874352365732193,0.10472121089696884,-0.0036007326561957598
1733714511218229200,3.464229248046875,-0.0024721811059862375,0.09672532975673676,-0.010021347552537918
1733714511228248300,3.474248291015625,-0.0026953539345413446,0.08899444341659546,-0.014642730355262756
1733714511238267400,3.484267333984375,-0.003555224509909749,0.08919952064752579,-0.010551943443715572
1733714511248286200,3.4942861328125,-0.0038056448101997375,0.08841554075479507,-0.00814715214073658
1733714511258305300,3.50430517578125,-0.0062059517949819565,0.08554145693778992,-0.007262183353304863
1733714511268324400,3.514324462890625,-0.005561117082834244,0.07735830545425415,-0.008228867314755917
1733714511278343400,3.524343505859375,-0.007714016363024712,0.07401178032159805,-0.004233593586832285
1733714511288362200,3.5343623046875,-0.0030162157490849495,0.0758020281791687,-0.002807874931022525
1733714511298381300,3.54438134765625,-0.0034495119471102953,0.07765372097492218,-0.0020099917892366648
1733714511308400400,3.554400390625,-0.004999022930860519,0.07175248861312866,-0.005957372020930052
1733714511318419200,3.564419189453125,-0.00909416563808918,0.06420349329710007,0.001164186978712678
1733714511328438300,3.574438232421875,-0.00962545070797205,0.04870728403329849,-0.0010596814099699259
1733714511338457300,3.584457275390625,-0.005892231594771147,0.016809536144137383,-0.0032586536835879087
1733714511348476400,3.594476318359375,-0.002194003202021122,-0.01956435851752758,0.0017149844206869602
1733714511358495200,3.6044951171875,-0.000807295145932585,-0.03573107719421387,0.006600020918995142
1733714511368514300,3.614514404296875,-0.0018557778093963861,-0.03975160792469978,-0.00025398924481123686
1733714511378533400,3.624533447265625,-0.002968446584418416,-0.04020221158862114,-0.003962440881878138
1733714511388552400,3.634552490234375,-0.004845533519983292,-0.040604911744594574,-0.005732223391532898
1733714511398571300,3.6445712890625,-0.009024566039443016,-0.03683361038565636,-0.0026008784770965576
1733714511408590300,3.65459033203125,-0.004342371132224798,-0.027291206642985344,0.0008466952131129801
1733714511418609400,3.664609375,-0.0030379551462829113,-0.020374445244669914,0.0028922692872583866
1733714511428628500,3.67462841796875,-0.0013496859464794397,-0.007327853702008724,0.008450664579868317
1733714511438647300,3.684647216796875,-0.0034578442573547363,0.0021796314977109432,0.005621854681521654
1733714511448666400,3.694666259765625,-0.006571710575371981,0.0035896485205739737,0.00344986654818058
1733714511458685400,3.704685546875,-0.008578136563301086,0.006311931647360325,-0.008069370873272419
1733714511468705500,3.71470556640625,-0.008848180994391441,0.019394977018237114,-0.006790786981582642
1733714511478724400,3.724724365234375,-0.008428466506302357,0.029917661100625992,-0.003942536190152168
1733714511488743400,3.734743408203125,-0.0001320085721090436,0.040675513446331024,0.0011380321811884642
1733714511498762500,3.744762451171875,0.0008696062723174691,0.052178237587213516,-0.003975237254053354
1733714511508781300,3.75478125,0.0018467237241566181,0.05949292704463005,-0.006060590967535973
1733714511518800400,3.76480029296875,-0.0003562432248145342,0.05458871275186539,-0.006436895579099655
1733714511528819200,3.774819091796875,0.00034193648025393486,0.04550289735198021,-0.008522765710949898
1733714511538838300,3.78483837890625,-0.0059519121423363686,0.03539540246129036,-0.010617873631417751
1733714511548857300,3.794857421875,-0.004074389114975929,0.03521368280053139,-0.007923622615635395
1733714511558876200,3.804876220703125,-0.00304161524400115,0.028092121705412865,-0.0038188928738236427
1733714511568895200,3.814895263671875,0.000053259776905179024,0.020460540428757668,-0.0022249517496675253
1733714511578914300,3.824914306640625,-0.0028133667074143887,0.01787647418677807,0.001916263485327363
1733714511588933000,3.83493310546875,-0.0033205237705260515,0.021740157157182693,0.003707660362124443
1733714511598952200,3.8449521484375,-0.005653452593833208,0.02707553468644619,0.005275463219732046
1733714511608971300,3.85497119140625,-0.00782118458300829,0.028391290456056595,0.002745069330558181
1733714511618990300,3.864990234375,-0.006594798993319273,0.02187240496277809,0.0008643448818475008
1733714511629009200,3.875009033203125,-0.004784021992236376,0.014705651439726353,-0.0018872201908379793
1733714511639028200,3.8850283203125,-0.0023666706401854753,0.004074844531714916,0.00729056540876627
1733714511649047300,3.89504736328125,-0.0050545004196465015,-0.002032189629971981,0.009296638891100883
1733714511659066400,3.90506640625,-0.00481827836483717,-0.006246908567845821,0.007492613513022661
1733714511669085200,3.915085205078125,-0.006066067609935999,-0.0045039961114525795,0.005977094639092684
1733714511679104300,3.925104248046875,-0.004763515666127205,-0.005230240523815155,0.007098818197846413
1733714511689123300,3.935123291015625,-0.004462669137865305,-0.010926241055130959,0.011393586173653603
1733714511699142100,3.94514208984375,-0.00413403520360589,-0.005538399796932936,0.01649646833539009
1733714511709161200,3.9551611328125,-0.0056136841885745525,-0.002222450217232108,0.006919110659509897
1733714511719180300,3.96518017578125,-0.0069689666852355,-0.0067514218389987946,0.005463160574436188
1733714511729199400,3.975199462890625,-0.005016515962779522,-0.009337101131677628,0.0029975499492138624
1733714511739218200,3.98521826171875,-0.00386203546077013,-0.010260152630507946,0.0011482508853077888
1733714511749237200,3.9952373046875,-0.003003695048391819,-0.006933816708624363,0.001274385955184698
1733714511759256300,4.00525634765625,-0.00356642110273242,-0.006466964725404978,-0.0003642570227384567
1733714511769275400,4.015275390625,-0.0038487259298563004,-0.009086858481168747,0.0018890732899308205
1733714511779294200,4.025294189453125,-0.0024058253038674593,-0.006101721897721291,0.004355693235993385
1733714511789313300,4.035313232421875,-0.005694741383194923,-0.0038156798109412193,0.0053521920926868916
1733714511799332400,4.045332275390625,-0.004060359671711922,-0.0009751523612067103,0.009501929394900799
1733714511809351400,4.055351318359375,-0.0015358614036813378,0.006445996463298798,0.010842774994671345
1733714511819370200,4.065370361328125,-0.0010570250451564789,0.008056676015257835,0.007065347861498594
1733714511829389300,4.075389404296875,-0.002354522468522191,0.007494121789932251,0.0035837283357977867
1733714511839408400,4.085408447265625,-0.0013611633330583572,0.00809253379702568,-0.00035641840077005327
1733714511849427200,4.09542724609375,-0.0012917343992739916,0.013011550530791283,-0.0005918156821280718
1733714511859446500,4.105446533203125,-0.004990065935999155,0.025306034833192825,0.004112658090889454
1733714511869465600,4.115465576171875,-0.004686725325882435,0.04020465165376663,0.008020383305847645
1733714511879484700,4.125484619140625,-0.004922681488096714,0.04415518417954445,0.0020112269558012486
1733714511889503500,4.13550341796875,-0.004384820349514484,0.03933580219745636,-0.003969081677496433
1733714511899523600,4.145523681640625,-0.007100178860127926,0.032935161143541336,-0.0008867394062690437
1733714511909542700,4.155542724609375,-0.004748352337628603,0.03737632557749748,0.0013057031901553273
1733714511919561700,4.165561767578125,-0.003665244672447443,0.03337093070149422,0.00003697321517392993
1733714511929580500,4.17558056640625,-0.003944693133234978,0.04228464141488075,0.0004560133384075016
1733714511939599600,4.185599609375,0.0003877371782436967,0.04463354870676994,-0.0009661146905273199
1733714511949618700,4.19561865234375,0.0009535710560157895,0.045528385788202286,-0.001637974288314581
1733714511959637800,4.2056376953125,0.0007927160477265716,0.0446692518889904,0.003386345226317644
1733714511969656600,4.215656494140625,-0.0023353477008640766,0.048492420464754105,0.0060740504413843155
1733714511979675600,4.225675537109375,-0.004684255924075842,0.05224934220314026,0.01039929036051035
1733714511989694700,4.23569482421875,-0.0034840614534914494,0.05183381214737892,0.008002698421478271
1733714511999713500,4.245713623046875,-0.005057989619672298,0.052369374781847,0.014168182387948036
1733714512009732600,4.255732666015625,-0.0047090924344956875,0.04481862485408783,0.01654852367937565
1733714512019751400,4.26575146484375,-0.003726385999470949,0.03875540941953659,0.01234605722129345
1733714512029770500,4.2757705078125,-0.006112508941441774,0.03259414806962013,0.007227465510368347
1733714512039789300,4.285789306640625,-0.008308019489049911,0.030850842595100403,0.003941657021641731
1733714512049808400,4.295808349609375,-0.006466259248554707,0.029818980023264885,-0.0006010381039232016
1733714512059827500,4.305827392578125,-0.005114172585308552,0.04154328256845474,-0.0028082660865038633
1733714512069846500,4.315846435546875,-0.004563529044389725,0.05452548339962959,0.0005477675003930926
1733714512079865300,4.325865234375,-0.004414924420416355,0.06631263345479965,0.0008875868516042829
1733714512089884400,4.335884521484375,-0.002813297091051936,0.07040435820817947,0.007463099434971809
1733714512099903500,4.345903564453125,-0.0027720180805772543,0.07219666987657547,0.004461983218789101
1733714512109922600,4.355922607421875,-0.007370234467089176,0.07309224456548691,-0.005247004795819521
1733714512119941400,4.36594140625,-0.00793429184705019,0.07056037336587906,-0.008164763450622559
1733714512129960400,4.37596044921875,-0.009360328316688538,0.07292573153972626,-0.008043014444410801
1733714512139979500,4.3859794921875,-0.00732780434191227,0.07357820123434067,-0.0078296959400177
1733714512149998300,4.395998291015625,-0.0073079997673630714,0.07851561903953552,-0.006657822523266077
1733714512160017400,4.406017333984375,-0.00615272019058466,0.08073695749044418,-0.005536898039281368
1733714512170036500,4.416036376953125,-0.0011071903863921762,0.0635455921292305,-0.006087554153054953
1733714512180055600,4.4260556640625,0.0047922441735863686,0.0582464374601841,-0.007833789102733135
1733714512190074400,4.436074462890625,0.004035466350615025,0.06152326986193657,-0.007221514824777842
1733714512200093400,4.446093505859375,0.0017222444294020534,0.06735026091337204,-0.004477127455174923
1733714512210112500,4.456112548828125,-0.0014741739723831415,0.07384297251701355,-0.008719822391867638
1733714512220131600,4.466131591796875,-0.0003247536951676011,0.06858376413583755,-0.014313260093331337
1733714512230150400,4.476150390625,-0.0014745284570381045,0.06369847804307938,-0.015163018368184566
1733714512240169500,4.48616943359375,-0.0018007656326517463,0.06465321779251099,-0.012184805236756802
1733714512250188500,4.4961884765625,-0.0044988179579377174,0.06914560496807098,-0.007161353714764118
1733714512260208600,4.506208740234375,-0.00969038438051939,0.07436833530664444,-0.007275336887687445
1733714512270227500,4.5162275390625,-0.00728936493396759,0.07400940358638763,-0.011441363021731377
1733714512280246500,4.52624658203125,-0.003925791941583157,0.07000960409641266,-0.015381775796413422
1733714512290265600,4.536265625,-0.0016711638309061527,0.06605524569749832,-0.013524023815989494
1733714512300284700,4.54628466796875,0.0007280779536813498,0.06395028531551361,-0.007895166985690594
1733714512310303500,4.556303466796875,0.0002894592471420765,0.06877549737691879,-0.0030814337078481913
1733714512320322600,4.566322509765625,-0.0009859285783022642,0.07132627069950104,-0.0016545121325179935
1733714512330341600,4.576341552734375,-0.0024882983416318893,0.06898044794797897,-0.00916566513478756
1733714512340360700,4.586360595703125,-0.003371402621269226,0.06593699008226395,-0.010576075874269009
1733714512350379500,4.596379638671875,-0.005704778712242842,0.06373555213212967,-0.011076973751187325
1733714512360398600,4.606398681640625,-0.00674687372520566,0.05622917041182518,-0.0062132421880960464
1733714512370417700,4.616417724609375,-0.004347720183432102,0.04567880555987358,0.002013584366068244
1733714512380436700,4.626436767578125,-0.005654267035424709,0.038607049733400345,0.0013792195823043585
1733714512390455600,4.63645556640625,-0.005922982469201088,0.02818046137690544,-0.0014955642400309443
1733714512400474600,4.646474609375,-0.005944820120930672,0.028963429853320122,0.0005502761341631413
1733714512410493700,4.65649365234375,-0.008102420717477798,0.031091639772057533,0.0019463181961327791
1733714512420512500,4.666512451171875,-0.008574598468840122,0.03090122528374195,0.006167694926261902
1733714512430531600,4.676531494140625,-0.009510628879070282,0.029899919405579567,0.007084752433001995
1733714512440550700,4.686550537109375,-0.012962885200977325,0.02547161653637886,0.005650906357914209
1733714512450569700,4.69656982421875,-0.011754244565963745,0.014953777194023132,0.004750811029225588
1733714512460588500,4.706588623046875,-0.014146561734378338,0.01107967458665371,0.0026112275663763285
1733714512470607600,4.716607666015625,-0.008441091515123844,0.010085313580930233,0.0026857531629502773
1733714512480626700,4.726626708984375,-0.006858374923467636,0.007684740237891674,-0.00209035980515182
1733714512490645800,4.736645751953125,-0.006807688623666763,0.00951853021979332,0.0020516973454505205
1733714512500664600,4.74666455078125,-0.0025261249393224716,0.01789071038365364,-0.004145744722336531
1733714512510683600,4.75668359375,-0.00039080006536096334,0.03219273313879967,-0.008084658533334732
1733714512520702700,4.76670263671875,-0.0011197072453796864,0.04809553176164627,-0.013588081113994122
1733714512530721500,4.776721435546875,0.001361021539196372,0.06338060647249222,-0.014969699084758759
1733714512540740600,4.78674072265625,0.0027304189279675484,0.08185601979494095,-0.01835377886891365
1733714512550759700,4.796759765625,0.001206211862154305,0.105173259973526,-0.016135703772306442
1733714512560778500,4.806778564453125,0.006479004863649607,0.12024728208780289,-0.014490136876702309
1733714512570798600,4.816798583984375,0.008322443813085556,0.12500369548797607,-0.012515136040747166
1733714512580817400,4.8268173828125,0.004610797390341759,0.12218686193227768,-0.010730019770562649
1733714512590836500,4.83683642578125,0.00667527923360467,0.10733068734407425,-0.01131138764321804
1733714512600855600,4.84685546875,0.0019590877927839756,0.09085903316736221,-0.01241899561136961
1733714512610874600,4.85687451171875,-0.00010965834371745586,0.0753447487950325,-0.004895733669400215
1733714512620893400,4.8668935546875,-0.0015400421107187867,0.06183639168739319,0.004663416650146246
1733714512630912500,4.87691259765625,-0.0022299790289252996,0.05581896752119064,-0.0018568565137684345
1733714512640931600,4.886931640625,-0.0033423814456909895,0.03525936231017113,-0.0004941170336678624
1733714512650950400,4.896950439453125,-0.0055331881158053875,0.00802451279014349,0.006019064225256443
1733714512660969500,4.906969482421875,-0.008515928871929646,-0.010912160389125347,0.0024443031288683414
1733714512670988500,4.916988525390625,-0.014314691536128521,-0.021174557507038116,0.00011969887418672442
1733714512681007600,4.927007568359375,-0.015408984385430813,-0.022243283689022064,-0.000030237075407058
1733714512691026400,4.9370263671875,-0.015933461487293243,-0.020448140799999237,-0.0014970604097470641
1733714512701045500,4.94704541015625,-0.016790732741355896,-0.023397326469421387,0.0019029973773285747
1733714512711064600,4.957064697265625,-0.01179765909910202,-0.02632669359445572,0.0044304621405899525
1733714512721083600,4.967083740234375,-0.007468158379197121,-0.0258550476282835,0.00311486073769629
1733714512731102500,4.9771025390625,-0.00759314838796854,-0.02516127936542034,0.007423378527164459
1733714512741121500,4.98712158203125,-0.007810994982719421,-0.0284071397036314,0.004815344698727131
1733714512751140600,4.997140625,-0.010060112923383713,-0.02404196560382843,0.007442648988217115
1733714512761159700,5.00715966796875,-0.007329573389142752,-0.022099722176790237,0.005089479498565197
1733714512771178500,5.017178466796875,-0.009563526138663292,-0.018360724672675133,0.0032755874563008547
1733714512781197600,5.027197509765625,-0.009396012872457504,-0.02031708136200905,0.001187935471534729
1733714512791216600,5.037216552734375,-0.007975929416716099,-0.02427486889064312,-0.0014924933202564716
1733714512801235500,5.0472353515625,-0.008899247273802757,-0.03217300400137901,0.002562169451266527
1733714512811254500,5.057254638671875,-0.009187845513224602,-0.031153563410043716,0.005034326110035181
1733714512821273600,5.067273681640625,-0.008870396763086319,-0.030293095856904984,0.006424229592084885
1733714512831292700,5.077292724609375,-0.009064631536602974,-0.028230242431163788,0.0019854274578392506
1733714512841312800,5.087312744140625,-0.00838339515030384,-0.02361738122999668,0.0011734295403584838
1733714512851331000,5.0973310546875,-0.007638154551386833,-0.01828974485397339,-0.00010228052269667387
1733714512861350100,5.10735009765625,-0.004761673975735903,-0.012689381837844849,0.0006010603392496705
1733714512871369000,5.117368896484375,-0.0058351061306893826,-0.009735685773193836,0.0009038058342412114
1733714512881388000,5.127387939453125,-0.0026307906955480576,-0.004892994184046984,0.0003607872931752354
1733714512891407000,5.137406982421875,-0.005782283842563629,-0.0024148437660187483,-0.0010687843896448612
1733714512901426000,5.147426025390625,-0.006009983830153942,-0.00040841824375092983,-0.0027982410974800587
1733714512911445000,5.157445068359375,-0.003758286125957966,0.0017848194111138582,-0.00659907516092062
1733714512921464000,5.167464111328125,-0.0046256775967776775,0.00319469696842134,-0.003879721276462078
1733714512931483100,5.177483154296875,-0.006253579631447792,0.009262161329388618,-0.0027897455729544163
1733714512941502000,5.187501953125,-0.00610524183139205,0.010926635935902596,-0.00041766793583519757
1733714512951521000,5.19752099609375,-0.0057028355076909065,0.012854593805968761,0.0006998635944910347
1733714512961540000,5.2075400390625,-0.007004055194556713,0.017221644520759583,0.0005672381957992911
1733714512971559200,5.21755908203125,-0.00849889311939478,0.015674158930778503,-0.0024396090302616358
1733714512981578000,5.227577880859375,-0.007837630808353424,0.01775968074798584,0.0012661796063184738
1733714512991597000,5.23759716796875,-0.006480301730334759,0.017932144924998283,-0.0018539533484727144
1733714513001616100,5.2476162109375,-0.002618984319269657,0.018902868032455444,-0.0028337303083389997
1733714513011635000,5.257635009765625,-0.0014723155181854963,0.014261258766055107,-0.0070031192153692245
1733714513021654000,5.267654052734375,-0.00020864559337496758,0.008585796691477299,-0.0018509679939597845
1733714513031672800,5.2776728515625,-0.0030451843049377203,0.007586609106510878,0.0029621233697980642
1733714513041692000,5.28769189453125,-0.00424094358459115,0.006887263152748346,0.003939769696444273
1733714513051710700,5.297710693359375,-0.007672244217246771,0.005920473486185074,-0.0007093826425261796
1733714513061729800,5.307729736328125,-0.007850410416722298,0.0025393248070031404,0.0011018331861123443
1733714513071748900,5.317748779296875,-0.010125458240509033,0.005627823993563652,-0.00237321387976408
1733714513081768000,5.327767822265625,-0.011508171446621418,0.017189139500260353,-0.002501578303053975
1733714513091788000,5.3377880859375,-0.006876053288578987,0.02376711368560791,-0.0015202005160972476
1733714513101806800,5.347806884765625,-0.0083676902577281,0.027110978960990906,-0.007189537864178419
1733714513111826000,5.357825927734375,-0.008190053515136242,0.03169340267777443,-0.0033323431853204966
1733714513121845000,5.367844970703125,-0.007693374529480934,0.03426734730601311,-0.004632764961570501
1733714513131864000,5.377864013671875,-0.006743510253727436,0.03159923478960991,-0.004724252037703991
1733714513141883000,5.3878828125,-0.00526039581745863,0.03847125545144081,-0.004919195547699928
1733714513151902000,5.39790185546875,-0.0036720039788633585,0.042742982506752014,-0.00940751750022173
1733714513161921000,5.407921142578125,-0.0037761335261166096,0.04675024002790451,-0.008039451204240322
1733714513171939800,5.41793994140625,-0.002706604078412056,0.043341584503650665,-0.007241429761052132
1733714513181959000,5.427958984375,-0.0019127156119793653,0.03658274933695793,-0.0032703899778425694
1733714513191978000,5.43797802734375,-0.0032180205453187227,0.03540293499827385,0.000023295608116313815
1733714513201997000,5.4479970703125,-0.004473701119422913,0.03890472650527954,0.0013503488153219223
1733714513212015900,5.458015869140625,-0.0030559254810214043,0.04870183393359184,0.0012849201448261738
1733714513222035000,5.468034912109375,-0.0003315117210149765,0.05764126777648926,-0.00015025725588202477
1733714513232054000,5.478053955078125,0.0014552974607795477,0.05628727003931999,-0.00010819538147188723
1733714513242073000,5.488072998046875,-0.00001929490827023983,0.044945668429136276,-0.0002504081930965185
1733714513252092000,5.498091796875,0.0018377243541181087,0.037539854645729065,0.003178076120093465
1733714513262111000,5.508111083984375,0.0013519637286663055,0.04147600755095482,0.00529395742341876
1733714513272130000,5.518130126953125,0.000186389428563416,0.03901346027851105,0.00294932397082448
1733714513282148900,5.52814892578125,0.005283679813146591,0.041159700602293015,0.00014395001926459372
1733714513292168000,5.53816796875,0.0062857335433363914,0.04238245263695717,-0.00155070167966187
1733714513302187000,5.54818701171875,0.005390645004808903,0.04028255119919777,-0.0005698595196008682
1733714513312206000,5.5582060546875,0.004105319269001484,0.03221119940280914,0.002966844942420721
1733714513322225000,5.568224853515625,0.0037082419730722904,0.02377270720899105,0.002312506316229701
1733714513332245000,5.578244873046875,0.001696219900622964,0.008960064500570297,-0.0035429566632956266
1733714513342264000,5.58826416015625,-0.0019645614083856344,0.005352812819182873,-0.006948873400688171
1733714513352283000,5.598282958984375,-0.00047123851254582405,0.007244706153869629,-0.003627434838563204
1733714513362302000,5.608302001953125,-0.00003581168130040169,0.01414548885077238,-0.0016574944602325559
1733714513372320800,5.61832080078125,-0.0023368727415800095,0.01656888611614704,-0.005446653347462416
1733714513382339800,5.62833984375,-0.004252218175679445,0.0134021220728755,-0.0014383296947926283
1733714513392359000,5.63835888671875,-0.006862027570605278,0.01020578108727932,0.0007568580913357437
1733714513402377700,5.648377685546875,-0.0034302780404686928,0.01508336141705513,0.002283914480358362
1733714513412396800,5.658396728515625,-0.006987283937633038,0.01565227471292019,0.003847680287435651
1733714513422416000,5.668415771484375,-0.005988331977277994,0.014527089893817902,0.005509226117283106
1733714513432435000,5.67843505859375,-0.004293051548302174,0.011416845954954624,0.007833857089281082
1733714513442453800,5.688453857421875,-0.005791611969470978,0.006948860362172127,0.008259429596364498
1733714513452472800,5.698472900390625,-0.003795129945501685,-0.0016702254069969058,0.010869482532143593
1733714513462492000,5.708491943359375,-0.0056204600259661674,-0.009308171458542347,0.011331806890666485
1733714513472511000,5.718510986328125,-0.009201614186167717,-0.018647124990820885,0.007505475543439388
1733714513482529800,5.72852978515625,-0.008193607442080975,-0.029853440821170807,0.008656760677695274
1733714513492548900,5.738548828125,-0.005979185923933983,-0.04035574197769165,0.010009084828197956
1733714513502568000,5.74856787109375,-0.006448701024055481,-0.04623067378997803,0.012432827614247799
1733714513512587000,5.7585869140625,-0.006337735801935196,-0.043287333101034164,0.012237939983606339
1733714513522605800,5.768605712890625,-0.0031834878027439117,-0.045337703078985214,0.011687731370329857
1733714513532625000,5.778625,-0.007805760018527508,-0.0518166683614254,0.0106210233643651
1733714513542644000,5.78864404296875,-0.006128501147031784,-0.055522192269563675,0.008754413574934006
1733714513552664000,5.7986640625,-0.0019942098297178745,-0.051303744316101074,0.0063234795816242695
1733714513562683000,5.808682861328125,0.00007480010390281677,-0.0475446917116642,0.0036536608822643757
1733714513572702000,5.818701904296875,0.0009256773628294468,-0.0477251298725605,0.008480936288833618
1733714513582721000,5.828720947265625,0.005197654012590647,-0.044255297631025314,0.0056502618826925755
1733714513592740000,5.838739990234375,0.00492778979241848,-0.03859512507915497,0.010361687280237675
1733714513602759000,5.848759033203125,0.004700089804828167,-0.03330129384994507,0.011123618111014366
1733714513612778000,5.858778076171875,0.003951206337660551,-0.03059220127761364,0.012723674066364765
1733714513622797000,5.868797119140625,0.004198613576591015,-0.021238381043076515,0.009797658771276474
1733714513632816000,5.878816162109375,0.006448096130043268,-0.014849582687020302,0.00838760007172823
1733714513642835000,5.8888349609375,0.004764445126056671,-0.007193261757493019,0.006107401568442583
1733714513652854000,5.89885400390625,0.010177411139011383,-0.0028649664018303156,0.004905697889626026
1733714513662873000,5.908873046875,0.014680549502372742,-0.0011634728871285915,0.006534753832966089
1733714513672892000,5.918891845703125,0.015746794641017914,0.005444253329187632,0.0013464100193232298
1733714513682911000,5.928910888671875,0.019229941070079803,0.006103918422013521,0.0017464166739955544
1733714513692930000,5.938929931640625,0.019927510991692543,0.013079958967864513,0.002903168788179755
1733714513702949000,5.94894921875,0.019099267199635506,0.020027346909046173,0.0048198457807302475
1733714513712968000,5.958968017578125,0.022839495912194252,0.027178358286619186,0.0008715844014659524
1733714513722987000,5.968987060546875,0.017187204211950302,0.021107416599988937,-0.003976167645305395
1733714513733006000,5.979006103515625,0.014528483152389526,0.01573130674660206,-0.004141227807849646
1733714513743025200,5.989025146484375,0.011847211979329586,0.006971638649702072,-0.002086332766339183
1733714513753044000,5.9990439453125,0.011310319416224957,0.005630298517644405,-0.0011280580656602979
1733714513763063000,6.00906298828125,0.009508957155048847,-0.004433521069586277,-0.000703017576597631
1733714513773083000,6.019082763671875,0.00579251442104578,-0.015204159542918205,0.0016960164066404104
1733714513783102000,6.02910205078125,0.007435951381921768,-0.028633948415517807,0.001964995637536049
1733714513793120800,6.039120849609375,0.00479675829410553,-0.03918405994772911,0.009563259780406952
1733714513803139800,6.049139892578125,0.004914913792163134,-0.037558093667030334,0.01749987155199051
1733714513813159000,6.059158935546875,0.0075846449472010136,-0.04181025177240372,0.012146511115133762
1733714513823178000,6.069177978515625,0.0030932240188121796,-0.047566406428813934,0.00945751741528511
1733714513833196800,6.07919677734375,0.0005713016726076603,-0.058447957038879395,0.01062789186835289
1733714513843216000,6.0892158203125,0.0005856826901435852,-0.06556499004364014,0.009645718149840832
1733714513853235700,6.099235595703125,-0.0040527465753257275,-0.07395510375499725,0.0084080770611763
1733714513863254800,6.1092548828125,0.00024213327560573816,-0.08053258061408997,0.00798276998102665
1733714513873273900,6.11927392578125,-0.001516618300229311,-0.08348176628351212,0.008295957930386066
1733714513883292700,6.129292724609375,-0.00218054442666471,-0.09562258422374725,0.007048533298075199
1733714513893311700,6.139311767578125,-0.00796972494572401,-0.10270077735185623,0.011649242602288723
1733714513903330800,6.149330810546875,-0.01021823100745678,-0.10299372673034668,0.013778439722955227
1733714513913350000,6.159349853515625,-0.011976362206041813,-0.0925348550081253,0.014311844483017921
1733714513923368700,6.16936865234375,-0.011675159446895123,-0.08245052397251129,0.01135680079460144
1733714513933387800,6.1793876953125,-0.012399448081851006,-0.07913248986005783,0.00847914069890976
1733714513943406800,6.18940673828125,-0.00942203402519226,-0.0796978771686554,0.014602546580135822
1733714513953426000,6.199426025390625,-0.012875089421868324,-0.08292493224143982,0.017237409949302673
1733714513963446000,6.209446044921875,-0.01712149940431118,-0.0895165205001831,0.018937570974230766
1733714513973464800,6.21946484375,-0.01689300313591957,-0.09236149489879608,0.009362037293612957
1733714513983484000,6.22948388671875,-0.018672259524464607,-0.0872463583946228,0.0010966507252305746
1733714513993503000,6.2395029296875,-0.015675580129027367,-0.07402008771896362,-0.002007279545068741
1733714514003521800,6.249521728515625,-0.012154081836342812,-0.05100291967391968,0.0018835989758372307
1733714514013540900,6.259540771484375,-0.00964103639125824,-0.02674221247434616,0.0073403893038630486
1733714514023560000,6.269559814453125,-0.00776350824162364,-0.0080502824857831,0.008165170438587666
1733714514033578800,6.279578857421875,-0.00803879089653492,0.003888386767357588,0.003246522042900324
1733714514043597800,6.289597900390625,-0.007505625486373901,0.0015882146544754505,-0.003919511567801237
1733714514053616600,6.29961669921875,-0.005900803953409195,-0.00359550304710865,-0.00019984552636742592
1733714514063635700,6.3096357421875,-0.005822507198899984,-0.007588912732899189,0.006270570680499077
1733714514073654800,6.31965478515625,-0.004595944192260504,-0.0069008152931928635,0.0060246894136071205
1733714514083673600,6.329673583984375,-0.0004669793415814638,-0.012819690629839897,0.015155336819589138
1733714514093692700,6.339692626953125,0.002822556998580694,-0.01657106727361679,0.019641529768705368
1733714514103711700,6.349711669921875,0.0030971290543675423,-0.021709369495511055,0.02561233751475811
1733714514113730800,6.359730712890625,0.002541682682931423,-0.02279697358608246,0.031264472752809525
1733714514123749600,6.36974951171875,0.0003485693596303463,-0.03055902197957039,0.026573849841952324
1733714514133768700,6.379768798828125,-0.0035191397182643414,-0.04215975105762482,0.021528491750359535
1733714514143787800,6.389787841796875,-0.0021465462632477283,-0.04429667070508003,0.010020440444350243
1733714514153808000,6.399807861328125,-0.006158243864774704,-0.05287376046180725,0.00947569776326418
1733714514163826700,6.40982666015625,-0.006247193552553654,-0.06208590045571327,0.009956665337085724
1733714514173845800,6.419845703125,-0.003371777944266796,-0.06859984248876572,0.011307124979794025
1733714514183864800,6.42986474609375,-0.005006692372262478,-0.07366357743740082,0.01314204279333353
1733714514193884000,6.4398837890625,-0.00006688409484922886,-0.06798957288265228,0.013928825967013836
1733714514203902700,6.44990283203125,-0.00028153485618531704,-0.060922350734472275,0.013069423846900463
1733714514213921800,6.459921875,0.004137271083891392,-0.056205641478300095,0.013410785235464573
1733714514223940900,6.46994091796875,0.003838996635749936,-0.051758959889411926,0.012176942080259323
1733714514233959700,6.479959716796875,-0.0010503887897357345,-0.06576090306043625,0.01656479388475418
1733714514243978800,6.489978759765625,-0.00002081063576042652,-0.08312897384166718,0.02365759015083313
1733714514253997800,6.499997802734375,-0.0032101236283779144,-0.09920326620340347,0.026870863512158394
1733714514264017000,6.510016845703125,-0.005000833421945572,-0.11394306272268295,0.02547057345509529
1733714514274035700,6.52003564453125,-0.0031193101312965155,-0.1260969638824463,0.031199874356389046
1733714514284054800,6.5300546875,-0.004531051963567734,-0.12856145203113556,0.034440938383340836
1733714514294073900,6.540073974609375,-0.0047860052436590195,-0.12960496544837952,0.030427010729908943
1733714514304093000,6.550093017578125,-0.0038949118461459875,-0.14141634106636047,0.019656920805573463
1733714514314111700,6.56011181640625,-0.005728142336010933,-0.1552169919013977,0.013227432034909725
1733714514324130800,6.570130859375,-0.004001614637672901,-0.16581371426582336,0.013306261971592903
1733714514334150000,6.58014990234375,-0.004827373195439577,-0.1702328473329544,0.01984189823269844
1733714514344169700,6.590169677734375,-0.004154392052441835,-0.16431689262390137,0.02206350862979889
1733714514354188800,6.600188720703125,-0.004431715700775385,-0.1483394205570221,0.023833302780985832
1733714514364207900,6.610207763671875,-0.00390680693089962,-0.13648435473442078,0.024865012615919113
1733714514374226700,6.620226806640625,-0.006563842296600342,-0.12861070036888123,0.021033214405179024
1733714514384245800,6.630245849609375,-0.006549993995577097,-0.12466388940811157,0.01919776387512684
1733714514394264600,6.6402646484375,-0.008099421858787537,-0.1244635209441185,0.01817544735968113
1733714514404283600,6.65028369140625,-0.011058992706239223,-0.12362755089998245,0.019178660586476326
1733714514414302700,6.660302734375,-0.010247527621686459,-0.11720108240842819,0.015568210743367672
1733714514424321800,6.67032177734375,-0.01077217049896717,-0.10726668685674667,0.015164210461080074
1733714514434340600,6.680340576171875,-0.007258749566972256,-0.09311103075742722,0.019795207306742668
1733714514444359700,6.690359619140625,-0.005818245932459831,-0.08634687215089798,0.02185090258717537
1733714514454378800,6.700378662109375,-0.0021453925874084234,-0.07704886794090271,0.018579449504613876
1733714514464397800,6.710397705078125,-0.0007299224380403757,-0.07235584408044815,0.01489230152219534
1733714514474416600,6.720416748046875,-0.0021164529025554657,-0.06173860654234886,0.010225167497992516
1733714514484435700,6.730435791015625,-0.00017926946748048067,-0.05229770392179489,0.005901526194065809
1733714514494454800,6.740454833984375,-0.0026536118239164352,-0.030105408281087875,0.009858913719654083
1733714514504473600,6.7504736328125,-0.004916499834507704,-0.015883594751358032,0.003256937488913536
1733714514514492700,6.76049267578125,-0.005228889174759388,-0.021161353215575218,-0.0008096399833448231
1733714514524512800,6.7705126953125,-0.000926818756852299,-0.02136268839240074,0.002567780902609229
1733714514534531800,6.78053173828125,-0.004838292021304369,-0.014435430988669395,0.00945111270993948
1733714514544551000,6.790551025390625,-0.0025716754607856274,-0.003235506359487772,0.012716947123408318
1733714514554569700,6.80056982421875,-0.0005012457258999348,0.007010943256318569,0.009440768510103226
1733714514564588800,6.8105888671875,-0.0036736030597239733,0.012801454402506351,0.009868739172816277
1733714514574608000,6.82060791015625,-0.0021888017654418945,0.006288584321737289,0.009012406691908836
1733714514584626700,6.830626708984375,-0.0080014169216156,-0.0035464696120470762,0.017673274502158165
1733714514594645800,6.840645751953125,-0.0027259611524641514,-0.010532740503549576,0.019710060209035873
1733714514604664800,6.850664794921875,-0.0015669536078348756,-0.013634524308145046,0.018266625702381134
1733714514614684000,6.860683837890625,-0.001859811833128333,-0.0095698032528162,0.012910252436995506
1733714514624702700,6.87070263671875,-0.0029184184968471527,-0.010501377284526825,0.005792954005300999
1733714514634721800,6.8807216796875,0.0017816161271184683,-0.01046077162027359,0.0035009526181966066
1733714514644740900,6.890740966796875,-0.000033594551496207714,-0.0048652044497430325,0.0016535178292542696
1733714514654760000,6.900760009765625,0.0014606164768338203,-0.0037997050676494837,-0.00007471945718862116
1733714514664778800,6.91077880859375,0.0031799532007426023,-0.007296435534954071,-0.0014430516166612506
1733714514674797800,6.9207978515625,-0.0006511816172860563,-0.00877765379846096,-0.0024445545859634876
1733714514684817000,6.93081689453125,-0.0014914089115336537,0.0028377226553857327,-0.001264774240553379
1733714514694836700,6.940836669921875,0.002757664769887924,0.00801086612045765,-0.0020026376005262136
1733714514704855800,6.950855712890625,0.0001403100322932005,0.021644119173288345,-0.0008963605505414307
1733714514714874600,6.96087451171875,0.0018041651928797364,0.03377820551395416,0.0003111031837761402
1733714514724893700,6.970893798828125,0.005787455011159182,0.039331160485744476,-0.0006747990264557302
1733714514734912800,6.980912841796875,0.006211696192622185,0.04154736176133156,-0.003368713892996311
1733714514744931600,6.990931640625,0.004944563843309879,0.040281031280756,-0.0014009043807163835
1733714514754950700,7.00095068359375,0.007494807243347168,0.03496558219194412,0.002213103696703911
1733714514764969700,7.0109697265625,0.007572039030492306,0.03192318603396416,0.0007992315222509205
1733714514774988800,7.02098876953125,0.006861062720417976,0.032236889004707336,-0.0029713278636336327
1733714514785007600,7.031007568359375,0.00620912155136466,0.027271693572402,-0.0024999482557177544
1733714514795026700,7.041026611328125,0.001641267561353743,0.019480034708976746,-0.002279872540384531
1733714514805045800,7.051045654296875,0.0023802947252988815,0.011434625834226608,0.0008613257668912411
1733714514815064800,7.06106494140625,0.004192487336695194,0.007858063094317913,0.0052531021647155285
1733714514825083600,7.071083740234375,0.005098228342831135,0.0046130018308758736,0.004314870573580265
1733714514835102700,7.081102783203125,0.00447602616623044,0.004761966411024332,0.0039307596161961555
1733714514845121800,7.091121826171875,0.0038416609168052673,0.0002018357627093792,0.00517472205683589
1733714514855139800,7.101139892578125,0.0006486199563369155,-0.006788711063563824,0.005205292720347643
1733714514865159700,7.11115966796875,0.005547504872083664,-0.014694837853312492,0.0024409315083175898
1733714514875178800,7.1211787109375,-0.0007847821689210832,-0.014289755374193192,0.0018124815542250872
1733714514885197800,7.13119775390625,-0.001626074779778719,-0.015083642676472664,0.0004566662246361375
1733714514895216600,7.141216552734375,-0.001887330785393715,-0.019007811322808266,0.003139002015814185
1733714514905235700,7.151235595703125,-0.0019381972961127758,-0.022174043580889702,0.0060540977865457535
1733714514915254800,7.1612548828125,-0.005928501486778259,-0.026542585343122482,0.011179210618138313
1733714514925273900,7.17127392578125,-0.0050698984414339066,-0.02844567969441414,0.00802522897720337
1733714514935292700,7.181292724609375,-0.004464204888790846,-0.0352824330329895,0.0023891543969511986
1733714514945311700,7.191311767578125,-0.0034649865701794624,-0.03825958073139191,0.004784135147929192
1733714514955330800,7.201330810546875,-0.005518462974578142,-0.03603491932153702,0.009362290613353252
1733714514965349600,7.211349609375,-0.0054731895215809345,-0.03640030696988106,0.009003562852740288
1733714514975368700,7.22136865234375,-0.005312598776072264,-0.03903084993362427,0.0037973779253661633
1733714514985387800,7.2313876953125,-0.009401350282132626,-0.04553455486893654,0.0021305056288838387
1733714514995406800,7.24140673828125,-0.005121382884681225,-0.047992169857025146,0.003848076332360506
1733714515005425700,7.25142578125,-0.007485737092792988,-0.04652423411607742,0.005301629658788443
1733714515015444700,7.26144482421875,-0.0028162423986941576,-0.042650725692510605,0.0029707597568631172
1733714515025463800,7.2714638671875,-0.004934520926326513,-0.03241753205657005,-0.000998948235064745
1733714515035484000,7.28148388671875,-0.004815029911696911,-0.021185869351029396,-0.005090080667287111
1733714515045503000,7.2915029296875,-0.0013153700856491923,-0.013064027763903141,-0.001438620500266552
1733714515055521800,7.301521728515625,-0.0013378323055803776,-0.004551342688500881,0.0031526959501206875
1733714515065540900,7.311540771484375,-0.002463284181430936,0.0008780434727668762,0.0024157993029803038
1733714515075560000,7.321559814453125,-0.0033844714052975178,-0.001130246208049357,0.0069413091987371445
1733714515085578800,7.331578857421875,-0.0045717088505625725,0.0017172056250274181,0.006958086974918842
1733714515095597800,7.341597900390625,-0.004882498644292355,0.0017165793105959892,0.010363933630287647
1733714515105617000,7.351616943359375,-0.0023759310133755207,0.007816815748810768,0.010253146290779114
1733714515115636000,7.361635986328125,-0.00435927789658308,0.008221725933253765,0.0026368978433310986
1733714515125654800,7.37165478515625,-0.0018593682907521725,0.006101050414144993,0.0008102355641312897
1733714515135673900,7.381673828125,-0.0014550997875630856,-0.00393245555460453,0.0027658932376652956
1733714515145693000,7.39169287109375,0.0007958038477227092,-0.00376441003754735,0.012632106430828571
1733714515155712000,7.4017119140625,0.004580510780215263,0.00394382793456316,0.007711327169090509
1733714515165730800,7.411730712890625,0.003863321617245674,0.007992631755769253,0.00571475550532341
1733714515175750000,7.42175,0.006408591754734516,0.008450068533420563,0.005770764779299498
1733714515185769700,7.431769775390625,0.005816305056214333,-0.0028827472124248743,0.0057606445625424385
1733714515195788800,7.441788818359375,0.004440873395651579,-0.0049306550063192844,0.004335924983024597
1733714515205807600,7.4518076171875,0.003931144252419472,-0.007675575092434883,0.0047830697149038315
1733714515215826700,7.46182666015625,0.001885392121039331,-0.004311971366405487,0.0037338961847126484
1733714515225845800,7.471845703125,0.003662519156932831,-0.00799618847668171,-0.0013527413830161095
1733714515235864800,7.48186474609375,0.006402027327567339,-0.005987491458654404,0.0013943942030891776
1733714515245883600,7.491883544921875,0.007148777600377798,0.005174882244318724,0.0014130363706499338
1733714515255902700,7.50190283203125,0.005805743392556906,0.008143601007759571,0.005220361053943634
1733714515265921800,7.511921875,0.005134893115609884,0.001716861268505454,0.011892111971974373
1733714515275940900,7.52194091796875,0.00802025105804205,-0.004630532115697861,0.014157873578369617
1733714515285959700,7.531959716796875,0.0026166969910264015,-0.017282944172620773,0.012523224577307701
1733714515295978800,7.541978759765625,-0.00007211952470242977,-0.03021843358874321,0.009190867654979229
1733714515305997800,7.551997802734375,-0.0076919556595385075,-0.04633402079343796,0.006119976751506329
1733714515316016600,7.5620166015625,-0.013670393265783787,-0.05701078847050667,0.008310133591294289
1733714515326035700,7.57203564453125,-0.01829683780670166,-0.07007066905498505,0.012601817958056927
1733714515336054800,7.5820546875,-0.020731143653392792,-0.0845228061079979,0.014672803692519665
1733714515346073900,7.592073974609375,-0.024675551801919937,-0.1143515408039093,0.01817486062645912
1733714515356094000,7.602093994140625,-0.024017836898565292,-0.15552441775798798,0.027360986918210983
1733714515366112800,7.61211279296875,-0.017961008474230766,-0.1801072508096695,0.03045983985066414
1733714515376131800,7.6221318359375,-0.015750059857964516,-0.20184560120105743,0.029809270054101944
1733714515386151000,7.63215087890625,-0.013997700065374374,-0.22585293650627136,0.025527972728013992
1733714515396170000,7.642169921875,-0.018606651574373245,-0.24782918393611908,0.018891727551817894
1733714515406188800,7.652188720703125,-0.018655654042959213,-0.25938624143600464,0.018878677859902382
1733714515416208000,7.662207763671875,-0.02151864394545555,-0.2587842345237732,0.02548547461628914
1733714515426227000,7.67222705078125,-0.01977560482919216,-0.2441602647304535,0.02825462818145752
1733714515436245800,7.682245849609375,-0.016956474632024765,-0.22207722067832947,0.03282979875802994
1733714515446264800,7.692264892578125,-0.019165299832820892,-0.20470862090587616,0.03014586679637432
1733714515456284000,7.702283935546875,-0.020158566534519196,-0.18610504269599915,0.027461471036076546
1733714515466303000,7.712302978515625,-0.02163741923868656,-0.16827625036239624,0.02212982252240181
1733714515476321800,7.72232177734375,-0.02193213626742363,-0.15005084872245789,0.018892021849751472
1733714515486340900,7.7323408203125,-0.019987495616078377,-0.12711650133132935,0.012879404239356518
1733714515496360000,7.74235986328125,-0.01999114267528057,-0.09637221693992615,0.007623107172548771
1733714515506379800,7.7523798828125,-0.019408974796533585,-0.06275646388530731,0.006555978674441576
1733714515516398800,7.76239892578125,-0.01613062247633934,-0.032559193670749664,0.002077705692499876
1733714515526417700,7.772417724609375,-0.013074379414319992,0.002881085965782404,0.002870794851332903
1733714515536436700,7.782436767578125,-0.011086953803896904,0.027620144188404083,0.0019456397276371717
1733714515546455800,7.792455810546875,-0.006906590424478054,0.04528968408703804,-0.0037679062224924564
1733714515556474600,7.802474609375,-0.00825352594256401,0.0639607310295105,-0.006489249411970377
1733714515566493700,7.81249365234375,-0.005319255404174328,0.07980494201183319,-0.01076575368642807
1733714515576512800,7.8225126953125,-0.004861452616751194,0.10056489706039429,-0.014366752468049526
1733714515586531800,7.83253173828125,-0.003747984766960144,0.11980383843183517,-0.013945440761744976
1733714515596550700,7.842550537109375,-0.004915160592645407,0.1363452970981598,-0.017192253842949867
1733714515606569700,7.85256982421875,-0.004007555544376373,0.14535556733608246,-0.018364576622843742
1733714515616588800,7.8625888671875,-0.005869724787771702,0.15164804458618164,-0.025214873254299164
1733714515626607900,7.87260791015625,-0.003961570560932159,0.15327364206314087,-0.02134423330426216
1733714515636626700,7.882626708984375,-0.0025102414656430483,0.16195064783096313,-0.019362550228834152
1733714515646645800,7.892645751953125,0.0006780950352549553,0.1763538271188736,-0.018104204908013344
1733714515656665900,7.902665771484375,0.0030316184274852276,0.1888083964586258,-0.02214810438454151
1733714515666685000,7.912684814453125,0.0016132189193740487,0.20188531279563904,-0.022892724722623825
1733714515676703700,7.922703857421875,0.002890204545110464,0.21219919621944427,-0.0198532585054636
1733714515686722800,7.932722900390625,0.0035195094533264637,0.21483813226222992,-0.023479685187339783
1733714515696742000,7.942741943359375,-0.0004928107373416424,0.209223210811615,-0.026814691722393036
1733714515706761000,7.952760986328125,-0.0001817535376176238,0.20258767902851105,-0.03261186182498932
1733714515716779800,7.96277978515625,-0.0005926761659793556,0.1918606013059616,-0.03319745883345604
1733714515726798800,7.972798828125,-0.002857960993424058,0.186283141374588,-0.03296816349029541
1733714515736818000,7.98281787109375,-0.0013768878998234868,0.18754039704799652,-0.027311397716403008
1733714515746837000,7.9928369140625,-0.004234992433339357,0.18728260695934296,-0.024278590455651283
1733714515756855800,8.002855712890625,-0.006087310146540403,0.18844029307365417,-0.023081177845597267
1733714515766875000,8.012875,-0.0060271224938333035,0.18524503707885742,-0.024851113557815552
1733714515776894000,8.02289404296875,-0.00822724960744381,0.16895689070224762,-0.02385423704981804
1733714515786912800,8.032912841796875,-0.008262136951088905,0.15631699562072754,-0.01923072338104248
1733714515796931800,8.042931884765625,-0.003254590556025505,0.15340761840343475,-0.02379508502781391
1733714515806951700,8.05295166015625,-0.0036745709367096424,0.14584822952747345,-0.0278239157050848
1733714515816970800,8.062970703125,-0.003654866712167859,0.1332627683877945,-0.029472874477505684
1733714515826989800,8.07298974609375,-0.01059719454497099,0.11846224963665009,-0.028987647965550423
1733714515837008600,8.083008544921874,-0.011342617683112621,0.09638429433107376,-0.030211232602596283
1733714515847027700,8.09302783203125,-0.01371442899107933,0.07685134559869766,-0.031836025416851044
1733714515857046800,8.103046875,-0.013136511668562889,0.07340749353170395,-0.026601063087582588
1733714515867065900,8.11306591796875,-0.013554096221923828,0.0761641338467598,-0.026402922347187996
1733714515877084700,8.123084716796875,-0.010751568712294102,0.08406484127044678,-0.0285703856498003
1733714515887103700,8.133103759765625,-0.010333718731999397,0.08478096127510071,-0.0367116704583168
1733714515897122800,8.143122802734375,-0.008021561428904533,0.08613567054271698,-0.04220354184508324
1733714515907142000,8.153141845703125,-0.008015436120331287,0.07554773986339569,-0.04163042828440666
1733714515917160700,8.16316064453125,-0.006048162933439016,0.06623826920986176,-0.03803199529647827
1733714515927179800,8.1731796875,-0.006923810113221407,0.05535366013646126,-0.03311340510845184
1733714515937198800,8.18319873046875,-0.004947386682033539,0.04732811823487282,-0.02443614974617958
1733714515947219000,8.193218994140626,-0.006202001590281725,0.038386020809412,-0.01589805632829666
1733714515957237800,8.20323779296875,-0.00928647443652153,0.02512773871421814,-0.017659470438957214
1733714515967256800,8.2132568359375,-0.01427564024925232,0.011113121174275875,-0.01913566142320633
1733714515977276000,8.22327587890625,-0.016871513798832893,-0.0055236308835446835,-0.026188721880316734
1733714515987295000,8.233294921875,-0.02243911847472191,-0.02163522318005562,-0.030402906239032745
1733714515997313800,8.243313720703124,-0.02430466189980507,-0.030991660431027412,-0.028374742716550827
1733714516007332900,8.253332763671875,-0.02431451715528965,-0.03995399922132492,-0.02688310667872429
1733714516017352000,8.26335205078125,-0.01867065578699112,-0.03817213699221611,-0.029026107862591743
1733714516027371000,8.27337109375,-0.012134725227952003,-0.03203887864947319,-0.020119698718190193
1733714516037389800,8.283389892578125,-0.007170150056481361,-0.025893617421388626,-0.01533447578549385
1733714516047409000,8.293408935546875,-0.006564813666045666,-0.023161746561527252,-0.01857607439160347
1733714516057428000,8.303427978515625,-0.007626703474670649,-0.019347598776221275,-0.018700290471315384
1733714516067447000,8.313447021484375,-0.010536473244428635,-0.017475662752985954,-0.014049346558749676
1733714516077465900,8.3234658203125,-0.013556319288909435,-0.008889395743608475,-0.009885339997708797
1733714516087485000,8.33348486328125,-0.017568638548254967,0.005079149734228849,-0.011637966148555279
1733714516097504800,8.3435048828125,-0.017570149153470993,0.020851219072937965,-0.016231540590524673
1733714516107523800,8.35352392578125,-0.017201034352183342,0.03719743713736534,-0.022386105731129646
1733714516117542700,8.363542724609376,-0.022777074947953224,0.04911866784095764,-0.02821158990263939
1733714516127561700,8.373561767578124,-0.021876128390431404,0.06442146003246307,-0.033299293369054794
1733714516137580800,8.383580810546874,-0.015969054773449898,0.08300939947366714,-0.03523186221718788
1733714516147600000,8.393599853515624,-0.013228928670287132,0.09394913166761398,-0.026336638256907463
1733714516157618700,8.40361865234375,-0.00644923048093915,0.10592641681432724,-0.019805291667580605
1733714516167637800,8.4136376953125,-0.0024574187118560076,0.11996953189373016,-0.01370185986161232
1733714516177656800,8.42365673828125,-0.003584114369004965,0.12989623844623566,-0.009913401678204536
1733714516187675600,8.433675537109375,-0.005496263969689608,0.13030236959457397,-0.009627111256122589
1733714516197694700,8.44369482421875,-0.008212593384087086,0.12602250277996063,-0.01842169649899006
1733714516207713800,8.4537138671875,-0.011171098798513412,0.11704445630311966,-0.024247094988822937
1733714516217732900,8.46373291015625,-0.0182631928473711,0.10797281563282013,-0.027612769976258278
1733714516227751700,8.473751708984375,-0.016907643526792526,0.10239242762327194,-0.02250189706683159
1733714516237771800,8.483771728515626,-0.018472425639629364,0.10832509398460388,-0.026445996016263962
1733714516247790800,8.493790771484376,-0.01808307133615017,0.11312490701675415,-0.02337057702243328
1733714516257810000,8.503809814453126,-0.010123501531779766,0.11276504397392273,-0.022286685183644295
1733714516267829000,8.5138291015625,-0.007393227890133858,0.11162760853767395,-0.016494309529662132
1733714516277847800,8.523847900390624,-0.002704641316086054,0.11069117486476898,-0.01171708945184946
1733714516287867000,8.533866943359374,-0.0036679068580269814,0.10892309993505478,-0.014668404124677181
1733714516297886000,8.543885986328124,-0.0014888298464938998,0.10809139907360077,-0.019749296829104424
1733714516307904800,8.55390478515625,-0.005182367749512196,0.09592314809560776,-0.024165082722902298
1733714516317923800,8.563923828125,-0.008389788679778576,0.09087292850017548,-0.02925593964755535
1733714516327943000,8.57394287109375,-0.008904843591153622,0.08238303661346436,-0.02480260096490383
1733714516337962000,8.5839619140625,-0.011521751992404461,0.07105973362922668,-0.017037637531757355
1733714516347980800,8.593980712890625,-0.01365680806338787,0.06255599111318588,-0.012851946987211704
1733714516357999900,8.603999755859375,-0.013258932158350945,0.051080431789159775,-0.009833520278334618
1733714516368019700,8.614019775390625,-0.008444203063845634,0.04150503873825073,-0.008629770949482918
1733714516378038800,8.624038818359375,-0.0057521057315170765,0.029221583157777786,-0.0058495718985795975
1733714516388057900,8.634057861328126,-0.0031382134184241295,0.017189420759677887,-0.00944057758897543
1733714516398076700,8.64407666015625,-0.0052887145429849625,0.005036571063101292,-0.007963490672409534
1733714516408095700,8.654095703125,-0.003520375583320856,-0.008418784476816654,-0.007371736224740744
1733714516418114800,8.66411474609375,-0.0025146682746708393,-0.019664185121655464,-0.004134326241910458
1733714516428133600,8.674133544921874,-0.0008712317212484777,-0.02842758223414421,-0.005044328514486551
1733714516438152700,8.684152587890624,-0.002061408245936036,-0.03519444167613983,-0.01120684202760458
1733714516448171800,8.694171875,0.0008939014514908195,-0.04178576543927193,-0.008485358208417892
1733714516458190800,8.70419091796875,-0.0018320082454010844,-0.04005127400159836,-0.008297337219119072
1733714516468209700,8.714209716796875,-0.008796706795692444,-0.039855003356933594,-0.008873645216226578
1733714516478228700,8.724228759765625,-0.014179679565131664,-0.05092651769518852,-0.011353792622685432
1733714516488247800,8.734247802734375,-0.016427386552095413,-0.060143716633319855,-0.01609714888036251
1733714516498267000,8.744266845703125,-0.013123915530741215,-0.05990501865744591,-0.009255475364625454
1733714516508286700,8.75428662109375,-0.009301213547587395,-0.041658639907836914,0.000027239322662353516
1733714516518305800,8.764305908203125,-0.005027631763368845,-0.018766338005661964,0.001795005053281784
1733714516528324900,8.774324951171875,-0.0033439812250435352,0.0037695958744734526,0.0027609337121248245
1733714516538344000,8.784343994140626,-0.00592484837397933,0.019603371620178223,-0.0027383954729884863
1733714516548362800,8.79436279296875,-0.0069208708591759205,0.03992755338549614,-0.00683194026350975
1733714516558381800,8.8043818359375,-0.007451280485838652,0.059603456407785416,-0.006731763016432524
1733714516568401000,8.81440087890625,-0.005566561594605446,0.07587883621454239,-0.0068548014387488365
1733714516578420000,8.824419921875,-0.006714032497256994,0.08589479327201843,-0.009775475598871708
1733714516588438800,8.834438720703124,-0.005229586735367775,0.08547907322645187,-0.01520566176623106
1733714516598457900,8.844457763671874,-0.004500774201005697,0.08806276321411133,-0.025053737685084343
1733714516608477000,8.854476806640625,-0.008601776324212551,0.08965959399938583,-0.02027975581586361
1733714516618496000,8.86449609375,-0.007573258131742477,0.08934733271598816,-0.013487867079675198
1733714516628514800,8.874514892578125,-0.005699990317225456,0.0830707997083664,-0.01058235764503479
1733714516638535000,8.884534912109375,-0.0047289105132222176,0.08076230436563492,-0.018251953646540642
1733714516648553700,8.8945537109375,-0.006025869399309158,0.07244525104761124,-0.017910270020365715
1733714516658572800,8.90457275390625,-0.003781442064791918,0.06530524045228958,-0.013319259509444237
1733714516668591600,8.914591552734375,-0.005932743661105633,0.062443941831588745,-0.007101045455783606
1733714516678610700,8.924610595703125,-0.006156195420771837,0.06255500018596649,-0.008136007934808731
1733714516688629800,8.934629638671876,-0.004048303235322237,0.051041629165410995,-0.007961303927004337
1733714516698648800,8.94464892578125,0.002773212268948555,0.04435507580637932,-0.006606314796954393
1733714516708667600,8.954667724609376,0.0015074119437485933,0.05007341504096985,-0.006438801996409893
1733714516718686700,8.964686767578126,-0.00043074938002973795,0.056501515209674835,-0.013023089617490768
1733714516728705800,8.974705810546874,-0.002316799946129322,0.05137493088841438,-0.019743043929338455
1733714516738724900,8.984724853515624,-0.0027596792206168175,0.0372246652841568,-0.017129220068454742
1733714516748743700,8.99474365234375,-0.0007034525624476373,0.027500396594405174,-0.010062523186206818
1733714516758762800,9.0047626953125,-0.002089620102196932,0.029188966378569603,-0.007495206780731678
1733714516768782800,9.014782958984375,0.0025956793688237667,0.03363697975873947,-0.006117553450167179
1733714516778802000,9.024802001953125,0.0041450923308730125,0.033906240016222,-0.003548459615558386
1733714516788820700,9.03482080078125,0.0051371194422245026,0.023905005306005478,-0.002983603160828352
1733714516798839800,9.04483984375,0.0059117418713867664,0.01085770782083273,-0.003996179439127445
1733714516808859000,9.05485888671875,0.004220634698867798,0.003157710423693061,-0.004252641927450895
1733714516818878000,9.0648779296875,0.004626859910786152,-0.0013207701267674565,-0.008661896921694279
1733714516828896800,9.074896728515625,0.0032465432304888964,-0.012353181838989258,-0.00893460400402546
1733714516838915800,9.084915771484376,0.0023261643946170807,-0.027623401954770088,-0.008820494636893272
1733714516848935000,9.094934814453126,0.004677203483879566,-0.03512978553771973,-0.007774137891829014
1733714516858954800,9.104954833984374,0.0004401042824611068,-0.049048878252506256,-0.009113568812608719
1733714516868973800,9.114973876953124,-0.001049668062478304,-0.06668485701084137,-0.012112021446228027
1733714516878992600,9.12499267578125,-0.002393929287791252,-0.08618450909852982,-0.015209374949336052
1733714516889011700,9.13501171875,-0.006254181265830994,-0.1038026511669159,-0.008929640986025333
1733714516899031600,9.145031494140625,-0.005880990996956825,-0.1157609224319458,-0.00107260188087821
1733714516909050600,9.155050537109375,-0.004436758812516928,-0.12778429687023163,0.0035264110192656517
1733714516919069700,9.165069580078125,-0.005203666631132364,-0.1324273943901062,0.005421697627753019
1733714516929088500,9.175088623046875,-0.004106177948415279,-0.13663172721862793,0.00382486660964787
1733714516939107600,9.185107666015625,-0.00433467049151659,-0.14546716213226318,0.009764277376234531
1733714516949126700,9.195126708984375,-0.0068723964504897594,-0.1493370085954666,0.010900914669036865
1733714516959145700,9.205145751953125,-0.007747954688966274,-0.14616599678993225,0.008577250875532627
1733714516969164500,9.21516455078125,-0.004915416240692139,-0.12836596369743347,0.01214295718818903
1733714516979183600,9.22518359375,-0.00012040347792208195,-0.10653690248727798,0.01212472002953291
1733714516989202700,9.23520263671875,0.0009182292269542813,-0.08785935491323471,0.011931641027331352
1733714516999221500,9.245221435546876,0.0019760350696742535,-0.07111575454473495,0.011748316697776318
1733714517009240600,9.255240478515624,0.0004029057454317808,-0.06491591781377792,0.01329428143799305
1733714517019259600,9.265259765625,0.003364521311596036,-0.059095386415719986,0.014790432527661324
1733714517029279700,9.27527978515625,0.004325389862060547,-0.04996180906891823,0.012144049629569054
1733714517039298800,9.285298828125,0.006111399736255407,-0.03617553412914276,0.01240464672446251
1733714517049317600,9.295317626953125,0.0074339257553219795,-0.02407199889421463,0.008780350908637047
1733714517059336700,9.305336669921875,0.007411112543195486,-0.02363232523202896,0.013181967660784721
1733714517069355800,9.315355712890625,0.007118164096027613,-0.02043546736240387,0.013967867009341717
1733714517079374600,9.32537451171875,0.008896352723240852,-0.013505829498171806,0.016457725316286087
1733714517089393700,9.3353935546875,0.010978678241372108,-0.004340027458965778,0.025414202362298965
1733714517099412700,9.345412841796875,0.012752704322338104,0.002772368025034666,0.02555815316736698
1733714517109431800,9.355431884765625,0.01200195774435997,0.00991150364279747,0.02736137993633747
1733714517119450600,9.36545068359375,0.013045295141637325,0.014361661858856678,0.03494132310152054
1733714517129469700,9.3754697265625,0.016216322779655457,0.01566767692565918,0.03516769036650658
1733714517139488800,9.38548876953125,0.019466888159513474,0.02089010365307331,0.025965828448534012
1733714517149507800,9.3955078125,0.021652013063430786,0.03249748796224594,0.01094346959143877
1733714517159527700,9.405527587890624,0.0216780174523592,0.03882953152060509,-0.0022097581531852484
1733714517169546500,9.41554638671875,0.020079853013157845,0.03140037879347801,-0.00996408425271511
1733714517179565600,9.425565673828125,0.015881117433309555,0.01725415140390396,-0.0128790820017457
1733714517189584600,9.435584716796875,0.01579829305410385,0.00861299317330122,-0.020884010940790176
1733714517199603500,9.445603515625,0.019297868013381958,0.007223544642329216,-0.02250109612941742
1733714517209622500,9.45562255859375,0.018145252019166946,0.011776218190789223,-0.016680492088198662
1733714517219641600,9.4656416015625,0.017345592379570007,0.03384506702423096,-0.007801933214068413
1733714517229660700,9.47566064453125,0.016856901347637177,0.04704369232058525,-0.002511031227186322
1733714517239679500,9.485679443359375,0.017389707267284393,0.051903221756219864,-0.003664222313091159
1733714517249698600,9.495698486328125,0.015647467225790024,0.04828265681862831,-0.006151881068944931
1733714517259717600,9.505717529296875,0.015032812021672726,0.044042591005563736,-0.005380264949053526
1733714517269736700,9.51573681640625,0.010355768725275993,0.04498215392231941,-0.0031749012414366007
1733714517279756800,9.5257568359375,0.0076138656586408615,0.04108491539955139,0.0038042906671762466
1733714517289775600,9.535775634765624,0.0031653214246034622,0.03836476430296898,0.0007965164259076118
1733714517299794700,9.545794677734374,0.0009652891894802451,0.02182910218834877,0.0008678196463733912
1733714517309813800,9.555813720703124,0.0010052366415038705,0.012047313153743744,0.0018004586454480886
1733714517319832600,9.56583251953125,0.004236438311636448,0.003442339599132538,0.0051028188318014145
1733714517329851600,9.5758515625,0.007328900508582592,-0.012258592993021011,0.007412844803184271
1733714517339870700,9.58587060546875,0.009930020198225975,-0.025194285437464714,0.009030576795339584
1733714517349889800,9.595889892578125,0.008445041254162788,-0.02763427421450615,0.006158091127872467
1733714517359908600,9.60590869140625,0.005858840420842171,-0.03542019799351692,0.004766658879816532
1733714517369927700,9.615927734375,0.0037323059514164925,-0.0446842685341835,0.0023839285131543875
1733714517379946800,9.62594677734375,0.0015921026933938265,-0.059298399835824966,0.002624566201120615
1733714517389965800,9.6359658203125,-0.0018028951017186046,-0.06483431160449982,0.005208897404372692
1733714517399984600,9.645984619140625,-0.00536541361361742,-0.06547434628009796,0.004815687891095877
1733714517410004700,9.656004638671876,-0.006693265400826931,-0.06285353004932404,0.006619180552661419
1733714517420023600,9.6660234375,-0.005757431033998728,-0.062129680067300797,0.008725208230316639
1733714517430042600,9.676042724609376,-0.006185933481901884,-0.062056444585323334,0.01195109449326992
1733714517440061700,9.686061767578124,-0.005915788933634758,-0.06047424301505089,0.013402421958744526
1733714517450080500,9.69608056640625,-0.005908865015953779,-0.0568251796066761,0.016448013484477997
1733714517460099600,9.706099609375,-0.00791395828127861,-0.050533995032310486,0.014926016330718994
1733714517470118700,9.71611865234375,-0.006219655741006136,-0.036992620676755905,0.012127299793064594
1733714517480137500,9.726137451171875,-0.0033650181721895933,-0.0208553709089756,0.015049123205244541
1733714517490156500,9.736156494140625,-0.0015540686435997486,-0.005035660229623318,0.009880459867417812
1733714517500175600,9.746175537109375,-0.0010544521501287818,0.0011022533290088177,0.001804453320801258
1733714517510194700,9.756194580078125,0.002781032584607601,0.006085294298827648,0.0003985706716775894
1733714517520213500,9.766213623046875,0.0031150795985013247,0.00950908474624157,0.001160879386588931
1733714517530233600,9.776233642578125,0.0036509076599031687,0.009955164045095444,0.005544442217797041
1733714517540252700,9.786252685546875,0.005220760125666857,0.0086000245064497,0.0013223517453297973
1733714517550271700,9.796271728515626,0.005211438983678818,0.013550841249525547,0.005621759220957756
1733714517560290600,9.80629052734375,0.006504219025373459,0.015078287571668625,0.0022418564185500145
1733714517570309600,9.8163095703125,0.0008106464520096779,0.018529212102293968,0.00265145068988204
1733714517580328700,9.82632861328125,0.002071292605251074,0.024656187742948532,0.0019343867897987366
1733714517590347800,9.83634765625,0.002893144264817238,0.029012322425842285,0.0012017511762678623
1733714517600366600,9.84636669921875,0.003822334110736847,0.027448013424873352,-0.006982982158660889
1733714517610385700,9.8563857421875,0.0038598845712840557,0.021153898909687996,-0.005610389169305563
1733714517620404700,9.86640478515625,-0.0017248644726350904,0.01338246464729309,-0.006694100797176361
1733714517630423800,9.876423828125,-0.0008880992536433041,0.005160220433026552,-0.009583896957337856
1733714517640442600,9.886442626953125,-0.0016027941601350904,0.00842350348830223,-0.009252892807126045
1733714517650462700,9.896462646484375,-0.0015050561632961035,0.02021544612944126,-0.010946131311357021
1733714517660481800,9.906481689453125,-0.0007076096953824162,0.024011408910155296,-0.010364622808992863
1733714517670500900,9.9165009765625,0.0005238360026851296,0.024129120633006096,-0.00901999231427908
1733714517680519700,9.926519775390625,-0.0023374762386083603,0.025262748822569847,-0.007290130015462637
1733714517690538800,9.936538818359375,-0.0015262773958966136,0.025020932778716087,-0.003281539538875222
1733714517700557800,9.946557861328126,0.0018061388982459903,0.03094535320997238,-0.0004419789183884859
1733714517710577000,9.956576904296876,-0.003490888513624668,0.032643385231494904,0.0017245026538148522
1733714517720595700,9.966595703125,-0.0034107211977243423,0.0384678915143013,0.0028634669724851847
1733714517730614800,9.97661474609375,-0.006006504409015179,0.031159114092588425,-0.0035177331883460283
1733714517740633600,9.986633544921874,-0.00658388389274478,0.03292488306760788,-0.005944069474935532
1733714517750652700,9.996652587890624,-0.006507184822112322,0.03851672261953354,-0.006462054327130318
1733714517760671500,10.00667138671875,-0.004407183267176151,0.04932207614183426,-0.004822906106710434
1733714517770691600,10.016691650390625,-0.004950734321027994,0.05124780535697937,-0.004596004728227854
1733714517780710700,10.026710693359375,-0.003460163017734885,0.061497513204813004,-0.0028644173871725798
1733714517790729700,10.036729736328125,-0.00019539380446076393,0.06422939151525497,0.004788176156580448
1733714517800748500,10.04674853515625,0.0008789158891886473,0.0676567479968071,0.0062986924313008785
1733714517810767600,10.056767578125,0.0006831735372543335,0.06698456406593323,0.01189053151756525
1733714517820786700,10.06678662109375,0.0004966598935425282,0.06294327974319458,0.015168840065598488
1733714517830805800,10.0768056640625,0.000010366551578044891,0.060391172766685486,0.022214766591787338
1733714517840824600,10.086824462890625,0.002350225578993559,0.059737805277109146,0.029121339321136475
1733714517850843600,10.09684375,0.001743557513691485,0.05587062984704971,0.028690971434116364
1733714517860862000,10.106862060546876,-0.002278701402246952,0.0626230463385582,0.022047070786356926
1733714517870880800,10.116880859375,-0.0021410160697996616,0.0741281658411026,0.019497092813253403
1733714517880899800,10.12689990234375,0.0009754018392413855,0.08416797965765,0.022697722539305687
1733714517890920000,10.136919921875,0.0006502298638224602,0.08450566977262497,0.023900670930743217
1733714517900939000,10.14693896484375,-0.0027964229229837656,0.07537537068128586,0.021429119631648064
1733714517910957800,10.156957763671874,-0.004082995932549238,0.059000127017498016,0.011783949099481106
1733714517920977000,10.166976806640625,-0.00702258013188839,0.038386810570955276,-0.0010126791894435883
1733714517930996000,10.176995849609375,-0.001082665752619505,0.029050830751657486,-0.0057230121456086636
1733714517941015000,10.18701513671875,-0.00016565958503633738,0.02631988376379013,-0.0026231773663312197
1733714517951033900,10.197033935546875,-0.002489800099283457,0.016292816027998924,-0.009051249362528324
1733714517961053000,10.207052978515625,-0.0019564619287848473,0.005870862863957882,-0.010891802608966827
1733714517971072000,10.217072021484375,-0.004458235576748848,-0.0017764039803296328,-0.006789202801883221
1733714517981091000,10.227091064453125,-0.0026885620318353176,0.0013631500769406557,-0.0025751846842467785
1733714517991110000,10.23710986328125,-0.002294680569320917,0.007642883807420731,0.0022211684845387936
1733714518001129000,10.24712890625,-0.004806938115507364,0.004250704310834408,0.00012901637819595635
1733714518011149000,10.257149169921876,-0.0042332932353019714,-0.000859369058161974,0.0016384960617870092
1733714518021167900,10.26716796875,-0.00714572099968791,-0.00386643735691905,-0.001195443095639348
1733714518031187000,10.27718701171875,-0.0049435533583164215,-0.003956452012062073,0.003210224211215973
1733714518041205800,10.287205810546874,-0.008283515460789204,-0.0038160416297614574,0.005053888075053692
1733714518051224800,10.297224853515624,-0.011767196469008923,-0.0042762355878949165,0.010890738107264042
1733714518061244000,10.307243896484374,-0.011256225407123566,0.0011007017455995083,0.006091245450079441
1733714518071262700,10.3172626953125,-0.011033851653337479,-0.0008926742011681199,0.007901130244135857
1733714518081281800,10.32728173828125,-0.01163412630558014,-0.006490685045719147,0.013796934857964516
1733714518091300900,10.33730078125,-0.014329778030514717,-0.008361022919416428,0.012538323178887367
1733714518101320000,10.34731982421875,-0.010471823625266552,-0.010675732046365738,0.009676463901996613
1733714518111338800,10.3573388671875,-0.01407188456505537,-0.015892863273620605,0.010728945024311543
1733714518121357800,10.36735791015625,-0.012277458794414997,-0.0222520399838686,0.004747358150780201
1733714518131378000,10.3773779296875,-0.011181301437318325,-0.03025830164551735,0.002866101451218128
1733714518141397000,10.38739697265625,-0.008369182236492634,-0.02718524821102619,0.0036113657988607883
1733714518151415800,10.397415771484376,-0.007547597400844097,-0.02080165036022663,0.0025469004176557064
1733714518161435000,10.407434814453126,-0.005352878011763096,-0.017681632190942764,0.004173588007688522
1733714518171454000,10.417453857421876,-0.004801337607204914,-0.021336020901799202,0.0062804147601127625
1733714518181473000,10.42747314453125,-0.005313992500305176,-0.025544393807649612,0.006454417482018471
1733714518191491800,10.437491943359374,-0.006000821944326162,-0.027468528598546982,0.00942490715533495
1733714518201511000,10.447510986328124,-0.007326107006520033,-0.031971827149391174,0.012018418870866299
1733714518211530000,10.457530029296874,-0.007945824414491653,-0.026691310107707977,0.009444473311305046
1733714518221549000,10.467549072265625,-0.008353288285434246,-0.021059788763523102,0.003954367246478796
1733714518231568000,10.47756787109375,-0.007216118276119232,-0.016341201961040497,-0.000015074212569743395
1733714518241588000,10.487587890625,-0.006543480791151524,-0.008790244348347187,-0.0018032037187367678
1733714518251607000,10.49760693359375,-0.006170105654746294,-0.00586156640201807,0.0011305345688015223
1733714518261626000,10.507626220703125,-0.005704594776034355,-0.007041207514703274,-0.0036429441533982754
1733714518271645000,10.51764501953125,-0.002339690923690796,-0.005139444023370743,-0.008265659213066101
1733714518281664000,10.5276640625,-0.0037150424905121326,0.00006820983253419399,-0.009281529113650322
1733714518291683000,10.53768310546875,-0.004056725651025772,0.008853712119162083,-0.011492752470076084
1733714518301702100,10.5477021484375,0.0009368831524625421,0.022179294377565384,-0.007814674638211727
1733714518311721000,10.557720947265626,-0.00041600281838327646,0.030953608453273773,-0.004779735580086708
1733714518321740000,10.567739990234376,0.002025316935032606,0.03730817884206772,-0.010057322680950165
1733714518331758800,10.5777587890625,0.0011539306724444032,0.036035455763339996,-0.010036016814410686
1733714518341778000,10.58777783203125,0.0020792086143046618,0.032683223485946655,-0.00013371044769883156
1733714518351797000,10.597796875,0.002083203522488475,0.03399429842829704,-0.0010293314699083567
1733714518361815800,10.60781591796875,-0.0014985853340476751,0.03446859121322632,-0.00018368117162026465
1733714518371836000,10.6178359375,-0.005552981980144978,0.026191486045718193,-0.005344088189303875
1733714518381855000,10.62785498046875,-0.0020556985400617123,0.013219967484474182,-0.004879743326455355
1733714518391873800,10.637873779296875,-0.002968097571283579,0.010051338002085686,-0.00998582225292921
1733714518401892900,10.647892822265625,-0.0011688783997669816,0.0146915502846241,-0.00197116588242352
1733714518411912000,10.657911865234375,0.005262655671685934,0.025803856551647186,-0.006136349868029356
1733714518421931000,10.667930908203125,0.005138283595442772,0.03173236548900604,-0.00871039368212223
1733714518431949800,10.67794970703125,0.0028663405682891607,0.028255075216293335,-0.007147117983549833
1733714518441969000,10.687968994140626,0.004857939667999744,0.022360999137163162,-0.0025381394661962986
1733714518451988000,10.697988037109376,0.0026680221781134605,0.020582539960741997,0.0024760602973401546
1733714518462006800,10.7080068359375,0.0035568205639719963,0.02045716904103756,0.006447703577578068
1733714518472025900,10.71802587890625,0.0020601237192749977,0.016980944201350212,0.0033709534909576178
1733714518482046000,10.7280458984375,0.002980512101203203,0.01296756137162447,-0.0021857318934053183
1733714518492065000,10.73806494140625,0.0029094060882925987,0.00929772574454546,-0.006428680382668972
1733714518502084000,10.748083984375,0.00032258767168968916,0.008225551806390285,-0.004207015503197908
1733714518512103000,10.75810302734375,-0.002721671713516116,0.0020566058810800314,0.00264236843213439
1733714518522122000,10.7681220703125,-0.004895086400210857,-0.007325038313865662,0.007104199845343828
1733714518532141000,10.77814111328125,-0.00666901795193553,-0.017633069306612015,0.006325225345790386
1733714518542160100,10.78816015625,-0.010517543181777,-0.019483838230371475,0.0016988107236102223
1733714518552179000,10.798178955078125,-0.010106883943080902,-0.023042088374495506,-0.003210460301488638
1733714518562198000,10.808197998046875,-0.01114747580140829,-0.028834622353315353,-0.00023265447816811502
1733714518572217000,10.818217041015625,-0.012324593029916286,-0.03504697605967522,-0.0037669355515390635
1733714518582236000,10.82823583984375,-0.011470688506960869,-0.05289452522993088,-0.0016200206009671092
1733714518592255700,10.838255859375,0.0017218124121427536,-0.07482379674911499,0.003229595720767975
1733714518602274800,10.84827490234375,0.00816258043050766,-0.06759227812290192,0.009699899703264236
1733714518612294000,10.8582939453125,0.00452390406280756,-0.05270148068666458,0.011452525854110718
1733714518622313000,10.86831298828125,0.0022281603887677193,-0.04568389430642128,0.0084072295576334
1733714518632331800,10.878331787109374,0.000009746989235281944,-0.051303695887327194,0.006982437334954739
1733714518642350800,10.888350830078124,-0.000240134890191257,-0.05683791637420654,0.004607080947607756
1733714518652370000,10.898369873046875,-0.0014039363013580441,-0.048735249787569046,0.00874217040836811
1733714518662388700,10.908388671875,-0.004601689986884594,-0.032275740057229996,0.010359101928770542
1733714518672407800,10.91840771484375,-0.002159304916858673,-0.024932071566581726,0.0046594045124948025
1733714518682427000,10.928427001953125,-0.0052985320799052715,-0.015919916331768036,-0.00295174028724432
1733714518692446000,10.938446044921875,-0.004395986907184124,-0.00977733638137579,0.001102922484278679
1733714518702464800,10.94846484375,-0.0040916018187999725,0.0021098691504448652,-0.0020024506375193596
1733714518712484900,10.95848486328125,-0.004184279590845108,0.007346176542341709,-0.0030948794446885586
1733714518722504000,10.96850390625,0.001504848594777286,0.005195751786231995,-0.0029406684916466475
1733714518732523000,10.97852294921875,0.0011605018517002463,0.0011418878566473722,0.000809062214102596
1733714518742542000,10.9885419921875,-0.002862732857465744,0.0019027066882699728,-0.0070421043783426285
1733714518752561000,10.998560791015626,0.0007386601064354181,0.006925161927938461,-0.009495141915977001
1733714518762580000,11.008580078125,0.0003181468928232789,0.008140895515680313,-0.007247167639434338
1733714518772599000,11.01859912109375,0.001139465719461441,0.012081574648618698,-0.0023424243554472923
1733714518782617900,11.028617919921874,0.0024327835999429226,0.013446209952235222,-0.0021151446271687746
1733714518792637000,11.038636962890624,0.005024306010454893,0.017181025817990303,0.0008281809859909117
1733714518802656000,11.048656005859375,0.0027843271382153034,0.02042413130402565,-0.0003665826516225934
1733714518812675000,11.058675048828125,0.006705033127218485,0.018514377996325493,0.00409421231597662
1733714518822695000,11.06869482421875,0.003005456179380417,0.01104876957833767,0.0018181203631684184
1733714518832713700,11.078713623046875,0.00297855818644166,-0.0056077055633068085,-0.006371899042278528
1733714518842732800,11.08873291015625,0.0028326204046607018,-0.012709603644907475,-0.00607725465670228
1733714518852752000,11.098751953125,0.0042331768199801445,-0.006810967810451984,-0.0008763676742091775
1733714518862771500,11.108771484375,0.008668498136103153,0.00022078072652220726,0.002120263408869505
1733714518872790300,11.118790283203126,0.005671377293765545,0.005179054103791714,0.0013037383323535323
1733714518882809300,11.128809326171876,0.005178239196538925,0.003313367022201419,-0.004276467487215996
1733714518892828400,11.138828369140626,0.004473567008972168,-0.0029498550575226545,-0.0036370428279042244
1733714518902847500,11.148847412109374,0.000728295766748488,-0.005636714864522219,-0.004973037168383598
1733714518912866300,11.1588662109375,0.00422715675085783,-0.0015431700740009546,-0.010523331351578236
1733714518922885400,11.168885498046874,0.0038180951960384846,0.004046006128191948,-0.009836501441895962
1733714518932905500,11.178905517578125,0.004224298521876335,0.012760352343320847,-0.011586214415729046
1733714518942924500,11.188924560546875,0.008389478549361229,0.019312307238578796,-0.007275720126926899
1733714518952943400,11.198943359375,0.010502430610358715,0.019832689315080643,-0.004806436598300934
1733714518962962400,11.20896240234375,0.011016068048775196,0.021329354494810104,0.0008318957989104092
1733714518972981500,11.2189814453125,0.009632289409637451,0.017680557444691658,0.00010591812315396965
1733714518983000600,11.22900048828125,0.007786197122186422,0.016035914421081543,0.002302522072568536
1733714518993019400,11.239019287109375,0.0037946514785289764,0.015336570329964161,0.004678328055888414
1733714519003038500,11.24903857421875,0.000997436000034213,0.014682871289551258,0.004816938191652298
1733714519013057500,11.2590576171875,0.003541287500411272,0.009118995629251003,0.0009284566040150821
1733714519023076600,11.26907666015625,0.0035338159650564194,0.003276786534115672,0.004691810347139835
1733714519033095400,11.279095458984376,0.0015028893249109387,-0.00013498938642442226,0.005707806441932917
1733714519043115300,11.289115234375,0.002126433188095689,0.0005556796677410603,0.0028304997831583023
1733714519053134300,11.29913427734375,0.0026039378717541695,-0.004309116862714291,0.001898127025924623
1733714519063153400,11.3091533203125,0.0009574852883815765,-0.01993897370994091,-0.004662682302296162
1733714519073172200,11.319172119140624,0.0015218090265989304,-0.03282281383872032,0.0005459282547235489
1733714519083191300,11.32919140625,-0.001750240451656282,-0.03945939615368843,0.0005715506267733872
1733714519093210400,11.33921044921875,-0.0002458207309246063,-0.040201619267463684,0.0026701216120272875
1733714519103229400,11.3492294921875,0.002567452844232321,-0.03368857875466347,0.0033657951280474663
1733714519113248300,11.359248291015625,0.004501706454902887,-0.031088532879948616,0.00444277748465538
1733714519123267300,11.369267333984375,0.003011588240042329,-0.028396466746926308,0.003938193432986736
1733714519133286400,11.379286376953125,0.003166850423440337,-0.031634073704481125,-0.0007910481654107571
1733714519143305200,11.38930517578125,0.002396304626017809,-0.03162921592593193,0.002470482839271426
1733714519153324300,11.39932421875,0.005109266843646765,-0.023970497772097588,0.007927832193672657
1733714519163344400,11.409344482421876,0.003996151965111494,-0.01722414791584015,0.0046011232770979404
1733714519173363500,11.419363525390626,0.0071711731143295765,-0.015307736583054066,0.0033185454085469246
1733714519183382500,11.429382568359374,0.004872864577919245,-0.017371952533721924,0.003159821033477783
1733714519193401300,11.4394013671875,0.0060395956970751286,-0.012071463279426098,0.007798781152814627
1733714519203420400,11.44942041015625,0.008113748393952847,-0.008161332458257675,0.008162049576640129
1733714519213439500,11.459439453125,0.005490002688020468,-0.010817036963999271,0.00880360510200262
1733714519223458600,11.46945849609375,0.008581586182117462,-0.013241170905530453,0.006740539334714413
1733714519233477400,11.479477294921875,0.007374907843768597,-0.014960773289203644,0.008868671022355556
1733714519243496400,11.489496337890625,0.0038067116402089596,-0.013287980109453201,0.007841181941330433
1733714519253515500,11.499515625,0.0038234894163906574,-0.018799925222992897,0.007891515269875526
1733714519263535600,11.50953564453125,0.0023556449450552464,-0.02433611825108528,0.005328965373337269
1733714519273554400,11.519554443359375,0.004046752117574215,-0.027892503887414932,0.006923666223883629
1733714519283573500,11.529573486328125,0.004149110522121191,-0.026932761073112488,0.002912189345806837
1733714519293592600,11.539592529296876,0.0029264534823596478,-0.031789835542440414,0.0003558209864422679
1733714519303611400,11.549611328125,0.003980806563049555,-0.035691194236278534,0.00785334873944521
1733714519313630500,11.55963037109375,0.001549606560729444,-0.03302670270204544,0.011994564905762672
1733714519323649300,11.569649169921876,0.0034009499941021204,-0.031681038439273834,0.009969384409487247
1733714519333668400,11.57966845703125,0.0036323785316199064,-0.03381502628326416,0.002614798955619335
1733714519343687400,11.5896875,0.00310648325830698,-0.034203458577394485,0.003572653280571103
1733714519353706200,11.599706298828124,0.0027916976250708103,-0.03870287165045738,0.0046384502202272415
1733714519363725300,11.609725341796874,0.0017913209740072489,-0.04268157109618187,0.0013057281030341983
1733714519373745400,11.619745361328125,0.0008664052002131939,-0.04838819056749344,0.00017787941033020616
1733714519383764500,11.629764404296875,-0.002418859861791134,-0.05656716600060463,-0.001753682503476739
1733714519393783300,11.639783203125,-0.002683311700820923,-0.05772484466433525,0.0012575536966323853
1733714519403802400,11.64980224609375,-0.0023987097665667534,-0.050665318965911865,0.006671283859759569
1733714519413821400,11.659821533203125,-0.002067412482574582,-0.042901672422885895,0.009363739751279354
1733714519423840500,11.669840576171875,0.00033830362372100353,-0.029535187408328056,0.009500373154878616
1733714519433859300,11.679859375,0.0012360552791506052,-0.024664266034960747,0.006198852322995663
1733714519443878400,11.68987841796875,-0.00008770485874265432,-0.022988449782133102,0.005241320468485355
1733714519453897500,11.6998974609375,-0.0012429840862751007,-0.025239884853363037,0.0060064466670155525
1733714519463916300,11.709916259765626,0.0004182020202279091,-0.027676081284880638,0.008910847827792168
1733714519473935400,11.719935302734376,0.0004152725450694561,-0.02943563275039196,0.010007536970078945
1733714519483955500,11.72995556640625,0.0004054302116855979,-0.024655397981405258,0.009563084691762924
1733714519493974500,11.739974609375,0.005368497222661972,-0.01611597090959549,0.008731911890208721
1733714519503993600,11.74999365234375,0.0009258118225261569,-0.008831427432596684,0.00851672887802124
1733714519514012400,11.760012451171875,-0.0010811462998390198,-0.00818108394742012,0.007262113504111767
1733714519524031500,11.770031494140625,-0.002527959179133177,-0.021142609417438507,0.0025957361795008183
1733714519534050600,11.780050537109375,-0.007685170508921146,-0.029443416744470596,0.0007469697156921029
1733714519544069600,11.790069580078125,-0.005667121149599552,-0.030131516978144646,0.004989609122276306
1733714519554088400,11.80008837890625,-0.00688631646335125,-0.023990001529455185,0.004284404218196869
1733714519564107500,11.810107421875,-0.006655142176896334,-0.01058139093220234,-0.00285017560236156
1733714519574126600,11.820126708984375,-0.0021866243332624435,-0.007991200312972069,-0.0024285970721393824
1733714519584145400,11.8301455078125,-0.0006069422233849764,-0.003531269496306777,0.0010928295087069273
1733714519594165200,11.840165283203126,0.0018037512199953198,-0.0007141777314245701,0.006059625186026096
1733714519604184300,11.850184326171876,0.000008957111276686192,0.005623362958431244,0.004724904429167509
1733714519614203400,11.860203369140624,-0.0002943769795820117,0.002904008375480771,0.0029674845281988382
1733714519624222500,11.870222412109374,-0.0019169477745890617,-0.0018785583088174462,0.0041201431304216385
1733714519634241300,11.8802412109375,-0.0059348586946725845,-0.0056005921214818954,-0.0025635920464992523
1733714519644260400,11.89026025390625,-0.0037037618458271027,-0.009440449066460133,-0.0044320388697087765
1733714519654279400,11.900279541015625,-0.0035548913292586803,-0.009510490112006664,-0.0010263884905725718
1733714519664298500,11.910298583984375,-0.001688448479399085,0.0005497119855135679,-0.000054361793445423245
1733714519674317300,11.9203173828125,-0.0030248225666582584,0.013287078589200974,0.0033342442475259304
1733714519684336400,11.93033642578125,-0.0007144472328945994,0.020832158625125885,0.0067441691644489765
1733714519694356500,11.9403564453125,0.0018126263748854399,0.019797254353761673,0.0018591330153867602
1733714519704375600,11.95037548828125,-0.001229754532687366,0.009584643878042698,0.002128771971911192
