time,seconds_elapsed,z,y,x
1733767635511554800,0.036554931640625,-0.25811785222291944,0.2647340554922819,0.49360170170292256
1733767635521514800,0.0465146484375,-0.20099603507518768,0.2642085703134537,0.48404301524087784
1733767635531474700,0.056474609375,-0.13695698588490485,0.27843729441314935,0.3845975754961371
1733767635541434600,0.0664345703125,-0.1765337939918041,0.27319004140943287,0.29656390273422
1733767635551394800,0.076394775390625,-0.07644026560187339,0.2516571317762136,0.23553660258054732
1733767635561354800,0.086354736328125,0.005440729749202728,0.16477964331209657,0.20751053153574464
1733767635571314700,0.096314697265625,-0.06987199312746524,0.02248977196663618,0.2696206584900617
1733767635581275600,0.106275634765625,-0.07222352468967437,-0.060088265737891194,0.40797523621320725
1733767635591235600,0.116235595703125,0.003808160111308098,-0.10674860236495733,0.48164706001505253
1733767635601195500,0.126195556640625,-0.050938744598627086,-0.1764580984070897,0.3805743113294244
1733767635611155500,0.136155517578125,-0.35568098535239695,-0.1385229200273752,0.14249474626779554
1733767635621115600,0.14611572265625,-1.030775710889697,-0.1389399763956666,-0.3382492274276912
1733767635631075600,0.15607568359375,-2.0731658717274666,-0.12845979117453096,-1.53330525380522
1733767635641035500,0.166035400390625,-2.986877630203962,0.5593710818171501,-3.564012916770577
1733767635650995500,0.175995361328125,-3.0434570110380648,1.8931456969246268,-5.90941927409768
1733767635660955600,0.18595556640625,-2.497770755702257,2.094110752339661,-6.742800773796438
1733767635670915600,0.19591552734375,-0.59120706653893,0.9773074478134512,-5.086166954225302
1733767635680875500,0.20587548828125,1.4031675925463438,-1.0568813352659343,-2.1337246775865553
1733767635690836700,0.215836669921875,1.4043407279789446,-2.559017543825507,0.6763100926764309
1733767635700796700,0.225796630859375,1.6859353173792362,-2.6565543734699486,2.5379344237864014
1733767635710756600,0.235756591796875,2.5316531515598295,-2.45740659660995,3.2846550003811714
1733767635720716800,0.245716796875,2.872965419819951,-2.469430504141748,2.858925204029679
1733767635730676700,0.2556767578125,2.2060627685666083,-2.6906881137400864,1.8849984846957026
1733767635740636700,0.26563671875,2.0654969445347784,-2.4206132817417383,0.6098132750704884
1733767635750596600,0.2755966796875,2.780159125828743,-1.6468202815651893,-0.4976780112311244
1733767635760556800,0.285556884765625,3.837629951420426,-1.1786311074078082,-1.073262561224401
1733767635770516700,0.295516845703125,5.1578281688570975,-1.0127493480727077,-1.4043135477110742
1733767635780476700,0.3054765625,6.259737271112203,-1.1113725116491318,-1.5593626551255584
1733767635790436600,0.3154365234375,6.627707829195261,-1.4139111048787831,-1.82191951270923
1733767635800397800,0.325397705078125,6.106406658053397,-1.6970590612009167,-2.2388221517436206
1733767635810357800,0.335357666015625,4.996359257528185,-1.773833088801801,-2.5005261918902395
1733767635820317700,0.345317626953125,3.9006273826032873,-1.750047139544785,-2.0350721417851747
1733767635830278000,0.35527783203125,3.2665625865906476,-1.471926363734901,-1.1835916524246335
1733767635840237800,0.36523779296875,2.8509371278852225,-1.0533110755637287,-0.469660708014667
1733767635850197800,0.37519775390625,2.312521740335226,-0.643313393612206,0.12493380900546908
1733767635860158000,0.385157958984375,1.7900304826259612,-0.22404607127308845,0.4579705624818802
1733767635870118000,0.395117919921875,1.335728379523754,0.11813830364644527,0.4006614060685038
1733767635880077800,0.405077880859375,0.8620446996033191,0.30789544408768416,-0.14368980127125977
1733767635890037800,0.415037841796875,0.32274259234666824,0.29392098701000213,-0.8405850013367832
1733767635899998000,0.424998046875,-0.31814474316239355,0.1962847886443138,-1.3235513272568582
1733767635909959000,0.434958984375,-0.7111071191608905,0.06897475202679634,-1.4367100889250635
1733767635919918800,0.4449189453125,-0.7805600100934506,-0.2047153478592634,-1.1218084193371236
1733767635929879000,0.454879150390625,-0.8432657648533582,-0.6024930151849984,-0.5314749207623303
1733767635939839000,0.4648388671875,-0.9343909738898277,-0.8768295962810516,0.07437485750466585
1733767635949799000,0.474798828125,-1.1207669474601745,-1.0498860695511103,0.5001644212193787
1733767635959758800,0.4847587890625,-1.1454676734745501,-0.9902969855070114,0.5438336132064462
1733767635969719000,0.494718994140625,-1.0080477462530135,-0.9040905281722545,0.23409692516624925
1733767635979679000,0.504678955078125,-1.1146902578949927,-0.9565700724720955,-0.15532470948547125
1733767635989639000,0.514638916015625,-1.1858096207350493,-1.0102782817840577,-0.5768190602242946
1733767635999598800,0.524598876953125,-1.1865443647503853,-1.007213048994541,-1.0207160891681908
1733767636009559000,0.53455908203125,-1.0688730940937996,-0.9336223276048898,-1.4209265365988015
1733767636019519700,0.544519775390625,-0.9405717083513736,-0.8983423399090766,-1.6103683274805545
1733767636029479700,0.554479736328125,-0.9213011906921863,-0.8809422922968864,-1.6218343088686464
1733767636039440000,0.56443994140625,-0.9247241508781909,-0.9467834224730729,-1.527979090346396
1733767636049399800,0.57439990234375,-0.8805407257586717,-1.1460977880716323,-1.3814932286158204
1733767636059359700,0.58435986328125,-0.7646160065084695,-1.3379805423647164,-1.1765616076573728
1733767636069320000,0.59431982421875,-0.6610171003460884,-1.436356745442748,-1.0069593664944172
1733767636079279900,0.60427978515625,0.1213999357908964,-1.8904227017015218,-0.5212818819195032
1733767636089239800,0.61423974609375,0.9583879355490207,-2.3841361932158467,0.12374883700460194
1733767636099199700,0.62419970703125,1.3366659526348112,-2.5930641903340814,0.47546822524964805
1733767636109160000,0.634159912109375,1.3567308355420826,-2.5099761572808026,0.7196037293493748
1733767636119120000,0.644119873046875,1.0050736988782882,-2.1818360898047686,0.8390238894999027
1733767636129080800,0.654080810546875,0.39989889726340766,-1.876540891343355,1.0211983197271823
1733767636139041000,0.664041015625,-0.025905425629019735,-1.510309870404005,1.2518652704447508
1733767636149001000,0.6740009765625,-0.20765373939871787,-1.1972446224629878,1.517665493863821
1733767636158961000,0.6839609375,-0.4494149155825376,-0.9692904378354549,1.8535110211506485
1733767636168920800,0.6939208984375,-0.5300900422751903,-0.9485393262296915,2.3059353476822375
1733767636178881000,0.703881103515625,-0.3882300867795944,-0.8486527185887098,2.600997029159963
1733767636188841000,0.713841064453125,-0.28300211811065673,-0.7563590502947568,2.8805191962003707
1733767636198801000,0.72380078125,-0.20291794304847716,-0.654003422191739,3.0878046868085858
1733767636208760800,0.7337607421875,-0.12116378894746303,-0.5793336733937263,3.0211294438958167
1733767636218721000,0.743720947265625,-0.15312661491930485,-0.5816407812923192,2.9529242149367927
1733767636228681700,0.753681640625,-0.5185241076439618,-0.40854397601187226,2.7866388432368634
1733767636238641700,0.7636416015625,-1.2758978879392147,0.13568448173105715,2.336977551677823
1733767636248601900,0.773601806640625,-2.435955227780342,1.1673813991189002,1.5219281197443604
1733767636258561800,0.783561767578125,-5.1235143958449365,2.6597084535866973,-0.2485109427049756
1733767636268521700,0.793521728515625,-11.866593986582755,5.46364709893167,-3.531213639974594
1733767636278482000,0.80348193359375,-17.966022622317073,8.044317087116838,-6.6143807301104065
1733767636288441900,0.81344189453125,-9.74387118000388,6.54874418259561,-6.916774946433305
1733767636298401800,0.82340185546875,-0.35358079820275307,3.9445688156604763,-6.899004311943054
1733767636308361700,0.83336181640625,4.674424766694009,2.0437445469319817,-7.399366739952564
1733767636318322000,0.843322021484375,6.625130672183633,0.6649000792592763,-8.413578269532323
1733767636328281900,0.85328173828125,4.384361624155939,0.15339257237911225,-9.462681079751253
1733767636338242800,0.863242919921875,0.16340250973999498,0.05635141729712486,-9.702958154857159
1733767636348203000,0.873203125,-0.33397973341494797,-0.14191606959700584,-7.271092826738953
1733767636358163000,0.883162841796875,1.8098665252134203,0.2700467749476433,-3.4970530116975307
1733767636368123000,0.893122802734375,1.6768348960787056,1.544991307684779,-1.359508045170456
1733767636378082800,0.903082763671875,-1.0863128891944884,4.254390551635622,-0.47637540322244165
1733767636388043000,0.91304296875,-3.918565774875879,8.045872499865293,1.2749267048195003
1733767636398003000,0.9230029296875,-3.1856437142699954,10.330886640071869,3.326332580159604
1733767636407963000,0.932962890625,0.5365384877622127,8.390284487706422,4.355641141106188
1733767636417923000,0.942923095703125,3.779250243166089,2.993692570915818,4.7632460827022784
1733767636427883000,0.952883056640625,5.386691285023093,-2.427775428456068,4.589854386128485
1733767636437843000,0.962843017578125,5.628451292163133,-5.8497144547194235,4.325025053568184
1733767636447804000,0.972803955078125,5.686866071730852,-6.987117479681968,4.292810006400942
1733767636457763800,0.982763916015625,6.324881066673994,-6.565320054343342,4.004594829817116
1733767636467723800,0.992723876953125,6.950252853143215,-4.123936371773481,3.070911419674754
1733767636477683700,1.00268359375,6.64093263694942,-0.33141572814583775,1.4944970919832585
1733767636487644000,1.012643798828125,5.3382864428162575,2.6136358537197113,-0.010776099427789449
1733767636497603800,1.022603759765625,4.1098572852775455,3.938284620824456,-1.1254251485295592
1733767636507563800,1.032563720703125,2.534379069392383,4.648967377093434,-1.939386346834898
1733767636517523700,1.042523681640625,0.6049582362547516,5.099099501034617,-2.518791331899166
1733767636527484000,1.05248388671875,-1.4207809906482696,4.692398522540927,-2.214693380398303
1733767636537443800,1.06244384765625,-2.4258140652552247,3.183329592108726,-0.2525968968443572
1733767636547404800,1.07240478515625,-2.4116458391711113,1.1519652188003062,1.8199265853263438
1733767636557365000,1.082364990234375,-1.7757921139150856,-0.12157061618268489,2.435235096812248
1733767636567325000,1.092324951171875,-0.8793906789407133,-0.4848649991482496,2.1244765183784065
1733767636577284900,1.102284912109375,-0.3312672595858574,-0.11334756223857402,1.8620058777734636
1733767636587244800,1.112244873046875,-0.1676663046643138,-0.0556786326020956,2.006613962933421
1733767636597205000,1.122205078125,-0.4212932752087712,0.14852642764747143,2.7133085263490675
1733767636607165000,1.1321650390625,-0.7415465349577367,0.005235562565922737,3.320971637648344
1733767636617124900,1.142124755859375,-0.7681850971668959,-0.2732043621957302,3.552679621851444
1733767636627085000,1.1520849609375,-0.7561211498856544,-0.6529214721739292,3.618880232989788
1733767636637045000,1.162044921875,-0.7201800679326057,-0.9661585695505142,3.5496102974087
1733767636647005700,1.172005615234375,-0.7906276689909398,-1.0958470257371664,3.4793338151335713
1733767636656966000,1.1819658203125,-0.9092577016770839,-1.0577852983683347,3.485334516853094
1733767636666925800,1.19192578125,-1.0381085379958153,-0.9891144977241754,3.413770332854986
1733767636676885800,1.2018857421875,-1.181463554354757,-0.9346896645754575,3.26239903717041
1733767636686845700,1.211845703125,-1.2931360229879616,-0.8860188649088144,3.133821464835107
1733767636696806000,1.221805908203125,-1.647297835949063,-0.966281903669238,3.1775156451329587
1733767636706765800,1.231765869140625,-2.300529689246416,-0.6281476809233427,3.2630203839391467
1733767636716725800,1.241725830078125,-2.9786428858220577,0.14736439813077448,3.018547318448126
1733767636726685700,1.251685791015625,-3.290513955542445,1.1098510011702776,1.7245358277998863
1733767636736647000,1.26164697265625,-3.1388194192528722,1.7732143723815679,0.47789961711503565
1733767636746606800,1.27160693359375,-2.9361838002771137,1.73438107611835,-0.1708157816711813
1733767636756566800,1.28156689453125,-2.9570167449474334,1.271107731053233,-0.31613179590478535
1733767636766527000,1.29152685546875,-2.615101834619045,0.7162789688408374,-0.24342439668830482
1733767636776487000,1.30148681640625,-2.0035896466761827,0.10739420679211616,-0.39136889626197513
1733767636786446800,1.31144677734375,-1.4265584050059317,-0.5019955821692943,-0.9233511089593172
1733767636796406800,1.32140673828125,-1.014294531688094,-0.6314660116910934,-1.0717852552134544
1733767636806366500,1.331366455078125,-0.7082429619014263,-0.3966436948597431,-1.0372163383964448
1733767636816326400,1.341326416015625,-0.5840729768753051,-0.17676351109445093,-1.095810200858116
1733767636826286300,1.351286376953125,-0.4517489114880562,-0.2231079136401415,-1.1266822359185664
1733767636836247600,1.36124755859375,0.06155250220471061,0.14674480492770672,-0.17308253929307682
1733767636846207500,1.37120751953125,0.07029518697559833,0.17116846756637094,-0.0036119799520820377
1733767636856167400,1.38116748046875,0.010015198057889937,0.23427637338638305,-0.3979503204789012
1733767636866127600,1.391127685546875,0.14223638759255408,0.3324865722477436,-0.4882127021409571
1733767636876087600,1.401087646484375,0.4644213460564613,0.18420155214071274,-0.48648847216423596
1733767636886047500,1.411047607421875,0.31353403449654577,-0.05553951639235019,-0.538336623225361
1733767636896007400,1.42100732421875,0.11909516597986221,-0.09287702113986014,-0.6608068916615099
1733767636905967400,1.43096728515625,0.5360486584186553,0.08054010213613509,-0.7261548314932733
1733767636915927300,1.44092724609375,0.8226105148375034,0.3160328655749559,-0.6463669359639287
1733767636925888300,1.45088818359375,0.77727850420475,0.5711363384127617,-0.4709695986561477
1733767636935848400,1.460848388671875,0.7222060208022594,0.7408604523897171,-0.21786314485445618
1733767636945808400,1.470808349609375,0.538437087925151,0.7827081280380487,0.04510870500458404
1733767636955768300,1.480768310546875,0.40473355087824164,0.8142518518149853,0.22129291837373746
1733767636965728300,1.490728271484375,0.18105916246175766,0.8744166899204253,0.2733915187982842
1733767636975688400,1.5006884765625,-0.11220949811935424,0.8442495151937007,0.38134602635428305
1733767636985648400,1.5106484375,-0.5345873536944389,0.8105529972970485,0.5193536172706633
1733767636995608300,1.5206083984375,-1.0698375552117825,0.6761801826864481,0.6803392020620406
1733767637005568500,1.530568603515625,-1.6174515637397766,0.32299744389057156,0.856786486814171
1733767637015528400,1.540528564453125,-2.216971116071939,-0.05229191277325153,1.026290747495368
1733767637025489400,1.550489501953125,-2.9213866286396977,-0.1941536218345165,1.1004508662708103
1733767637035449600,1.56044970703125,-3.4618975271642207,-0.3053939826607704,1.1679051307320594
1733767637045409500,1.570409423828125,-3.977123177784681,-0.49935763488113877,1.3524613415293394
1733767637055369500,1.580369384765625,-4.61653313421756,-0.17961714695990086,1.4551349495403467
1733767637065329400,1.590329345703125,-5.064228678661585,0.7678478280365466,1.4956081219650803
1733767637075289600,1.60028955078125,-5.38809472208023,1.9654946015596388,1.4149391327522693
1733767637085249500,1.61024951171875,-6.1191445590734475,2.9573703806906937,1.2781840991802513
1733767637095209500,1.62020947265625,-8.131974327781796,3.4672815582901237,1.4455194183245301
1733767637105169400,1.63016943359375,-10.951917766988277,4.01019133464992,1.69978497903347
1733767637115130400,1.64013037109375,-14.594639478814601,4.682776707714796,2.2648785301506518
1733767637125090300,1.65009033203125,-12.866632613903283,4.624834221833944,2.0053676161341367
1733767637135050200,1.66005029296875,-7.87784057675898,4.040879902902245,2.0297294655829665
1733767637145010400,1.670010498046875,-4.854345572775602,3.0740514712661504,2.2957024152204393
1733767637154970400,1.679970458984375,-2.9403485187411307,1.90982181417644,2.0980305561318993
1733767637164930300,1.689930419921875,-1.429578191218525,1.205761690917611,1.8819447962135076
1733767637174890200,1.69989013671875,-0.45490065351724623,0.7865969521701336,1.828634646308422
1733767637184850400,1.709850341796875,0.10025372392032295,0.787894006243348,1.8272578049972652
1733767637194810400,1.719810302734375,0.3273310891807079,1.060233276042342,2.0468819681748744
1733767637204771300,1.729771240234375,0.6564724426537751,1.3020546579807997,2.37368669539392
1733767637214731500,1.7397314453125,1.272918579867482,2.135097719505429,2.504048520797491
1733767637224691500,1.74969140625,2.0496184074014425,3.210587601390481,2.467633976113796
1733767637234651400,1.7596513671875,2.9196324784487486,3.6481799772322177,2.268516302131116
1733767637244611600,1.769611572265625,3.4079899958878754,3.693036771568656,2.036421802828461
1733767637254571500,1.779571533203125,3.395196565288305,3.393477486410737,1.848703182477504
1733767637264531500,1.789531494140625,3.3801790288984774,2.933247746825218,1.6718573999270796
1733767637274491400,1.799491455078125,3.4136183571636676,1.9602707294315098,1.3749534515835344
1733767637284452400,1.809452392578125,3.3857834247767924,0.7046306166231632,0.984027403718233
1733767637294412300,1.819412353515625,3.3291075978308915,-0.3280447904080152,0.673298782031238
1733767637304372200,1.829372314453125,3.280318432481587,-0.7958715609937905,0.4175307078048587
1733767637314332400,1.83933251953125,3.2325019115567204,-0.8342080136507749,0.020781360613554716
1733767637324292400,1.849292236328125,3.233599643665552,-0.589672112056613,-0.3980290848035365
1733767637334252300,1.859252197265625,3.2309821546435353,-0.3249982623189688,-0.7168431785948575
1733767637344212200,1.869212158203125,3.251675106321275,-0.12037760700583457,-0.9426786905679851
1733767637354172400,1.87917236328125,3.261936095833778,0.07258066756427288,-1.116530625064671
1733767637364132400,1.88913232421875,3.2810371021449565,0.2683025616288185,-1.1170326563026756
1733767637374093300,1.89909326171875,3.3410774370878933,0.32367373571693897,-1.064477343352884
1733767637384053500,1.909053466796875,3.4143554392665623,0.3250046920597553,-1.050967654242739
1733767637394013400,1.919013427734375,3.3140029676795004,0.18858546631336212,-0.9697066174209117
1733767637403973400,1.928973388671875,3.216096135678887,-0.37546997392773623,-0.9307373467531055
1733767637413933600,1.93893359375,3.100664168381691,-1.0458049377173184,-0.9017987639732659
1733767637423893500,1.9488935546875,3.1192066640272733,-1.4891864183545112,-0.9327817851275205
1733767637433853400,1.958853515625,3.152980631074309,-1.6178168899208307,-1.016823465643823
1733767637443813400,1.9688134765625,3.0992431956678628,-1.7764976318359373,-1.150159849878773
1733767637453774300,1.9787744140625,3.0249174380019306,-1.8803057968348265,-1.2404789301641286
1733767637463734300,1.988734375,2.890643992112577,-2.0389649114400146,-1.1543182116672397
1733767637473694200,1.998694091796875,2.6079621919974683,-2.2490257119804618,-0.8790690457709133
1733767637483654400,2.008654296875,2.257565869049728,-2.2271885587036606,-0.5486905151857063
1733767637493614300,2.0186142578125,2.150793885809183,-2.053138398221135,-0.17719627648852765
1733767637503574300,2.02857421875,2.127693288467824,-1.9860826315581797,0.10442275323327631
1733767637513534200,2.0385341796875,2.0097016998156905,-1.7842893086254596,0.49933816299568856
1733767637523494400,2.048494384765625,1.7591566209346055,-1.6132570346593855,0.8256153957419097
1733767637533455400,2.058455322265625,1.6065224657073616,-1.4335487022846936,1.2085828858181833
1733767637543415300,2.068415283203125,1.6170444442436098,-1.045695632123947,1.5070859399214387
1733767637553375500,2.07837548828125,1.346821435946226,-0.7270441084831952,1.7927477787606416
1733767637563335400,2.08833544921875,0.8425961950287222,-0.5573316849440336,2.0002140327632425
1733767637573295400,2.09829541015625,0.207256264513731,-0.32813948295414447,2.1390151852101087
1733767637583255300,2.10825537109375,-0.7295844406157732,0.004581482571363449,2.2129817541748285
1733767637593215500,2.118215576171875,-2.0725582612231372,0.35990298696160317,2.1150763834789394
1733767637603175400,2.128175537109375,-2.997477350151539,0.830101162853837,1.6053285797476768
1733767637613136400,2.138136474609375,-3.225889799940586,0.9580641104221344,0.8440018240429461
1733767637623096600,2.1480966796875,-3.3516903087779877,1.016288335853815,0.17942659282386303
1733767637633056500,2.158056396484375,-3.5093905152231453,0.7685960160553454,-0.17850531326048075
1733767637643016400,2.168016357421875,-3.4881294082686303,0.19974632727503774,-0.19908216427788136
1733767637652976600,2.1779765625,-2.7412127245798708,-0.7851911770254373,-0.07983451115004718
1733767637662936600,2.1879365234375,-1.165192656902969,-1.74294139919281,-0.09385163832567632
1733767637672896500,2.197896484375,0.37172844931185245,-2.534168349251151,-0.0659440060287714
1733767637682856400,2.2078564453125,0.8462389354452491,-2.8195687606751916,0.060974327857419845
1733767637692817400,2.2178173828125,1.6958002933114766,-3.4525445924073455,0.1847941112063825
1733767637702777300,2.22777734375,2.800332729807496,-3.9144326205939053,-0.18187194014936683
1733767637712737300,2.2377373046875,3.4241464731797575,-1.6225181994795799,-1.3523264631032943
1733767637722697500,2.247697509765625,4.471069601272046,2.474970894873142,-3.187441995863616
1733767637732657400,2.257657470703125,5.63576833717823,4.949505736416578,-4.709423599360883
1733767637742617300,2.267617431640625,3.647856152105331,7.505522929382324,-6.037382806187868
1733767637752577300,2.277577392578125,-7.529637379941343,10.10588779811859,-8.108844796606897
1733767637762537500,2.287537353515625,-9.969701212084292,9.980182858610153,-8.229999233204126
1733767637772498400,2.29749853515625,1.627411524479091,7.20306324660778,-6.871243029314279
1733767637782458400,2.307458251953125,3.722020289468765,3.481721002531051,-5.62683567366004
1733767637792418600,2.31741845703125,4.021622536985576,-0.6053916592359543,-3.9795623876303434
1733767637802378000,2.3273779296875,4.172406972692906,-3.1591900071084495,-3.09002557772845
1733767637812338000,2.337337890625,4.327236007615924,-4.328098177403211,-2.700856164272129
1733767637822297900,2.3472978515625,4.946594817405939,-4.639436747682094,-1.7516966603174804
1733767637832257800,2.3572578125,5.457732321929932,-4.059045674189925,-0.3681139851417392
1733767637842218000,2.367218017578125,6.286490838003158,-2.796324663209915,1.248596185646206
1733767637852178700,2.3771787109375,7.15798608751893,-1.1138485463738441,3.127715841436386
1733767637862138600,2.387138671875,7.101576218032837,0.9009756110221147,4.813369711525738
1733767637872098800,2.397098876953125,6.983564171114564,2.763402052295208,6.80111793820858
1733767637882058800,2.407058837890625,6.603983839258551,4.061488975688815,8.87383022094965
1733767637892018700,2.417018798828125,6.743542532074451,4.558281728518009,9.876564663225412
1733767637901979000,2.426978759765625,4.975885793820023,3.445397643262148,9.44744843930602
1733767637911938800,2.436938720703125,2.0567291161894796,1.9000071071267126,8.085849120944738
1733767637921898800,2.446898681640625,0.48248073436021804,0.7167337268710136,6.619654286599159
1733767637931860000,2.45685986328125,-0.33229185339324174,-0.2090162599235773,5.313152001559734
1733767637941820000,2.46681982421875,-0.5681056654799729,-0.7914999217808246,4.144168427941203
1733767637951779800,2.47677978515625,-0.9931027636427432,-1.0578934349179268,3.1339871767908334
1733767637961739800,2.48673974609375,-1.58103994166553,-0.5799865843445062,2.3751696274280545
1733767637971700000,2.496699951171875,-2.370484099960327,0.09840075299739837,1.6325276984490453
1733767637981660000,2.506659912109375,-2.879097054442763,0.8880179297715425,0.8218387998126446
1733767637991619800,2.516619873046875,-3.0686773770123716,2.0479297236621377,-0.11782755719684064
1733767638001581000,2.5265810546875,-3.6909599652945992,2.2314690125018357,-0.9361169208995997
1733767638011541000,2.536541015625,-4.182538198345899,1.2912076852738856,-0.9853018806334585
1733767638021501000,2.5465009765625,-4.576680139517784,-1.1004571498811244,-0.4335965842038393
1733767638031460900,2.5564609375,-4.386874191498756,-2.128378640383482,0.1187075549017638
1733767638041421000,2.566421142578125,-3.599730126839876,-1.4049363557845354,0.34798823889270425
1733767638051381000,2.576381103515625,-2.6375264323949814,-0.002100187149643898,0.10686156122013926
1733767638061341000,2.5863408203125,-1.3200737142741679,1.0891302847027777,-0.439472271304205
1733767638071300900,2.59630078125,-0.7519149303674697,0.8925760314673185,-0.9985800990752876
1733767638081261800,2.60626171875,-0.5452875383418053,-0.10981588098108767,-1.4541455001115797
1733767638091221800,2.6162216796875,-0.2617115658659488,-0.7318938866019249,-1.6481798794806002
1733767638101181700,2.626181640625,0.17599603385329246,-0.8185171080440282,-2.129435017568618
1733767638111142000,2.636141845703125,0.1725602141857147,-0.9844295547783374,-2.375272649411112
1733767638121101800,2.646101806640625,0.2058170985560864,-0.9900678529262542,-1.9653873417928813
1733767638131061800,2.656061767578125,-0.00483275391869247,-0.8143202408760786,-1.845310325168818
1733767638141022000,2.66602197265625,-0.3640682899475097,-0.9912433264464139,-1.458464532354474
1733767638150983000,2.67598291015625,-0.5697124430894851,-1.0347516287833451,-1.0303240215994418
1733767638160942800,2.68594287109375,-0.7029132182460278,-1.0132920766472815,-0.5774782913180068
1733767638170903000,2.695903076171875,-0.6350631594002246,-0.5822358245760202,-0.2459193187765777
1733767638180863000,2.705863037109375,-0.6727144062720238,0.22093349221050737,-0.13097955544311551
1733767638190823000,2.715822998046875,-0.40220468998774883,0.7170061140716075,-0.3432812667781487
1733767638200782800,2.725782958984375,0.2121007088702172,1.0451210471063852,-0.36944746223520486
1733767638210743000,2.735742919921875,0.41664712990336117,0.9586392799615859,-0.1877092314681038
1733767638220703700,2.745703857421875,0.4665421376027167,0.5026549228608608,0.1190688259622082
1733767638230663700,2.75566357421875,0.6591195961616932,-0.16485621567964553,0.3384285660499707
1733767638240623900,2.765623779296875,0.7462580736495554,-0.5321294391483068,0.5562565299931913
1733767638250583800,2.775583740234375,0.27619346100911496,0.08680383870601653,0.8425511868432164
1733767638260543700,2.785543701171875,-0.7296810328580439,0.9583692308485507,1.32572560255602
1733767638270503700,2.795503662109375,-1.8955192941881716,1.6580448554128406,1.9595272175878284
1733767638280464000,2.8054638671875,-2.723037308681011,2.1137498110502957,2.534607032929361
1733767638290423800,2.815423828125,-3.218047854268551,2.2342110046863555,2.9538422065645453
1733767638300384800,2.825384765625,-3.7140333823680876,2.0088322235047817,3.322053003144264
1733767638310345000,2.835344970703125,-4.273103143151104,2.461853054624796,3.719263976497948
1733767638320305000,2.845304931640625,-4.950469028490781,3.6232039414077994,3.9998181169345974
1733767638330264800,2.855264892578125,-5.826724624276161,4.535587081629037,4.185715074816346
1733767638340224800,2.865224853515625,-7.891971393442153,4.459989696592093,4.221604134321213
1733767638350185000,2.87518505859375,-26.108811189579963,3.1877415633320805,4.759385900142789
1733767638360145000,2.885144775390625,-36.632192578363416,3.6604368167370556,2.7432190959662197
1733767638370105900,2.89510595703125,-14.689038594955205,4.378481041684746,0.20709325597174463
1733767638380065800,2.905065673828125,-6.017498540544509,6.534602844518423,0.47481925982162354
1733767638390025700,2.915025634765625,-1.746747805738449,7.274294253128766,0.7660342027433216
1733767638399985700,2.924985595703125,0.8436860360920428,6.183145029819011,0.23566169026494024
1733767638409945900,2.93494580078125,2.763753934472799,5.406516513955593,-0.694655531379953
1733767638419905800,2.94490576171875,4.223963264667987,5.287803040769696,-1.425742996969819
1733767638429865700,2.95486572265625,7.5062711174011225,5.793750575435161,-2.504722182275355
1733767638439827000,2.964826904296875,10.944773740452527,5.923022267514467,-3.3979520014762876
1733767638449787000,2.974786865234375,14.505607442665099,5.161800579619407,-4.590288978153467
1733767638459746800,2.984746826171875,14.022821587878465,3.704833007824421,-5.234975121423602
1733767638469706800,2.994706787109375,12.43977615160942,2.379344282764196,-5.210094947189092
1733767638479667000,3.0046669921875,7.841033233365416,0.8080646876126527,-3.7730090106889604
1733767638489627000,3.014626953125,4.505562530243396,-0.5061158769696951,-2.1542583470493555
1733767638499586800,3.0245869140625,3.2572797944605347,-1.433978910395503,-0.8564251061558723
1733767638509548000,3.034548095703125,3.0563916036739944,-1.9981559311896562,0.21585377779342232
1733767638519508000,3.044508056640625,3.5200130315244196,-2.35440273373127,0.8514565239630639
1733767638529468000,3.054468017578125,4.303144937932491,-2.6256547928154466,1.3724886689051985
1733767638539427800,3.064427734375,5.0319578096538775,-2.8339889156937597,1.8895055868566035
1733767638549388000,3.074387939453125,5.416010318487882,-2.715806772905588,2.284850474077463
1733767638559348000,3.084347900390625,5.178678649184108,-1.9750550415873527,2.6423013917118308
1733767638569308000,3.094307861328125,4.574687212134897,-0.9936837053358554,2.80278713722229
1733767638579268900,3.104268798828125,4.054162578323483,0.06466916378736495,2.7283535352677104
1733767638589228800,3.114228759765625,3.6436981556430457,0.8717237975746392,2.5725267214789986
1733767638599188700,3.124188720703125,3.3591575759187338,1.1436895578861237,2.354784426525235
1733767638609148700,3.134148681640625,3.1117841128110886,0.8798200102686882,2.0573509013496336
1733767638619108900,3.14410888671875,2.9826921612128614,0.47280222091078755,1.5716514972038567
1733767638629068800,3.15406884765625,2.9254195374175906,0.2803063031554222,1.0032233217712492
1733767638639028700,3.16402880859375,2.8982796015575527,0.329035555011034,0.5063002205606549
1733767638648990000,3.173989990234375,2.8344626706853506,0.20020751504600046,0.2945398495607078
1733767638658950000,3.183949951171875,2.4229423092111944,-0.12692249860465527,0.20181261215507984
1733767638668909800,3.193909912109375,2.235918685387075,-0.37372634513080116,0.16050576538518072
1733767638678870000,3.2038701171875,2.1851889073640107,-0.17741642204523086,0.07024959426820278
1733767638688830000,3.213829833984375,2.0956123890742657,-0.11015373463332652,-0.007392667534574866
1733767638698790000,3.223789794921875,2.2377824334323404,0.10054419476687908,-0.02218961997628212
1733767638708749800,3.233749755859375,2.212566743633151,0.135112234801054,0.07148702710866928
1733767638718710800,3.243710693359375,2.167058791911602,-0.13463409589529038,0.32246348314434287
1733767638728670700,3.253670654296875,2.1326538334846497,-0.3634334991753101,0.5484335082173347
1733767638738630700,3.263630615234375,2.0948235767841337,-0.4385106597304344,0.9396095853209495
1733767638748590800,3.2735908203125,2.2083844895124436,-0.3497089252054691,1.3775532588183879
1733767638758550800,3.28355078125,2.3752853627622126,-0.1402308929890394,1.7518515586182475
1733767638768510700,3.2935107421875,2.6534868025928735,0.08784311862587928,2.036057207299769
1733767638778470700,3.303470703125,2.844421754641831,0.33536534255445,2.3082642290212214
1733767638788432000,3.313431884765625,2.8287562757372853,0.3128945675492287,2.6555586404308675
1733767638798391800,3.323391845703125,2.840689874637127,0.26975919017791744,2.815774629089236
1733767638808353300,3.333353271484375,2.8915327576458454,0.30986499059498307,2.722158772280812
1733767638818313200,3.343313232421875,2.9731670847594738,0.21461773319244384,2.5610791525304317
1733767638828273200,3.353273193359375,3.1566262941002843,-0.006249123522639274,2.140940746445209
1733767638838233000,3.363233154296875,3.605086100915074,0.05473872140347957,1.6880371119640767
1733767638848194000,3.373194091796875,4.5376445986807346,0.119783732765913,1.3566032636396586
1733767638858154000,3.383154052734375,5.586860221624374,-0.04110474832653999,1.2200498901195824
1733767638868114000,3.393114013671875,6.618411593061685,-0.23422493546009063,1.0979098034858703
1733767638878074000,3.40307421875,8.009038268464803,-0.09224339941143989,0.6072884327679872
1733767638888034000,3.413033935546875,8.907236815989018,0.06698854664564133,0.1849628919020295
1733767638897994000,3.422993896484375,8.018757698446512,-1.6803057870596647,0.791790136899054
1733767638907954200,3.4329541015625,7.221537645453214,-2.4100655842423437,1.0190471330426634
1733767638917915100,3.4429150390625,7.592464715254306,-0.1580523808836937,-0.1000258699811995
1733767638927875000,3.452875,7.483249722775817,1.858652183431387,-1.1970179741002618
1733767638937835300,3.462835205078125,6.694277858167887,3.0699948893517255,-1.997673116108775
1733767638947795200,3.472795166015625,5.168984353643656,2.75312206582129,-2.0407544252052903
1733767638957755100,3.482755126953125,3.4772003102362152,1.5440654250115156,-1.5999688062801956
1733767638967715000,3.492715087890625,2.0983920829206704,0.6015057577133178,-1.1617752496749163
1733767638977675300,3.50267529296875,0.8544961839199066,0.1778893002539873,-0.6398094771444797
1733767638987636000,3.512635986328125,-0.29012097367253153,-0.15685644909739493,0.2071084535408765
1733767638997596000,3.522595947265625,-1.1080699629724025,-0.45905251249969004,1.181103123544529
1733767639007556000,3.53255615234375,-1.5397627593815326,0.022286066088080404,1.708479742142558
1733767639017516000,3.54251611328125,-1.9540204368650913,1.5112661482155323,1.9351330733045935
1733767639027476000,3.55247607421875,-2.840630253404379,4.122161178794503,2.003656282171607
1733767639037436000,3.562435791015625,-5.709337431257963,7.151836917239427,0.8249839659705758
1733767639047396000,3.57239599609375,-23.35000347933769,8.55138748833239,-2.3147569520413875
1733767639057357000,3.582357177734375,-22.02520098297596,3.2177719599366186,-2.5776217065304516
1733767639067317000,3.59231689453125,-3.6585809597373005,-1.7783529043138027,-0.34813363871276376
1733767639077277200,3.602277099609375,-2.2676725447833537,-0.8206091118872165,0.03793079446554184
1733767639087237000,3.612237060546875,-1.312805769097805,-0.1766308246254921,0.530965729131177
1733767639097197000,3.622197021484375,-0.5682651668906211,-0.09724866035282612,1.2240140445102006
1733767639107157000,3.632156982421875,0.29674187138332053,-0.41070086178481574,1.909535106189549
1733767639117118200,3.6421181640625,1.530737156882882,-0.26396599372923374,2.1789456290602685
1733767639127078100,3.652078125,2.8866888247460127,0.29686113211512566,2.1097155870981514
1733767639137038000,3.6620380859375,3.87895155736804,0.9790548760026693,1.8749071526616812
1733767639146998300,3.671998291015625,4.4788124704837795,0.8815443498432636,1.7250208348378537
1733767639156958200,3.681958251953125,4.246206660658121,0.1601215883731842,1.8164865278750657
1733767639166918100,3.691918212890625,5.078177709037065,-0.430310986661911,1.8848603913992643
1733767639176878300,3.70187841796875,6.0184776147097345,-0.2307137124687433,1.6359318078041076
1733767639186839000,3.711839111328125,5.845612864619493,-0.2217471466809511,1.1970976882729678
1733767639196799000,3.721799072265625,5.643904881882667,-0.4289642482280731,0.7963716925356537
1733767639206759200,3.73175927734375,5.413617870393395,-0.8951964430987834,0.6466156500279903
1733767639216719000,3.741718994140625,4.669798568198084,-1.067507066437602,0.38375126086510714
1733767639226679000,3.751678955078125,3.1769039429754016,-0.9460551081985235,0.06425539535470307
1733767639236639000,3.761638916015625,1.7415180883914232,-0.5471843849390745,-0.03137625825554132
1733767639246600200,3.77160009765625,1.0049328291028738,-0.14855740730762482,-0.0958943231344223
1733767639256560000,3.78156005859375,0.5693985548347235,0.12188508895933628,-0.23714630279950796
1733767639266520000,3.79152001953125,0.27183133854316543,0.13140578149855137,-0.21067476772032676
1733767639276480300,3.801480224609375,-0.15348490857137367,0.38829263062179087,-0.5229032725762576
1733767639286440200,3.811440185546875,-0.5393734189271927,0.3829629600316286,-0.9245145997807382
1733767639296400100,3.821400146484375,-0.9781552968144416,-0.22813246380388735,-1.028110510268435
1733767639306360000,3.831360107421875,-1.803296791434288,-0.4334025229364633,-1.3465125161275266
1733767639316321000,3.841321044921875,-2.0686042629003523,-0.16336100868582726,-1.674107809202373
1733767639326281000,3.851281005859375,-1.80127902187109,0.2460948214739561,-1.8128624921590089
1733767639336241000,3.861240966796875,-1.7871558039724826,0.18165829739868639,-1.725255520376563
1733767639346201000,3.871201171875,-2.11928596399799,-0.17827917635440826,-1.4088063290856778
1733767639356161000,3.8811611328125,-2.5235458329498766,-0.24527415274083614,-0.8684056860025972
1733767639366121000,3.891120849609375,-2.732507732337713,0.0021545476853847504,-0.22998028362765907
1733767639376082200,3.901082275390625,-2.837981200200319,0.03774433198273182,0.36019612468928097
1733767639386042000,3.9110419921875,-2.8866625212609764,-0.02604161922931671,0.8917473986234515
1733767639396002000,3.921001953125,-2.970385929608345,0.021295301485061643,1.2958084570676087
1733767639405962000,3.9309619140625,-3.073522478955984,0.06995090358257293,1.6924381234019994
1733767639415922200,3.940922119140625,-3.204851688086986,0.1250122810691595,2.000015879842639
1733767639425882000,3.950882080078125,-3.2270950840771198,0.11678688903748989,2.330615469300002
1733767639435843000,3.960843017578125,-3.1070810496866703,-0.004435352098941803,2.580504568490386
1733767639445803300,3.97080322265625,-2.7905753059029577,-0.23975685062408447,2.7441335804626346
1733767639455763200,3.98076318359375,-2.3811118769586086,-0.5552338358819484,2.9430004945546386
1733767639465723100,3.99072314453125,-1.8137749308288096,-0.4532552243977785,2.9620237594544885
1733767639475683300,4.000683349609375,-1.2888614144086836,0.06239362007081508,2.9920912731990215
1733767639485643300,4.010643310546875,-0.9197278769608587,0.7341419577896594,3.1059038226008413
1733767639495603200,4.020603271484375,-0.7289969961166382,1.412992236468196,3.301402429303527
1733767639505564200,4.030564208984375,-0.7766250087320804,2.0749603539288044,3.572037233272195
1733767639515524000,4.040524169921875,-1.0659189204633235,2.597960145682096,3.8197050031512974
1733767639525484000,4.050484130859375,-1.5503274080157279,2.796751364189386,3.9682185713171956
1733767639535444000,4.06044384765625,-2.066275527691841,2.6140438499987124,3.828333715286851
1733767639545404200,4.070404052734375,-2.492403675711155,2.26945124489367,3.474922428432107
1733767639555364000,4.080364013671875,-2.609352477312088,2.000597479122877,2.91339972153902
1733767639565325000,4.090324951171875,-2.512345224499702,1.6780536242187023,1.926662328209728
1733767639575285200,4.10028515625,-2.686267374688387,1.511154504534602,0.38903979572728276
1733767639585245200,4.1102451171875,-3.1129087329268454,1.753713553097844,-1.3018736023254691
1733767639595205000,4.120205078125,-3.8700726698637005,2.019569890618324,-2.8297113845050332
1733767639605165000,4.1301650390625,-4.5235798329710954,1.8049954120457172,-3.7335043910354373
1733767639615125200,4.140125244140625,-4.076975883156061,1.1293903988987206,-3.593892506727576
1733767639625085200,4.150085205078125,-2.8144728988409042,0.8359557341009378,-3.10816241518259
1733767639635046000,4.1600458984375,-1.760086595261097,1.0165987169772386,-3.0799431596532463
1733767639645006000,4.170006103515625,-1.2189163560450076,1.3460983823686838,-2.9544407569795843
1733767639654966000,4.179966064453125,-1.2025853989690543,1.655851144760847,-2.3889380405396223
1733767639664926000,4.189926025390625,-1.3855284754812716,2.0914450402617453,-1.5199477595821023
1733767639674886000,4.199885986328125,-1.4694541284024714,2.448625908783078,-0.542784834805876
1733767639684847000,4.20984716796875,-1.3884312111854553,2.332342877614498,0.6181491417393088
1733767639694807000,4.21980712890625,-1.173172842001915,1.5938678590565918,1.7879716504000127
1733767639704767000,4.22976708984375,-0.7622544650088995,0.59706280682981,2.675473593473434
1733767639714727200,4.23972705078125,-0.12090185007564723,-0.09614449850320815,3.146753719383478
1733767639724687000,4.24968701171875,0.6980489001452922,-0.4271165745347738,3.300555457085371
1733767639734647000,4.25964697265625,1.8056635205656288,-0.30284196009039877,3.1983447904109954
1733767639744607200,4.269607177734375,3.2120313704580066,0.1768178716301918,2.8494147406235335
1733767639754568200,4.279568115234375,4.4436634156912564,0.3920066827088594,2.543303257343173
1733767639764528000,4.289528076171875,5.366510082259774,0.20535423028469085,2.0840805028431117
1733767639774488300,4.29948828125,5.8825166541248555,0.012231705063581465,1.6929799751937389
1733767639784448300,4.3094482421875,6.115493635350465,-0.3772206169873476,1.3533987685099242
1733767639794408200,4.319408203125,5.918563534539937,-0.6846411370396613,1.0838117200285196
1733767639804366800,4.329366943359375,5.347556375464797,-1.2128519414395094,1.2873998174235224
1733767639814328000,4.339328125,4.587084629154205,-1.7278718403548001,1.4541696116395293
1733767639824288000,4.3492880859375,4.03171343062818,-1.813511311456561,1.3643546084187923
1733767639834248000,4.359248046875,3.38664559456408,-1.5764040985584258,1.353624686220288
1733767639844207900,4.369207763671875,2.8773832362622023,-1.3200614393144845,1.7903855796739458
1733767639854168000,4.37916796875,1.9059202766932546,-1.0624924531459807,2.087257963835448
1733767639864128000,4.3891279296875,-0.14805764109194278,-1.046605732706189,2.2808966218851507
1733767639874088700,4.399088623046875,-1.8946074400402604,-0.6195820971518755,2.1557655367419124
1733767639884049000,4.409048828125,-4.148210396808386,-0.5607517225205898,1.463750071541965
1733767639894008800,4.4190087890625,-5.138493353790045,-0.39408816515803335,-0.043990459830686446
1733767639903968800,4.42896875,-3.7882501267015933,-0.22180559886991977,-1.7276377393379807
1733767639913928700,4.4389287109375,-1.579909037939459,-0.33071956257522106,-3.0126994692027567
1733767639923889000,4.448888916015625,0.07810498394370079,-0.7873726127177476,-3.9854853479385373
1733767639933848800,4.458848876953125,0.7683610382556915,-1.9458324542343615,-4.671104682360589
1733767639943809800,4.468809814453125,0.6453992599755525,-3.423356491845846,-4.892524789044261
1733767639953770000,4.47877001953125,0.6265256326794624,-4.091932044747471,-5.016792973747849
1733767639963730000,4.48872998046875,0.5378291120946407,-3.8902076953977343,-5.215539768591523
1733767639973689900,4.49868994140625,-0.31206498485729095,-3.5914036125212907,-5.139622650080919
1733767639983650000,4.508650146484375,-1.3762975596688687,-3.2066397405475375,-4.157256457573175
1733767639993610000,4.51860986328125,-1.6974581435211002,-2.310221646699309,-2.1922876334533092
1733767640003570700,4.52857080078125,-1.5800520996719598,-1.632133584564924,-0.5963181990075856
1733767640013531000,4.53853076171875,-1.345076784235984,-1.3272042968064546,0.5686707520168275
1733767640023490800,4.54849072265625,-1.1302036149777472,-1.0422001912236214,1.486379544240236
1733767640033450800,4.55845068359375,-0.9336609060496092,-0.7606231374800205,2.1146594732411206
1733767640043410700,4.56841064453125,-0.6776544930227101,-0.3476554998070001,2.4141109141103922
1733767640053371000,4.578370849609375,-0.4349712335579097,0.060735915991663926,2.634906897546351
1733767640063331800,4.588331787109375,-0.06762202224358915,1.0001093544691801,2.3145161290228367
1733767640073291800,4.598291748046875,0.13613397906422614,2.4549440058887004,1.2669492961995303
1733767640083252000,4.608251953125,-0.5907930789105594,2.8077842148572203,0.025340996679291128
1733767640093212000,4.6182119140625,-1.7957545593611894,1.9201082303911445,-0.9670826986581087
1733767640103171800,4.628171875,-3.087043639308214,1.1262965245366097,-1.62298888573125
1733767640113131800,4.6381318359375,-4.359229520986974,0.8828039945155381,-1.8868746538311243
1733767640123093000,4.648093017578125,-4.818561727210879,0.47304538201689716,-1.9431451148465275
1733767640133053000,4.658052978515625,-3.9369764608353375,0.07821545858085155,-1.8808374194934963
1733767640143012900,4.668012939453125,-2.4269446767203506,0.46191433167159557,-1.7490706957280635
1733767640152973000,4.67797314453125,-1.8555512948065995,2.39670049123466,-1.5888561683744191
1733767640162933000,4.68793310546875,-6.387242538040876,6.299769421771169,-0.5918155538260936
1733767640172893000,4.697892822265625,-11.829645188891886,8.050711756590008,0.3525144841454923
1733767640182854000,4.70785400390625,-1.254405018055439,4.8747827961266035,-2.5074103984460234
1733767640192813800,4.717813720703125,5.985813946992159,2.713697817927599,-3.145252667170763
1733767640202773800,4.727773681640625,8.071323751986027,1.2500830632030964,-3.4324393774896858
1733767640212733700,4.737733642578125,8.931134408926964,0.013214870882034302,-4.1948660572603345
1733767640222694000,4.74769384765625,9.685804775482415,-1.714378737053275,-4.638951594513655
1733767640232653800,4.75765380859375,10.134339985620976,-2.5933681417167187,-5.156283862024545
1733767640242613800,4.76761376953125,9.80288217189908,-3.1633816135793924,-5.383347819814086
1733767640252575000,4.777574951171875,8.377750584825874,-4.618679206335544,-5.646681360858678
1733767640262535000,4.787534912109375,7.344428696584701,-4.263709584122896,-6.856347073477506
1733767640272494800,4.797494873046875,7.974690008661151,-1.8060995738953352,-7.411687292343378
1733767640282455000,4.807455078125,7.406653389829397,-1.4184855731874704,-5.897210365387797
1733767640292415000,4.8174150390625,6.140459734302759,-1.6322265235453843,-4.160511952237784
1733767640302375000,4.827375,5.050283155417442,-1.3394202197790146,-3.1825574386924504
1733767640312336000,4.8373359375,4.331892893511057,-0.9260434167832136,-2.6723586763232943
1733767640322295800,4.8472958984375,3.6695962747484443,-0.6692950993478298,-1.9033802368216215
1733767640332255700,4.857255859375,3.014994302141666,-0.3122913409590721,-1.20917434890531
1733767640342215700,4.867215576171875,2.4065851947806776,0.5013794960975647,-0.5686207753952592
1733767640352175900,4.87717578125,1.762096766039729,1.6218360624343156,0.259342133320868
1733767640362135800,4.8871357421875,1.4259206916242837,2.83176890155673,1.3752788841456174
1733767640372096800,4.8970966796875,1.084191659256816,4.499800313454866,3.0639433342278
1733767640382057000,4.907056884765625,0.44578795725703235,5.608717833167314,5.244392938110232
1733767640392017000,4.917016845703125,-0.4043769194602966,5.336736875286698,7.301898883891106
1733767640401976800,4.926976806640625,-1.4423404960274695,3.980168536829948,8.077545402979851
1733767640411936800,4.936936767578125,-2.389367664128542,2.041664818048477,7.532624871319532
1733767640421897000,4.94689697265625,-2.9850901622653008,0.09664660280644893,6.430880604237317
1733767640431858000,4.95685791015625,-3.379700889992714,-1.4403671501278876,5.286590742370486
1733767640441817900,4.96681787109375,-3.4117665918171403,-1.9549054030060766,4.048111023199558
1733767640451778000,4.976778076171875,-3.2635376858115195,-1.4758254170000553,2.807138318169117
1733767640461738000,4.986738037109375,-3.0878689842164513,-0.7106786646157502,1.796985124069452
1733767640471698000,4.996697998046875,-2.865533223992586,-0.1266290686160326,1.1170268110837787
1733767640481657900,5.006657958984375,-2.7741972948148845,0.29446050071418284,0.6471632739733905
1733767640491618800,5.016618896484375,-2.356428832731396,0.714659258684516,0.1749493012793362
1733767640501578800,5.026578857421875,-1.8366576476357876,1.3642390192151068,-0.02980623245984316
1733767640511538700,5.03653857421875,-1.333069827838987,1.3428899417161941,0.12645853435471655
1733767640521499000,5.046498779296875,-1.0521863093174992,0.36810382907390593,0.48730910436473784
1733767640531458800,5.056458740234375,-1.126013469811529,-0.6540238804578781,0.6982462493482977
1733767640541418800,5.066418701171875,-1.17400286308527,-0.9871505041748285,0.7521439168177545
1733767640551380000,5.0763798828125,-1.0538508815288543,-0.793145935422182,0.49434082963243126
1733767640561340000,5.08633984375,-0.8565079621337354,-0.4259937079846859,0.0053390960056334735
1733767640571299800,5.0962998046875,-0.49574587412476534,-0.08097381737828255,-0.47920671765822914
1733767640581260000,5.106260009765625,-0.3065364306941628,0.07732815435230732,-0.8373523030258715
1733767640591220000,5.116219970703125,-0.18493834198266268,-0.09260288037359714,-1.1395721126299352
1733767640601180000,5.126179931640625,-0.0958687503017485,-0.1429325531631708,-1.3412062264129518
1733767640611140900,5.136140869140625,-0.1044565459050238,-0.23973580783605575,-1.3435720787614582
1733767640621100800,5.146100830078125,-0.3576103459797799,-0.3479641273647547,-1.3149826747454703
1733767640631060700,5.156060791015625,-0.5542471629321575,-0.3520136950165033,-1.470466958706826
1733767640641020700,5.166020751953125,-0.6446610088288783,-0.4541173941850662,-1.4435729604318737
1733767640650980900,5.17598095703125,-0.7022669562317431,-0.5527934569925069,-1.302332744269818
1733767640660940800,5.18594091796875,-0.6554889845743775,-0.33067163178026676,-1.1798819842517376
1733767640670901800,5.19590185546875,-0.571087238574028,0.18429215303361415,-1.0872606914386154
1733767640680862000,5.205862060546875,-0.5239946480095387,0.6110469085186719,-0.9311959772408008
1733767640690822000,5.21582177734375,-0.703373894560337,0.840237356942892,-0.614454451939836
1733767640700781800,5.22578173828125,-1.3179320260703562,0.8347983807593583,-0.21541458265855906
1733767640710741800,5.23574169921875,-2.196895565640181,1.0395283416658638,0.3529594514340162
1733767640720702000,5.245701904296875,-2.8508918274387716,1.4346394201308488,0.9312835824590175
1733767640730663000,5.255662841796875,-3.2756621311083434,1.7856185114026069,1.2529014816246926
1733767640740622800,5.265622802734375,-3.532643672777712,2.1184780086159707,1.6480527459695935
1733767640750583000,5.2755830078125,-3.6718691881164904,2.190380046266317,2.0504706403166053
1733767640760543000,5.28554296875,-3.682521515034139,2.094832929134369,2.279898989149928
1733767640770503000,5.2955029296875,-3.527492573624849,2.0897171935558316,2.4568457478567955
1733767640780462800,5.305462890625,-3.2689398371160028,2.0321189910680055,2.6753967288449405
1733767640790423000,5.315423095703125,-3.1345947872951623,2.091410553470254,2.8444892669200894
1733767640800383700,5.3253837890625,-2.896283751565218,2.5893507227689025,3.0438042170405386
1733767640810344000,5.335343994140625,-2.6851196659579872,3.277106776958704,3.424377067065239
1733767640820304000,5.345303955078125,-2.599754920144379,3.814431446662545,3.7062373216643927
1733767640830264000,5.35526416015625,-2.735508667719364,4.330590578740835,3.8610593423247335
1733767640840224000,5.36522412109375,-3.1792896690681576,4.733522560089827,3.8392163438290354
1733767640850184000,5.375183837890625,-3.8296170330956576,4.633629522708058,3.2008065043494103
1733767640860145200,5.385145263671875,-4.667256774760783,4.000575949564576,2.15460014622435
1733767640870105000,5.39510498046875,-5.262344189864397,3.0074148067981,0.6220743523590266
1733767640880065000,5.40506494140625,-6.909452056199312,1.3550567648500202,-1.5207773422740398
1733767640890025000,5.41502490234375,-12.32953649225831,-0.34699323650598524,-4.802663316333294
1733767640899985200,5.424985107421875,-18.03870908834338,-1.0305050772547721,-7.954889329648017
1733767640909945000,5.434945068359375,-11.717716261279582,-0.6720955437213182,-6.56586541326642
1733767640919905800,5.44490576171875,-4.270132310646773,0.35439445267319675,-4.290687022897601
1733767640929866000,5.454865966796875,-1.2974538861870766,1.406777599737048,-3.5168256336599586
1733767640939826000,5.464825927734375,0.8807189318697899,2.611664261385798,-3.5267186666429042
1733767640949785900,5.474785888671875,3.206862443387508,3.567748596167564,-3.4530949197664853
1733767640959745800,5.484745849609375,5.213314493757486,4.152877804097533,-3.223194861768186
1733767640969707000,5.49470703125,6.313079569721221,4.860400050508976,-3.2027643604189158
1733767640979667000,5.5046669921875,7.263868720704317,4.789557166522741,-3.000856178934872
1733767640989627000,5.514626953125,6.991852106988429,4.268652301222086,-2.535744804787636
1733767640999587000,5.524587158203125,6.848598651307821,3.6696161484926937,-2.7071184395372865
1733767641009547000,5.534547119140625,6.680857235580683,2.4357681807756424,-2.708766499005258
1733767641019507000,5.5445068359375,6.39579526233077,0.9255506648302078,-1.2809805980309843
1733767641029468200,5.55446826171875,6.707141431394219,-0.30484277851879593,-0.5900639609184116
1733767641039428000,5.564427978515625,6.449260310536623,-0.8152601520746946,-1.0118883473291993
1733767641049388000,5.574387939453125,6.109812082582712,-1.4968728812038898,-0.9934468278400599
1733767641059348000,5.584347900390625,5.807884314727783,-2.152886474174261,-0.45755734203848986
1733767641069308200,5.59430810546875,5.52752365103662,-2.555942374163866,-0.07296524643506855
1733767641079268000,5.60426806640625,5.434634939458966,-3.16584829595387,0.16923749950379133
1733767641089228000,5.61422802734375,5.307239562645554,-3.426323524957895,0.29149852736974136
1733767641099189000,5.62418896484375,4.538971463370323,-2.6928268793344494,0.5626324217006564
1733767641109149000,5.63414892578125,4.189781593602896,-1.9641689059138296,0.7807145430680363
1733767641119108900,5.64410888671875,3.5991081955492494,-1.516020649266243,0.6407634168684482
1733767641129069000,5.654069091796875,2.496767131617665,-0.8574766610354184,0.043083537586219606
1733767641139029000,5.664029052734375,0.5065630362153053,-0.36029461662769313,-0.6130152859821916
1733767641148989000,5.673989013671875,-1.7357259148560464,-0.30957857486903667,-1.7824828437253832
1733767641158950100,5.6839501953125,-3.9080502260804173,-0.9157131614267826,-2.8626640982970595
1733767641168910000,5.69391015625,-6.229218214207887,-1.8102338972210883,-3.9424282965004442
1733767641178870000,5.7038701171875,-6.506593140086531,-2.5865233903884888,-4.358711050070822
1733767641188830000,5.713829833984375,-3.788938693487644,-3.119655284577608,-3.7399195187747476
1733767641198790100,5.7237900390625,-0.6902988705404103,-3.338720644828677,-2.8247601918384433
1733767641208750000,5.73375,1.32905956928432,-3.4349224264770744,-2.115810542972386
1733767641218710800,5.743710693359375,2.5326065067619083,-3.561822128728032,-1.5467159395202994
1733767641228671000,5.7536708984375,3.0580361560106275,-3.5111353130638596,-1.1382996815413235
1733767641238631000,5.763630859375,3.1962159616887567,-3.4047143352180718,-0.8095680048476904
1733767641248590800,5.7735908203125,2.7956092084169386,-3.167855544123053,-0.5687774272616952
1733767641258550800,5.78355078125,1.9879213912926612,-2.5636159775316716,-0.49728221684657037
1733767641268511000,5.793510986328125,0.8220522964328527,-1.8457073616623878,-0.5085415697466582
1733767641278472000,5.803471923828125,-0.9020265813797712,-1.1253431693345308,-0.3869926539391279
1733767641288431900,5.813431884765625,-3.067825144097209,-0.20812954021692276,-0.03854965701624751
1733767641298392000,5.82339208984375,-4.668821832120418,0.8544757256537675,0.28154600101821126
1733767641308352000,5.83335205078125,-5.253263057786226,1.3542840269118546,1.2756262313909827
1733767641318312000,5.84331201171875,-5.495341629356146,1.538324251011014,2.893189292681217
1733767641328272000,5.85327197265625,-5.596969527706504,1.7038596811264752,3.910822028881311
1733767641338233000,5.863233154296875,-5.524508687129616,1.6570593515068293,3.9933723017960783
1733767641348193000,5.873193115234375,-5.273114590203762,1.4043611862450838,2.958164453677833
1733767641358153000,5.883153076171875,-5.067390942084789,1.4385603929668664,1.382331140744686
1733767641368113200,5.893113037109375,-5.021989957869053,1.8999089074492452,-0.07441109786182641
1733767641378073000,5.903072998046875,-4.831978258144855,2.2392390619814395,-1.1327172052338719
1733767641388033000,5.913032958984375,-4.201045622678101,1.8682441876411437,-1.827683336932957
1733767641397994000,5.922993896484375,-3.0875726316183805,0.6457838753789663,-2.3290859216451643
1733767641407954000,5.932953857421875,-1.5503250699281692,-0.8290671436309814,-2.9193910709083077
1733767641417913900,5.942913818359375,-0.1473658594354987,-0.88518767478168,-3.860019770143926
1733767641427874000,5.9528740234375,-0.7437571967445313,2.704875629046559,-5.0383478029519315
1733767641437834000,5.962833984375,-4.031068702983856,8.596525437697768,-4.2942225035473705
1733767641447794000,5.9727939453125,-2.2496330302238463,9.646491002225876,-3.982543449267745
1733767641457755100,5.982755126953125,0.49870516232177614,7.768417494487762,-4.171434036007524
1733767641467715000,5.992715087890625,2.6772148841828107,3.3424247600436208,-2.934724833640456
1733767641477675000,6.002675048828125,4.110111844560504,-2.471094345700741,-2.138034795870632
1733767641487635000,6.012635009765625,4.1183530186831945,-5.5901522489070885,-2.4922569607168437
1733767641497595100,6.02259521484375,4.793813654923439,-5.650380215376615,-3.4421155528515577
1733767641507555800,6.032555908203125,6.048243807420135,-3.8907559769302607,-4.885131171661615
1733767641517515800,6.042515869140625,6.537047315061092,-2.439603228893876,-5.707132614690065
1733767641527476000,6.05247607421875,7.3096467215389005,-1.88637897926867,-6.111169926932454
1733767641537436000,6.062435791015625,8.135331821516155,-1.526128786304593,-5.781971874836087
1733767641547395800,6.072395751953125,8.376861527031659,-0.9379238241910934,-5.050450328677893
1733767641557355800,6.082355712890625,8.3901044549644,-0.23528175103664398,-4.177692511880397
1733767641567317000,6.09231689453125,8.017458890807628,0.11376783347725868,-3.2670214362740513
1733767641577277000,6.10227685546875,7.662035679608583,0.28648177691996096,-2.2814548402898014
1733767641587236900,6.11223681640625,7.325936762082576,0.22680033841729164,-0.9864923325270414
1733767641597197000,6.122197021484375,6.704236942124366,0.08674830912649631,0.08105155878961086
1733767641607157000,6.132156982421875,6.208721369624137,-0.07175473813414573,0.761175072274357
1733767641617117000,6.142116943359375,6.09985592123568,0.286580561119318,1.7211004465237258
1733767641627078100,6.152078125,6.107421972575783,1.054352985832095,3.397016766452789
1733767641637038000,6.1620380859375,4.764914892697334,1.0245043755352496,4.352686675214767
1733767641646998000,6.171998046875,3.0437165387570855,1.1779209133118391,4.36403019926697
1733767641656958000,6.1819580078125,1.3911924925923347,2.032429956713319,4.199224252469837
1733767641666918100,6.191918212890625,0.6228046393949538,2.9231963084101675,4.511222747962177
1733767641676878000,6.201878173828125,-0.33038580057621,3.440531498530507,4.526700010818243
1733767641686838800,6.2118388671875,-1.2180674841307102,3.776666656413674,4.296526981097459
1733767641696799000,6.221799072265625,-1.8412674795188009,3.5618121918559074,4.147682573541998
1733767641706759000,6.231759033203125,-2.624393394577503,2.641672446158528,3.904835063426196
1733767641716718800,6.24171875,-3.5769817039370535,1.9207494509041307,3.614713468699157
1733767641726679000,6.251678955078125,-4.688554414333403,1.5784885036170482,3.731334353519976
1733767641736639000,6.261638916015625,-5.261537549656629,1.6695301260232924,3.4005554619729517
1733767641746600000,6.271599853515625,-5.073119256603717,2.1535136661618948,2.996510843206942
1733767641756560100,6.28156005859375,-5.106786548405886,2.5282629245996473,2.706685016556084
1733767641766520000,6.29152001953125,-5.434912587356567,2.6134564054995773,2.20815798728019
1733767641776480000,6.30147998046875,-5.718749402725696,2.4194781402319667,1.700333260565996
1733767641786440000,6.31143994140625,-6.158018771868944,1.1290735880345106,1.162335586971417
1733767641796400000,6.321400146484375,-6.396109150585532,-0.16368366476893423,0.6957360931582749
1733767641806361000,6.331361083984375,-6.2833870267689225,-0.6793886233389377,0.2662827462390065
1733767641816321000,6.341321044921875,-5.654462516254187,-0.9807529120922088,0.20487579911798237
1733767641826281000,6.351281005859375,-5.025700502824783,-1.448007435747981,0.08035999632887542
1733767641836241000,6.361240966796875,-4.383062231995165,-1.510024623721838,-0.1662230470534414
1733767641846201000,6.371201171875,-3.6677108993932603,-1.0878753162056207,-0.292502425448969
1733767641856161000,6.3811611328125,-2.9470097301959988,-0.5367138443291187,-0.5854170849606395
1733767641866122000,6.3911220703125,-2.2970076526001093,0.13567279129326343,-1.1691250279158354
1733767641876082200,6.401082275390625,-1.4694973830223084,0.9651216277182102,-1.545743002834916
1733767641886042000,6.4110419921875,-0.5237319054201245,1.3592916259407997,-1.7884499354362486
1733767641896002000,6.421001953125,0.4988432556182146,1.276163845399022,-1.9322998957052826
1733767641905962000,6.4309619140625,1.0469608297541737,0.577732083415985,-1.8394132299542425
1733767641915922200,6.440922119140625,1.1711036345124244,-0.3909691563546657,-1.3645783341720699
1733767641925883100,6.450883056640625,1.03938630284667,-0.8285054180949926,-0.7925505998775363
1733767641935843000,6.460843017578125,0.6023179508790374,-0.6665104370653628,-0.17313739301916212
1733767641945803300,6.47080322265625,-0.07968436208963393,-0.25979075387120243,0.5623933522477745
1733767641955763200,6.48076318359375,-0.7833373658522963,0.2783732892662287,1.3359677412375808
1733767641965723100,6.49072314453125,-1.5147741563364863,0.8803057479590177,2.0977838878944515
1733767641975683300,6.500683349609375,-2.0780434146359563,1.578432974037528,2.821829399083555
1733767641985644000,6.51064404296875,-2.2602228132992983,2.332984682649374,3.7189515495479104
1733767641995604000,6.52060400390625,-2.3599010388866066,3.417265773755312,4.875056352370977
1733767642005564200,6.530564208984375,-2.951634467387199,4.889137484693527,5.834848309499025
1733767642015524000,6.540524169921875,-3.9908524279296396,5.750313584768771,6.435374408525228
1733767642025484000,6.550484130859375,-4.723272091971338,6.2010325686872,6.67200406703949
1733767642035444000,6.56044384765625,-5.713920082873106,4.9927235313743346,6.348542512768507
1733767642045405200,6.5704052734375,-11.146537837290763,1.6959698046594858,4.798042670795321
1733767642055365000,6.580365234375,-19.19808604470491,-0.5320587119996547,2.63344413151741
1733767642065325000,6.590324951171875,-21.149942581534383,-1.8857985490322111,1.8432289888501165
1733767642075285200,6.60028515625,-18.914094915556905,-1.1421546034038066,0.5474117639541626
1733767642085245200,6.6102451171875,-13.48453537966609,1.627456240403652,-1.3664984885796905
1733767642095205000,6.620205078125,-8.252392266798019,4.869741879349947,-1.7700109001651405
1733767642105166000,6.630166015625,-3.0842905412077903,7.7893153210878365,-1.5792565653800963
1733767642115126000,6.6401259765625,0.7095720916133373,10.138160420691966,-2.0714511767640706
1733767642125086000,6.6500859375,2.486824998795986,10.88206740117073,-2.066326673357189
1733767642135046000,6.6600458984375,4.569240344905853,10.133666616404057,-1.9238482937023043
1733767642145006000,6.670006103515625,6.885723974609375,9.712381816762685,-2.654125392757356
1733767642154967000,6.679967041015625,9.644527008676528,10.38463225878477,-4.011647670938074
1733767642164927000,6.689927001953125,12.07067279010415,10.59504143437147,-5.393873890003562
1733767642174887200,6.69988720703125,12.665502138793467,6.814002554222941,-5.372058364036679
1733767642184847000,6.70984716796875,10.492163243699073,1.8680413585454225,-4.627364617094397
1733767642194807000,6.71980712890625,8.7110484734565,-1.6498802536576986,-4.1970021925061936
1733767642204767000,6.72976708984375,7.887847006988525,-3.1825603613018987,-4.147239798210561
1733767642214728200,6.739728271484375,6.889332812756299,-3.4830876147091385,-4.44803797751367
1733767642224688000,6.749688232421875,5.670207782396674,-4.061819815078377,-4.158656679759919
1733767642234648000,6.75964794921875,4.47799180175066,-4.628678622302413,-3.1286566294178364
1733767642244608300,6.769608154296875,3.83402403588295,-4.037520655602217,-2.3839839252635837
1733767642254568200,6.779568115234375,3.148235774634778,-3.256296628642082,-1.7992518999576568
1733767642264528100,6.789528076171875,1.938293290901184,-2.8955642051190136,-0.9980968456029892
1733767642274489000,6.799489013671875,-0.18121391463205216,-2.6648481545627116,-0.16036741636041552
1733767642284449000,6.809448974609375,-1.441578571744263,-2.086677095207572,-0.043133148881606756
1733767642294409000,6.819408935546875,-0.7848077306658029,-1.5497335337758062,-0.6769491212323308
1733767642304369200,6.829369140625,1.3042263029314576,-1.2541150951981543,-1.3608297952935098
1733767642314329000,6.8393291015625,3.504891450238228,-1.568044851014018,-1.3293997610241175
1733767642324289000,6.8492890625,5.185415263962746,-2.1468413487911224,-1.065576975157857
1733767642334250200,6.859250244140625,6.324785205084085,-2.713488559091091,-0.9411544766753911
1733767642344210200,6.869210205078125,7.240091539275646,-3.144515585067868,-0.9906574163172394
1733767642354170000,6.879170166015625,7.5505965813398355,-3.4063106644988057,-1.1058842164311558
1733767642364130000,6.889130126953125,7.140658520621061,-3.5607518691480156,-1.2087626993644982
1733767642374090200,6.89909033203125,6.203168411672115,-3.801624572059512,-1.2672674222379923
1733767642384050200,6.90905029296875,5.15392473167777,-4.09491895160377,-1.168979993421957
1733767642394011100,6.91901123046875,4.195782879844308,-4.32457526397407,-0.855399854761362
1733767642403971000,6.92897119140625,3.495133734072745,-4.245781713244319,-0.5222467814289034
1733767642413931000,6.938930908203125,3.121363842061162,-3.737063544821739,-0.4562202116832137
1733767642423891000,6.948890869140625,2.5926877582371235,-3.1763778732746837,-0.333530236081779
1733767642433851000,6.958850830078125,1.776791792476922,-2.818074722725153,-0.3447116283748299
1733767642443811000,6.96881103515625,0.4494255831070244,-2.2102251489430667,-0.4116960833672434
1733767642453772000,6.97877197265625,-2.7036060475021597,-0.8460363986104726,-0.30791714446283874
1733767642463732000,6.98873193359375,-6.850881793808937,0.9791904850810765,-0.38479492469914256
1733767642473692200,6.998692138671875,-10.104491959846019,3.1484026556342837,-0.5824067972287535
1733767642483652000,7.008652099609375,-10.727932485991715,4.638502681702375,0.20797150011099874
1733767642493612000,7.018612060546875,-9.227086024981737,4.931089205238223,2.1189637463063002
1733767642503572000,7.028572021484375,-7.338582893165945,4.640566628494859,3.523542666955292
1733767642513533200,7.038533203125,-7.217787353008985,4.832262335783243,3.618499416978657
1733767642523493000,7.0484931640625,-7.511430107599496,4.3650154109120365,3.566208673249185
1733767642533453000,7.058453125,-6.722658733999729,3.6421862897753714,3.186006410102546
1733767642543413200,7.068413330078125,-5.262966705676913,3.2609657894968986,2.1083026515603063
1733767642553373200,7.078373291015625,-3.52141120788455,2.2948446293473244,0.9191933316927403
1733767642563333000,7.0883330078125,-1.5475689030878246,0.6414350325196981,0.03522467731200159
1733767642573294000,7.098294189453125,0.479017442163825,-0.7315648007780313,-0.8748737860381602
1733767642583254000,7.10825390625,2.3054653920829296,-0.2836789944589138,-2.6207670207738873
1733767642593214000,7.1182138671875,3.5110984881848095,2.1949118444770574,-4.015809759053588
1733767642603174100,7.128174072265625,1.6314073161169886,5.4363861670404665,-3.7869092334866523
1733767642613134000,7.138134033203125,-3.5089275738865133,8.340301436397432,-2.7657921623021364
1733767642623095000,7.148094970703125,-2.9332880788356066,5.399028788548708,-3.6064649880528448
1733767642633055200,7.15805517578125,-0.5578912185229361,0.5606196205735207,-3.4323768336474894
1733767642643015200,7.16801513671875,2.223810168311745,-2.3367624476224185,-3.1938185451582073
1733767642652975000,7.17797509765625,3.4869577341407534,-5.081956058532,-3.890161810429394
1733767642662935000,7.18793505859375,3.7075580488741395,-5.929509875968098,-5.363100566077232
1733767642672895200,7.197895263671875,4.175232843768597,-4.809567104372382,-7.375515324243903
1733767642682856200,7.207856201171875,4.653907756105065,-2.877454547932744,-8.93431128539741
1733767642692816100,7.217816162109375,5.5264592366755005,-1.26646954985857,-8.778985699129104
1733767642702776300,7.2277763671875,6.10043459790647,-0.7885702980697155,-7.747998391315341
1733767642712736300,7.237736328125,6.5540154009968035,-0.21401216851472854,-6.732110452955961
1733767642722696200,7.2476962890625,6.856174054998159,0.7771633533924818,-5.8344753845334045
1733767642732656000,7.25765625,6.710909844017029,0.9819804080605506,-4.787183423128724
1733767642742617000,7.2676171875,6.151101539826393,0.19908464849591254,-3.577294423148036
1733767642752577000,7.277576904296875,5.995232932722568,-0.9378934290528297,-2.089886704903841
1733767642762537000,7.287536865234375,5.968501577663421,-1.5425614501893519,-1.080176286135614
1733767642772497200,7.2974970703125,5.758941712382436,-1.6267191583007574,0.0006871077646152116
1733767642782457000,7.30745703125,5.5609448591232296,-1.2694079413980244,0.924751915667951
1733767642792417000,7.3174169921875,5.325242252326011,-0.38590193609297274,1.8743395819067954
1733767642802378200,7.327378173828125,5.3154094250977035,1.043912840360403,2.6707822207868097
1733767642812337700,7.337337646484375,5.345727990993857,3.597026128578186,3.6771269625142216
1733767642822297600,7.347297607421875,3.6611212918698786,5.114702728357911,5.056141818317771
1733767642832257800,7.3572578125,1.4271335745453835,5.342890721741318,6.384246863356232
1733767642842217700,7.3672177734375,-0.48594578012228007,4.951885909551382,7.179975801008939
1733767642852177700,7.377177734375,-1.7609597248338162,3.562390868526697,7.254696403211355
1733767642862138600,7.387138671875,-2.2230431294620034,2.3384967240691186,6.715508862245082
1733767642872098600,7.3970986328125,-2.1989164039433002,1.342742642199993,6.527385168224573
1733767642882058500,7.40705859375,-2.731821503639221,0.8979863660782575,6.3192340006977314
1733767642892018400,7.417018310546875,-3.267601574249565,1.0900912386894226,5.891864912706613
1733767642901978600,7.426978515625,-3.824095639325678,1.6125035859435797,5.669162072736024
1733767642911938600,7.4369384765625,-4.314106184668839,2.131181422844529,5.26645922396779
1733767642921899500,7.4468994140625,-4.809502222442626,2.0903794568568466,4.887056294505298
1733767642931859700,7.456859619140625,-5.2693724810659885,1.6457658040761947,4.119852901852131
1733767642941819600,7.466819580078125,-5.655656109952926,0.9313333398848771,3.35218043038249
1733767642951779600,7.476779541015625,-6.236326000386476,-0.08765782518684863,2.3492994192428887
1733767642961739500,7.486739501953125,-6.726481507158279,-0.7696516625881195,1.651490173072368
1733767642971700700,7.49670068359375,-6.5884817342221735,-1.1342892768561839,1.1651150616221129
1733767642981660700,7.50666064453125,-6.403173097622394,-1.6348054341226814,0.5935410624444485
1733767642991620600,7.51662060546875,-6.1870753550052635,-1.2877987536132336,-0.6036018532097339
1733767643001580800,7.526580810546875,-5.737129109025001,-0.9793623345166445,-1.5903461146712303
1733767643011540700,7.536540771484375,-5.22772295833826,-0.4035509900301695,-2.1095877229347826
1733767643021500700,7.546500732421875,-4.784951426292956,0.32820670297145843,-2.5720535510092972
1733767643031461600,7.556461669921875,-4.169921293357015,1.1062030000567435,-2.849159012296796
1733767643041421600,7.566421630859375,-3.343551425985992,2.125346140819788,-3.1054969953656193
1733767643051381500,7.576381591796875,-2.0895584958627818,2.713594942075014,-3.1048055059701203
1733767643061341700,7.586341796875,-1.254762745451927,3.1063328616678714,-2.8542767937019464
1733767643071301600,7.596301513671875,-0.9183893948987126,3.3979502479106185,-2.1693159231886265
1733767643081261600,7.606261474609375,-0.49020343756675716,3.306049962848425,-1.242536008824408
1733767643091222800,7.616222900390625,-0.5493310415789485,2.9524738408207893,0.2431103988356888
1733767643101182700,7.6261826171875,-0.5340811577379703,2.4448446366786953,1.3991186094164847
1733767643111142700,7.636142578125,-0.5398495120063423,2.3336235650748014,2.526893097551167
1733767643121102600,7.6461025390625,-1.0444204976215958,2.2544909916490314,3.7052196690544483
1733767643131062800,7.656062744140625,-1.6202540539398789,2.166881097257137,4.39501775046587
1733767643141022700,7.666022705078125,-1.7291797080829738,1.8691916976243257,4.764871930338442
1733767643150983700,7.675983642578125,-1.863556614346802,1.4691963542491198,4.9244157188236715
1733767643160943900,7.68594384765625,-2.2565166522577402,1.366525084325671,5.050715117093921
1733767643170903800,7.69590380859375,-2.947966592529416,1.6699527353495358,5.302606642147898
1733767643180863700,7.70586376953125,-3.713514034669101,2.2997359085202214,5.602644066211581
1733767643190823700,7.71582373046875,-4.4260818740323185,3.006801643335819,5.586190944060683
1733767643200784600,7.72578466796875,-4.848043550021946,3.421612863048911,5.239594597917795
1733767643210744600,7.73574462890625,-5.422355303600431,3.1821120330125092,4.5898733830899
1733767643220704500,7.74570458984375,-6.217643511748314,2.389101122146845,3.649833297397196
1733767643230664700,7.755664794921875,-9.898943668293953,1.3403215525329113,1.7978721360370515
1733767643240624600,7.765624755859375,-21.592259647810458,0.21020810005664825,-2.039236129596829
1733767643250584600,7.77558447265625,-21.21955212433338,0.8433440907865762,-3.169619923447072
1733767643260545800,7.7855458984375,-8.974571399593353,1.9341759187102316,-0.8833352518480271
1733767643270505700,7.795505615234375,-5.046846166706085,2.236580071905255,-0.253769959211722
1733767643280465700,7.805465576171875,-2.8056372659564017,3.4012720858097074,-0.43402997065242377
1733767643290425600,7.815425537109375,0.9989654451310634,5.2724032270640135,-1.2549039074882864
1733767643300385800,7.8253857421875,2.9560803408801553,8.147939958676695,-2.145804699219763
1733767643310345700,7.835345703125,5.283088871729373,10.615454107803105,-2.803531233587861
1733767643320306400,7.845306396484375,9.293299495601653,12.240529006028174,-4.018634753346443
1733767643330266600,7.8552666015625,11.988546295559406,12.81676938958168,-4.194199702306092
1733767643340226600,7.8652265625,12.206114695250987,9.991709630274771,-3.9935070340916514
1733767643350186500,7.8751865234375,10.783151099866629,4.649559497767687,-3.6510017566546797
1733767643360146700,7.885146728515625,8.441616031014918,0.8783253877967595,-3.3125536456540225
1733767643370106600,7.895106689453125,6.783088945043087,-0.33613574240505695,-3.6877372038558125
1733767643380067600,7.905067626953125,6.265827404680848,-0.8113327494978905,-3.9341766009837387
1733767643390027800,7.91502783203125,5.062691386091709,-2.2848183253735304,-3.590996493025124
1733767643399987700,7.92498779296875,3.220004833555221,-4.217079934895039,-2.7566791737809777
1733767643409947600,7.93494775390625,2.4862998058781027,-4.328246645963191,-2.0202280622661113
1733767643419907600,7.944907470703125,2.398622691468894,-3.1426310864955185,-1.3258651571571827
1733767643429868800,7.954868896484375,2.3284493773072956,-1.7076140652239322,-0.7032952763661742
1733767643439828700,7.964828857421875,2.569839966613054,-1.0145639962792397,-0.4918935826107859
1733767643449788700,7.97478857421875,3.02500248593688,-1.4050813172131775,-0.20317630172371864
1733767643459748900,7.984748779296875,3.266865953451395,-1.72707046084404,0.10255495006740092
1733767643469708800,7.994708740234375,3.5367613372296094,-1.7029326294094322,0.3230488087516278
1733767643479668700,8.004668701171875,3.6596892132401466,-1.8997879114180802,0.8668003696978092
1733767643489629700,8.014629638671876,3.818183492672443,-2.2517174352824685,1.005146398788318
1733767643499589600,8.024589599609374,4.3300317758142945,-2.620084883728623,0.27041268565058707
1733767643509549600,8.034549560546875,4.8686371329784395,-2.9474194800406694,-0.5640314748436213
1733767643519509500,8.044509521484375,5.0570086642801755,-3.323815921163559,-1.240517947000265
1733767643529469700,8.0544697265625,4.986150582724809,-3.7260201727598905,-1.7143883816644547
1733767643539429600,8.0644296875,4.727247133082151,-4.006291989123821,-2.005838010124862
1733767643549390600,8.074390625,4.20957935000658,-4.126740323278308,-2.16210146176517
1733767643559350800,8.084350830078124,3.6785523191422222,-4.057036087933183,-2.2050573909163473
1733767643569310700,8.094310791015625,2.981730622704327,-4.1099470093876125,-2.2381085966467857
1733767643579270700,8.104270751953125,2.6416741997241973,-4.182476823547482,-1.9036007477045058
1733767643589230600,8.114230712890626,2.3923431728079914,-3.6936242160677906,-1.357156513608247
1733767643599190800,8.124190673828124,1.8409692272245883,-2.9445640906095503,-0.7950590755671262
1733767643609151500,8.1341513671875,0.8982245587483048,-2.230063821879029,0.03600296820811927
1733767643619111400,8.144111328125,-0.24991817915439604,-1.1248755518227815,0.7802370617493987
1733767643629071600,8.154071533203124,-2.3630980813622475,0.24141689279079437,1.3442901639029383
1733767643639031600,8.164031494140625,-5.7139341113984585,1.9114853634744882,2.2735177636802195
1733767643648991500,8.173991455078125,-8.925579112887382,3.8184646477013824,3.230855605654418
1733767643658952700,8.18395263671875,-8.87550604520738,4.982838097175955,2.9707576855301854
1733767643668912600,8.19391259765625,-6.821719412210583,4.819993221318722,1.8974208900257945
1733767643678872600,8.20387255859375,-5.525091455453634,3.74730027667582,1.3160621405452488
1733767643688832800,8.213832763671874,-5.108502704674005,2.617623462051153,1.0421049141556025
1733767643698792700,8.223792724609375,-4.365787272067368,1.2318839741677046,0.3514498505886644
1733767643708752600,8.233752685546875,-3.0678388803616166,-0.39261984617114065,-0.7773419978950172
1733767643718713900,8.2437138671875,-2.551367321333289,-0.6128735394239425,-1.8420783575102686
1733767643728673800,8.253673828125,-4.742843638403714,2.7997067068636414,-2.3381518561542034
1733767643738633700,8.2636337890625,-3.222929488830268,5.808464160442352,-3.182498986503482
1733767643748593700,8.27359375,2.2013938999727367,5.705553236544132,-4.561477017427981
1733767643758553900,8.283553955078125,6.390504170185327,3.9198271731138226,-4.363819479125738
1733767643768513800,8.293513671875,7.322706694120169,0.07605389663279057,-3.8121959426954386
1733767643778474500,8.303474609375,6.701480336892605,-4.116382010871171,-3.8236648466929792
1733767643788434700,8.3134345703125,7.12098468285799,-4.92699112226963,-4.796861936578154
1733767643798394600,8.32339453125,6.597972031623125,-3.1283991475254296,-6.630576078107953
1733767643808355000,8.33335498046875,6.012267654153704,-1.485633694308996,-7.480079860568046
1733767643818315000,8.34331494140625,5.862493856793642,0.20632395209968088,-7.021402611121535
1733767643828275000,8.35327490234375,5.571970111006498,0.6800280902862549,-5.855692360085248
1733767643838236200,8.363236083984376,5.07333786779046,0.2338426581442356,-4.615829369862378
1733767643848196000,8.373196044921874,4.837310851344466,-0.02265606844425201,-3.557031095059216
1733767643858156000,8.383156005859375,4.514304639625549,-0.5946054768055677,-2.515614747689664
1733767643868116000,8.393115966796875,4.187492605882883,-1.2647346888899802,-1.5507441721230744
1733767643878076200,8.403076171875,4.187352320629358,-1.8081033149331807,-0.8303720887497067
1733767643888036000,8.4130361328125,4.4287516777634615,-1.9271435358554123,-0.19138591068685054
1733767643897996800,8.422996826171875,4.750210660040378,-1.5662608902066946,0.3205333918645978
1733767643907957000,8.43295703125,4.882253570398688,-0.5903121635258197,0.7875418318048119
1733767643917917000,8.4429169921875,4.747720596790313,1.2113748546242713,1.6732956160366534
1733767643927876900,8.452876953125,4.614332701563835,3.552707678902149,2.944451277884841
1733767643937836800,8.4628369140625,4.034160239258409,5.536178666657209,4.503655235317349
1733767643947798000,8.472798095703125,4.2362499147892,6.924131738936901,6.671903529274463
1733767643957758000,8.482758056640625,3.30891236654222,6.306795959407091,8.024711638414859
1733767643967718000,8.4927177734375,1.0934861418247221,3.8368326635628938,7.247547115978598
1733767643977678000,8.502677978515624,-0.5124971024394035,2.0509084472119805,5.895058155789971
1733767643987638000,8.512637939453125,-1.8415093254506587,0.4441220698714256,5.103014044129848
1733767643997598000,8.522597900390625,-2.5093010344982147,-0.8759235873520373,4.745317335040867
1733767644007559200,8.53255908203125,-2.7106384303569793,-1.8068471773922443,4.294759971424937
1733767644017519000,8.54251904296875,-3.044115182685852,-1.8106740422040224,3.592871931508183
1733767644027479000,8.55247900390625,-3.549378242218494,-1.0532961702555417,2.9457161832541225
1733767644037439000,8.56243896484375,-3.8834114593863487,-0.03506371459662914,2.653647838373482
1733767644047399200,8.572399169921875,-3.927505452656746,0.7727601499974727,2.5521447354465723
1733767644057360000,8.58235986328125,-3.8989574035644528,1.1096733065158129,2.234907754778862
1733767644067319800,8.59231982421875,-3.5318519378781317,1.1112497620522974,1.8970491341039537
1733767644077280000,8.602280029296875,-3.0680875944256782,1.0224959583222866,1.631434204123914
1733767644087240000,8.612239990234375,-2.6625673501491547,0.815166044050455,1.2261936535716056
1733767644097199900,8.622199951171876,-2.4321537896707652,0.4482441182374954,0.6814229056455194
1733767644107160000,8.63216015625,-2.0900866113901135,0.051474166649579996,0.09236001152843236
1733767644117121000,8.64212109375,-1.7956395546793937,-0.2708358794987202,-0.5115606983721256
1733767644127081000,8.6520810546875,-1.4563155376270414,-0.7027659917950629,-1.0944461459632961
1733767644137041200,8.662041259765624,-1.0952923144638538,-0.705600922960043,-1.5894877442762254
1733767644147001000,8.6720009765625,-0.7027732983186841,-0.2984212210386991,-1.6651457734592259
1733767644156961000,8.6819609375,-0.5176201445415616,0.15987141300439833,-1.89201143219769
1733767644166921000,8.6919208984375,-0.7828551352933049,0.571695141339302,-2.247251249653846
1733767644176882000,8.7018818359375,-1.1867372569739818,0.848475023934245,-2.4570012306794524
1733767644186841900,8.711841796875,-1.6746271569013595,0.5218284098863601,-2.35364665466696
1733767644196801800,8.7218017578125,-2.5917247584238647,-0.9395897115767001,-1.8358106754176318
1733767644206762000,8.731761962890625,-3.525849774853885,-2.1247616189301013,-1.0407670896805823
1733767644216722000,8.741721923828125,-4.249163172376155,-1.7508932349801063,-0.344050753313303
1733767644226683000,8.751682861328124,-4.672158283066749,0.5833557685166597,0.3140998516857624
1733767644236643000,8.76164306640625,-4.892614513154328,3.0930145304113625,1.2443816366910934
1733767644246603000,8.77160302734375,-5.109004224455356,3.9082477944791316,2.4694033238738773
1733767644256563000,8.78156298828125,-5.359584082388878,3.3612112935781475,3.564086274267733
1733767644266523000,8.79152294921875,-5.477302114796638,2.6785107692122456,4.484175458821654
1733767644276483000,8.801483154296875,-5.260183796960115,2.370400513330102,5.0928784345626825
1733767644286444000,8.811444091796876,-4.753862460546196,2.8593548276185987,5.320301288792491
1733767644296404000,8.821404052734374,-4.191499211175739,4.025276091057062,5.498631318551301
1733767644306364200,8.8313642578125,-3.702685766662657,5.436634004321694,5.790412370923161
1733767644316324000,8.841323974609375,-3.4727459611758587,6.720770728296041,6.011037235575914
1733767644326284000,8.851283935546874,-3.5197479508474467,7.006478013712167,5.969357902231812
1733767644336244000,8.861243896484375,-3.978234938418865,5.439986237359046,5.704692235800623
1733767644346205000,8.871204833984375,-4.963715463554859,2.1794933260709044,4.807003099103271
1733767644356164900,8.881164794921874,-7.110001516550779,-0.9202724321663379,2.852869849513471
1733767644366124800,8.891124755859375,-9.067700934189558,-2.1419044769108293,0.7061633060831576
1733767644376085000,8.9010849609375,-8.343211186364293,-0.7337620185613631,-0.20977738048918543
1733767644386045000,8.911044921875,-5.543752901303768,1.5264555340409278,0.22912337453737855
1733767644396004900,8.9210048828125,-3.0921020917415616,3.421028925681114,1.020934115833044
1733767644405966000,8.930966064453125,-1.298642803710699,4.166505347433686,1.7399714434713125
1733767644415926000,8.940926025390626,0.25061953235678375,3.9911078639954325,2.0500529994264243
1733767644425886000,8.950885986328124,1.7854092525660992,3.946152869981527,2.118532223021239
1733767644435846100,8.96084619140625,3.503492104834318,4.242275750949979,2.0085522375196216
1733767644445806000,8.97080615234375,5.109969854617119,4.513066037741303,1.730113481801748
1733767644455767000,8.98076708984375,6.71689301007986,4.773003506606817,1.452966519460082
1733767644465727000,8.99072705078125,7.901801882582903,5.168562328839302,0.7220199236456304
1733767644475687000,9.00068701171875,9.39037864460647,5.595531019335985,0.5881573966447263
1733767644485646800,9.010646728515624,9.764504802709817,4.21215241536498,1.1474554132256656
1733767644495606800,9.020606689453125,8.072913651525974,1.8879402372360228,1.0391381733044982
1733767644505567000,9.03056689453125,6.830189718914031,0.19044015426933764,1.1874042695153504
1733767644515528000,9.04052783203125,6.424522175121307,-0.771868169593811,1.4995312867581843
1733767644525487900,9.05048779296875,5.7531748194187875,-1.0587444987893104,1.4455539051160216
1733767644535448000,9.060447998046875,5.430462622210383,-1.20684539450109,1.4411308279767632
1733767644545408000,9.070407958984376,5.751853215426206,-1.7101573199659585,1.8183732184045016
1733767644555368000,9.080367919921875,5.304489387154579,-1.5019482847720385,2.437894671410322
1733767644565329200,9.0903291015625,4.341646225762367,-0.9653075056791305,3.0408374761894343
1733767644575289000,9.1002890625,4.245916153278946,-0.796959940752387,3.130429776570201
1733767644585249000,9.1102490234375,4.278972619706392,-0.9543874677360057,2.6540894446611403
1733767644595209000,9.120208984375,3.9941327647745606,-1.1519558664500713,1.977864838311076
1733767644605169200,9.130169189453126,4.017716469457746,-1.3652747920036314,1.1288698821559549
1733767644615129000,9.140129150390624,4.285710988050699,-1.7710627473056315,0.44252223345935343
1733767644625089800,9.15008984375,4.928983172869682,-2.0327526127964255,-0.17685613954765722
1733767644635050000,9.160050048828126,5.598920077252387,-1.9926649325579404,-0.8310062950000167
1733767644645010000,9.170010009765624,6.16285627502799,-1.8399901530593632,-1.3198577334359287
1733767644654969900,9.179969970703125,6.806400847047567,-1.8104478322327135,-1.6011737981557845
1733767644664929800,9.1899296875,6.820749105873704,-1.8015087389737368,-1.6421882378503678
1733767644674890000,9.199889892578126,6.062719492018222,-1.7725357424676418,-1.421932791031897
1733767644684851000,9.209850830078125,5.408122780108451,-1.812211334773898,-0.8619747761722654
1733767644694811000,9.219810791015625,4.982148945868015,-1.5908102250516414,-0.11239676431976259
1733767644704771000,9.22977099609375,4.6528386655688285,-0.9975976639091968,0.42687246358059344
1733767644714731000,9.23973095703125,4.4285529403209685,-0.4945499423384666,0.8723782428953796
1733767644724691000,9.24969091796875,4.111310698956251,-0.22463643838167188,1.3738091038540006
1733767644734652200,9.259652099609376,3.131592975130677,0.16886778940856456,1.754563009534031
1733767644744612000,9.269612060546875,1.521308672671765,0.557649664852023,1.713819349604845
1733767644754572000,9.279572021484375,-0.8177309261023997,1.4072873028248547,1.5843620718255638
1733767644764532000,9.289531982421876,-10.951803200697897,4.7497056331276895,0.7763219341322779
1733767644774492000,9.299491943359374,-24.81733813136816,6.326822848391532,0.5360889904290438
1733767644784451800,9.309451904296875,-12.11919979738593,1.5379425582170485,-0.3362976549685001
1733767644794413000,9.3194130859375,2.5286674137473106,-0.6055716919779777,0.15711320033743978
1733767644804373000,9.329373046875,6.8469935541987414,-1.628778428918123,0.4779743628516793
1733767644814333700,9.339333740234375,7.8076488501578565,-3.9652643976867195,-0.21307138053327798
1733767644824293600,9.349293701171876,7.914814508891105,-4.386954270997643,-0.8062452171005308
1733767644834253800,9.35925390625,9.8445831325531,-1.7964952947258948,-2.7602564477458595
1733767644844214800,9.36921484375,13.439299230623245,1.556302390772104,-5.118804902979731
1733767644854174700,9.3791748046875,15.399658222860097,5.174771704873442,-5.380146393424273
1733767644864135000,9.389135009765624,13.805319823682307,8.376237842175364,-3.9885543801203367
1733767644874094800,9.3990947265625,7.772583966517448,8.81495074647963,-1.5236980520263312
1733767644884054800,9.4090546875,3.687271924431622,6.70354077655375,0.38907413638830185
1733767644894014700,9.4190146484375,2.412322861649841,3.8932080462574956,1.5472038691677152
1733767644903975700,9.4289755859375,1.4783775857008992,1.322932610836625,2.8178602031916378
1733767644913935600,9.438935546875,1.195616875130683,-0.7734358573019504,3.963917659252882
1733767644923895800,9.448895751953126,1.1722848071210086,-2.1621289342939853,4.797221417540311
1733767644933855700,9.458855712890625,0.9573924947708845,-2.613070621052384,5.295425790733098
1733767644943815700,9.468815673828125,0.5514836165029555,-1.8170441617578268,5.425252778607606
1733767644953775600,9.478775634765626,0.06973426515720785,-0.15224164877831936,4.9508074666649105
1733767644963736800,9.48873681640625,-0.27753676537685096,1.51276252425313,4.128697302564978
1733767644973696800,9.49869677734375,-0.2955957152891904,2.5116046352654693,2.8490476608768103
1733767644983656700,9.50865673828125,-0.5818353905489668,2.7066408851534125,1.6416550077565013
1733767644993617000,9.518616943359374,-0.7703747161656618,2.1706974406749007,1.0855075641609728
1733767645003576800,9.528576904296875,-0.6397574546962976,0.2278168219834566,1.235822190399468
1733767645013537500,9.53853759765625,-0.5309902059853077,-1.4634657016426325,1.3857200525306164
1733767645023497700,9.548497802734374,-0.6622948651969432,-1.766494708737731,0.665949734442681
1733767645033457700,9.558457763671875,-1.1362936024159191,-1.4089701413452624,-0.5521714526366442
1733767645043417600,9.56841748046875,-0.8975883066713809,-1.2002204234033822,-1.562023252636939
1733767645053377500,9.57837744140625,-0.28965047008395195,-0.9169646227926015,-2.0090105026811362
1733767645063337700,9.588337646484375,0.4112175791352987,-0.7805377982616424,-1.9056489124059677
1733767645073298700,9.598298583984375,1.2238760242789983,-0.7071428917050361,-1.1947511982120573
1733767645083258600,9.608258544921876,1.7848095331072806,-0.5475409432917833,-0.40279001559503375
1733767645093218800,9.61821875,2.2621844687610864,-0.5586264009296894,0.2928758618712425
1733767645103178800,9.6281787109375,2.6580893279522657,-0.36412908022403717,0.7226666240513324
1733767645113138700,9.638138671875,2.593986565876007,0.022181436669826506,0.956913040690869
1733767645123100000,9.648099853515625,2.1404197913110257,0.4399228646159172,1.1577725899048148
1733767645133059800,9.658059814453125,1.3552467344641685,0.5309931285947561,1.2726312873587011
1733767645143019800,9.668019775390626,0.6710217770099639,0.37547815723419187,1.4445016195841134
1733767645152979700,9.677979736328124,0.41189504000544547,0.2935907321423292,1.6765708383150397
1733767645162940000,9.68793994140625,0.34473577643539755,0.3652560384273529,2.034797854888439
1733767645172899800,9.69789990234375,0.233123659687303,0.3191881147354841,2.397050912107527
1733767645182860500,9.707860595703124,0.17588376911785453,0.1364712481945753,2.5308573250070214
1733767645192820700,9.71782080078125,0.4058136377325281,-0.09929331792294979,2.306691134485602
1733767645202780700,9.72778076171875,0.5455577335853129,0.06136836867630481,1.6361835906080902
1733767645212740600,9.73774072265625,0.5513152741987258,0.24968963109552858,0.7113697886850684
1733767645222700800,9.74770068359375,0.3078068159561604,0.18875848479270935,-0.19699052576087414
1733767645232661800,9.757661865234375,-0.05491707364507019,0.13376198923587798,-0.8652016292642801
1733767645242621700,9.76762158203125,-0.11266900538988411,0.13263152390122412,-1.1780330684494227
1733767645252582000,9.777581787109375,-0.02096460822597146,0.11471358989477157,-1.0236736968647688
1733767645262541800,9.787541748046875,-0.03971943144798278,0.2189151381254196,-0.5789870519131421
1733767645272501800,9.797501708984376,-0.026757147087529302,0.29876842704117296,-0.18898725204728542
1733767645282461700,9.807461669921874,0.016836568510532376,0.3146943104475736,-0.05956979482173919
1733767645292422700,9.817422607421875,0.10604279218316078,0.18652035047709942,-0.2324000581204891
1733767645302382600,9.827382568359376,0.12755422063693403,0.0983387936770916,-0.5763241893794387
1733767645312342500,9.837342529296874,0.025841566612571476,0.13820669368505478,-0.8914308800201862
1733767645322302700,9.847302734375,-0.46159576724171636,0.1618511886447668,-0.7231129065141081
1733767645332262700,9.8572626953125,-1.0541292600788175,0.11010054314136504,0.22265468997992574
1733767645342223600,9.8672236328125,-1.1877720068491995,0.10111761074066161,1.5782650701247154
1733767645352183800,9.877183837890625,-0.9440028518438338,0.0682090283513069,2.7926702323555945
1733767645362143700,9.887143798828125,-0.549970654656738,0.02469429627358913,3.60578402005136
1733767645372103700,9.897103759765624,-0.1604233477987349,-0.12156184835433959,4.087047779837251
1733767645382063600,9.907063720703125,0.03977086937427521,-0.24357494760751722,4.0901428232431405
1733767645392024800,9.91702490234375,-0.09314823929667472,-0.30914310606122014,3.5261882130280133
1733767645401984800,9.92698486328125,-0.37917555044740436,-0.4076911585748195,2.6312638648688793
1733767645411944700,9.93694482421875,-0.6584206541121006,-0.5255787023305892,1.7329513355761765
1733767645421905000,9.94690478515625,-1.1551695677995681,-0.3104524350941181,1.0247615651667117
1733767645431864800,9.95686474609375,-1.1039055367693305,0.19547171869575977,0.5014734579913318
1733767645441824800,9.96682470703125,-1.2544110094048082,1.1238082148522137,0.4205878303531557
1733767645451785700,9.97678564453125,-1.9381562205180525,2.204901908093691,0.9685649000398814
1733767645461745700,9.98674560546875,-2.828841323672235,2.987579056471586,1.840202480635792
1733767645471705600,9.99670556640625,-3.48500601555109,3.181000856900215,2.8062226646289226
1733767645481665800,10.006665771484375,-4.087571803711355,3.1288042211949825,3.255160318088531
1733767645491625700,10.016625732421875,-4.568191712635755,2.8602093986213206,3.055901774330437
1733767645501586700,10.026586669921874,-5.080047010040283,2.236581825470924,2.5893469233766195
1733767645511546600,10.036546630859375,-5.918784483814239,1.6339678142547607,1.552512204708904
1733767645521506800,10.0465068359375,-7.297330260801315,1.6216788260459898,0.3810411981888115
1733767645531466800,10.056466796875,-9.275904124164581,2.466287822201848,-0.3511172576334327
1733767645541426700,10.0664267578125,-10.046676899737118,3.0240035380274057,-0.10655008411817252
1733767645551388000,10.076387939453125,-9.334967723029852,3.1075837385118006,0.9938424030289054
1733767645561347800,10.086347900390624,-8.25073105558753,2.149327904909849,2.810207934872806
1733767645571307800,10.096307861328125,-7.204009003025293,0.7083090128749608,4.323961808250845
1733767645581267700,10.106267822265625,-5.849096615082026,-0.07166939793825149,4.606666696980596
1733767645591227600,10.1162275390625,-3.9330744849607346,0.3823965583205223,4.307092214253545
1733767645601187600,10.1261875,-2.646313257701695,1.4404717795461415,3.883671571627259
1733767645611148800,10.136148681640625,-2.025963391047716,2.192726317131519,3.5975042674839495
1733767645621108700,10.146108642578126,-1.698141449610144,2.639109902194142,3.7563884230166673
1733767645631068700,10.156068603515624,-1.1809025594711302,3.126118927633762,4.02439433978647
1733767645641028600,10.166028564453125,-0.31116679390855134,3.5973441084861753,3.5627871743679043
1733767645650988800,10.17598876953125,0.6467511860411613,4.417568020448089,2.7574510349363086
1733767645660948700,10.18594873046875,2.2746084815263745,5.094624985969066,1.374031076041609
1733767645670909700,10.19590966796875,3.61421341022253,5.331648612236976,0.6811386818766594
1733767645680870000,10.205869873046876,4.573500340437889,4.661946685653924,0.5985746726974844
1733767645690829800,10.215829833984374,5.214858800590038,4.30786436766982,0.6612678602367639
1733767645700789800,10.225789794921875,5.721316622865199,3.459737134259939,0.46890711316838857
1733767645710749700,10.235749755859375,5.958710836011171,2.4135306300044057,0.3514686283543706
1733767645720710700,10.245710693359374,5.939267299872636,1.2776917856186627,1.181261163650453
1733767645730670600,10.255670654296875,6.036399640369415,-0.017935469663143157,1.5567743921980262
1733767645740630500,10.265630615234375,5.886483804190158,-1.1305512593716383,1.8154235748186707
1733767645750590700,10.2755908203125,4.857301207710802,-1.5967857923299074,2.3064140711098906
1733767645760550700,10.285550537109375,2.9584090760886665,-1.8599556672453879,3.7649051992103457
1733767645770511600,10.29551171875,1.6920798114836215,-1.7324819644987581,4.775527179865539
1733767645780471800,10.305471923828126,1.0272469522416592,-0.9180822286456822,3.5264284515246747
1733767645790431700,10.315431640625,1.0837801558464766,0.2559352474868297,1.0034285620197654
1733767645800391700,10.3253916015625,1.1892786120198666,0.2205453696757555,-0.7133291791245341
1733767645810350800,10.335350830078125,1.7859465743131935,-0.189404381480813,-1.9631433622583745
1733767645820311800,10.345311767578124,2.6174098193004727,-0.41635201941430566,-2.861303331337869
1733767645830272000,10.35527197265625,3.8507428232327103,-0.7323691028982401,-3.56132177799046
1733767645840232000,10.36523193359375,4.813575755491852,-1.2072212420761586,-4.311828595125675
1733767645850192000,10.37519189453125,5.14467408825159,-2.1117805568039416,-4.930059862190484
1733767645860151800,10.38515185546875,4.813017244826257,-3.369472925966978,-5.152751596245169
1733767645870112000,10.395112060546875,4.4645685488149525,-4.363613727420568,-4.978492761448026
1733767645880073000,10.405072998046874,4.2629955906346435,-4.707921670365334,-4.657998532550037
1733767645890033000,10.415032958984375,3.950507850320637,-4.861285601171851,-3.6662393655359744
1733767645899992800,10.424992919921875,3.646021922415495,-4.623141446441411,-2.38392518081367
1733767645909952800,10.434952880859376,3.3206568726107477,-4.065816775760054,-1.4935349689528346
1733767645919912700,10.44491259765625,3.173021840845048,-3.466920908284187,-0.7984151079967617
1733767645929874000,10.4548740234375,2.5670871607735752,-2.98772167981267,-0.06193917256789282
1733767645939833900,10.464833740234376,1.3407225345492362,-2.2680594982743263,0.407390129801631
1733767645949793800,10.474793701171874,-0.36400633062720295,-1.2813397867321967,0.13918459880650041
1733767645959753700,10.484753662109375,-2.3985627779752017,-0.46664252923727034,-0.43748540833592414
1733767645969714000,10.4947138671875,-4.81209720737189,0.3976484879881143,-0.3322159386128187
1733767645979675000,10.5046748046875,-6.726681413644552,1.790459521692991,0.5982692600101233
1733767645989634800,10.514634765625,-7.239443889021873,3.0593180125147104,1.8488740089997648
1733767645999595000,10.524594970703125,-7.2208303739666935,4.063648199549317,3.005884528490901
1733767646009555000,10.534554931640624,-8.494355103033781,6.351344126185775,3.9709231541007757
1733767646019515000,10.544514892578125,-13.555997856855392,10.457950008451938,5.755999813711643
1733767646029475000,10.55447509765625,-6.838084271556139,6.430983480089902,4.2272231432467695
1733767646039435800,10.564435791015624,2.995100976409018,2.0152444286346434,2.1398881686523556
1733767646049395700,10.574395751953125,5.840291377335786,2.6737200278043747,1.3688076423048972
1733767646059356000,10.58435595703125,8.113007176983356,2.8621844980865716,0.7078013556137681
1733767646069315800,10.59431591796875,9.499839136278629,-0.6039443830370903,0.4861217212110758
1733767646079275800,10.60427587890625,9.891157836723327,-4.089919535881281,0.062140814353525635
1733767646089237000,10.614237060546875,10.210110389137267,-3.970378964221477,-1.9838053342759607
1733767646099197000,10.624197021484376,10.67693528920412,-2.1250579715281726,-4.527886005732417
1733767646109156900,10.634156982421874,8.74074043188691,-1.404017487373948,-7.432729495850205
1733767646119116800,10.64411669921875,8.150402549397946,0.300618438822031,-9.734933840310573
1733767646129077000,10.654076904296875,8.835811748200655,1.9093571192741392,-9.918755453222989
1733767646139038000,10.664037841796874,7.560583722347021,0.40237551651000975,-8.104853096622229
1733767646148998000,10.673997802734375,5.057526550674438,-1.1394108576536177,-6.3866299591004845
1733767646158958000,10.6839580078125,3.1299007842600344,-2.2906652978360653,-4.834818742267787
1733767646168918000,10.69391796875,2.1857710911661385,-2.341322887405753,-3.4209868401050567
1733767646178878000,10.7038779296875,1.8057604050688445,-1.8258990838646887,-2.5420614405885336
1733767646188838000,10.713837890625,1.632946654513478,-1.5696651456922293,-1.8447449463710188
1733767646198798800,10.723798828125,1.3802216012448072,-1.3615145626872778,-1.1969877250924705
1733767646208758800,10.7337587890625,0.9516336389832198,-0.6082236677914857,-0.7651882534384727
1733767646218718700,10.74371875,0.6400153019148856,1.089047867116332,-0.3627069019338116
1733767646228679000,10.753678955078126,0.37642508269548414,3.566212472641468,0.42445846124142406
1733767646238638800,10.763638916015625,0.006409867042303085,6.57679421903789,2.0850544624418017
1733767646248599800,10.773599853515625,-0.12396532929949462,7.419761293205618,4.759857609307765
1733767646258560000,10.78356005859375,-0.10417053203787655,6.4549249121695755,6.4533180614948265
1733767646268520000,10.79352001953125,-0.46864510123133657,4.600625663250685,7.215051206043362
1733767646278480000,10.80347998046875,-0.5257108042776585,2.3054092779815196,7.4140323941648
1733767646288439800,10.813439697265625,-0.5618096340756863,0.38194530742168425,6.967953929528593
1733767646298400800,10.82340087890625,-1.0104044654469937,-1.5534569382131098,6.431950863817334
1733767646308360700,10.833360595703125,-1.5181376414202152,-2.2736334990143776,6.116517133179307
1733767646318320600,10.843320556640625,-1.934214497154951,-2.0497879187494514,5.640949539208412
1733767646328280800,10.85328076171875,-2.1722797414302826,-1.7422423110127447,5.077221431225538
1733767646338240800,10.86324072265625,-2.1492343814074992,-1.3080401621311901,4.504430895864964
1733767646348201700,10.87320166015625,-2.1240192761301993,-0.8236819434612989,3.810042856314778
1733767646358162000,10.883161865234374,-1.8385107281565665,-1.0064847347199917,2.9579391204893586
1733767646368121900,10.893121826171875,-1.5763723882459104,-1.2551175502389669,2.1227033712260424
1733767646378081800,10.903081787109375,-1.5118227591849862,-1.1377835487127304,1.544927887059748
1733767646388042000,10.9130419921875,-1.4722949047863483,-0.8164040614128112,0.7014625079810619
1733767646398002000,10.923001953125,-1.1470682405389845,-0.021616788524389266,-0.2921629643615335
1733767646407963000,10.932962890625,-0.927120690625906,0.3802303201973438,-0.8417594519436359
1733767646417923000,10.942923095703126,-0.8441571607351303,0.1086474217236042,-2.0615452842995525
1733767646427883000,10.952883056640625,-0.334430984313786,0.3761871822863817,-3.4340827607825397
1733767646437843000,10.962843017578125,-0.2131120048046112,0.5639239228159189,-4.037742189398408
1733767646447803000,10.972802978515626,-0.7683075545027852,0.5563309834688902,-4.306767220082879
1733767646457763800,10.982763916015625,-1.3620470621287821,0.7399421685010195,-4.224494595065713
1733767646467723800,10.992723876953125,-1.6079614124692976,1.2014561026781796,-4.145362021639943
1733767646477683700,11.00268359375,-1.4548139008924363,1.9579554382264612,-4.379636641460657
1733767646487644000,11.012643798828124,-1.4473182844400405,1.6122160011738538,-4.440181418794393
1733767646497603800,11.022603759765625,-1.6434312236487865,0.23942133505940436,-3.612606267286837
1733767646507564800,11.032564697265625,-2.034593418357521,-0.9419850822806358,-2.196093163216114
1733767646517525000,11.04252490234375,-2.5077815698459744,-1.0032938297241925,-0.6185582339968532
1733767646527485000,11.05248486328125,-2.8123405629873273,-0.46913434605300425,0.5793275359138846
1733767646537444900,11.06244482421875,-2.891585364615917,0.5690273834347724,1.6065169127494097
1733767646547404800,11.07240478515625,-2.849210157962143,1.935676386401057,2.679629836370051
1733767646557366000,11.082365966796875,-2.568286307430267,3.259482272940874,3.8724130955100056
1733767646567326000,11.092325927734375,-2.2995886090040205,4.470947143936157,5.091579626923799
1733767646577286000,11.102285888671876,-2.398994447390735,5.713526115119457,6.131091601976752
1733767646587245800,11.112245849609375,-2.8765377253487703,7.075434645560383,6.881997063040733
1733767646597205800,11.122205810546875,-3.4255282829269764,8.099021906250714,7.302817167779803
1733767646607165700,11.132165771484376,-4.16926692110151,8.326266481304168,7.541453489941358
1733767646617127000,11.142126953125,-5.227510192370414,7.33465841319859,7.523754167121648
1733767646627086800,11.1520869140625,-6.849165637540817,4.80904921797812,6.933966319730877
1733767646637046800,11.162046875,-10.04191889155507,1.3808143064409493,6.463466530543565
1733767646647006700,11.1720068359375,-27.874600380396842,-3.4408775354892014,8.692386443084478
1733767646656967000,11.181966796875,-26.46876210733652,-2.650973942989111,4.794884499025344
1733767646666927900,11.191927978515626,-10.991131002479792,-0.0816945328682661,2.691555836485326
1733767646676887800,11.2018876953125,-5.0429906603217125,1.5264017580270766,2.595605106988549
1733767646686848000,11.211847900390625,-1.7931882160045205,2.8608289918243885,1.715128386376798
1733767646696808000,11.221807861328125,0.4366821291290223,3.688442429515719,0.5376757116312161
1733767646706768000,11.231767822265626,2.590622057878971,5.456642188605666,-0.8860308476075529
1733767646716728800,11.241728759765625,4.766548046857118,7.58563165436387,-2.820596057896316
1733767646726688800,11.251688720703125,6.3286839660882945,9.25893603822887,-3.980202731360495
1733767646736648700,11.261648681640626,8.159242858457565,10.848893445843457,-4.898193774591386
1733767646746609000,11.27160888671875,9.927871656614542,12.217138778090476,-6.347195189812779
1733767646756568800,11.28156884765625,9.770811793899535,10.69248941668868,-6.8828428662151095
1733767646766529800,11.29152978515625,8.128062122774123,7.311099258434772,-5.624350286585092
1733767646776490000,11.301489990234375,6.405621659818292,3.764984401926398,-4.752248595608771
1733767646786450000,11.311449951171875,5.689989172187447,1.0024433503746986,-4.075101321455836
1733767646796409900,11.321409912109376,5.392742255625128,-0.4907411977052688,-3.5111981491670012
1733767646806369800,11.331369873046874,5.506583154338598,-1.2516045736819505,-3.1278377142503855
1733767646816331800,11.341331787109375,5.749356137913465,-1.6695809794276952,-2.8699241524279118
1733767646826292000,11.3512919921875,6.187859198859334,-2.3112159184336662,-2.5051141042023897
1733767646836252000,11.361251953125,6.028558863741159,-2.9314117635697126,-1.843648091045022
1733767646846211800,11.3712119140625,5.519650725704431,-3.810384801620245,-1.1886832034099846
1733767646856172000,11.381172119140626,5.032091080644727,-4.769813186132907,-0.6454425876606256
1733767646866132000,11.391132080078124,4.3515591324895615,-5.5518029367685315,0.3993508349265903
1733767646876093000,11.401093017578125,4.095596412473917,-5.7766848743438715,1.3696829638347028
1733767646886053000,11.41105322265625,3.9037873079389334,-5.156314257162809,1.6922899471029638
1733767646896013000,11.421012939453124,3.6419366989284754,-3.848032687491178,1.3666069173902273
1733767646905973000,11.430972900390625,3.6185663447350263,-2.5073317802518607,0.6080842593207955
1733767646915933000,11.440932861328125,3.6397371430575847,-1.516637904381752,-0.3056239920243621
1733767646925894100,11.45089404296875,3.5270734714299437,-0.9186053757369518,-1.3150553015902637
1733767646935854000,11.46085400390625,3.5490246064752338,-0.7051508411049843,-2.497266605572402
1733767646945814000,11.47081396484375,3.7659237286031244,-1.2089496733039617,-3.198911776643991
1733767646955774000,11.48077392578125,4.147909075774252,-2.0117326211214066,-3.5793238831490277
1733767646965734000,11.49073388671875,4.517949718129635,-2.71130770792067,-3.7219773271098733
1733767646975694800,11.50069482421875,4.6745454704642295,-3.4783716921031473,-3.728432786859572
1733767646985655000,11.510655029296874,4.509538740397989,-4.192876637008786,-3.616296646237373
1733767646995615000,11.520614990234375,3.851190859261155,-4.609775184389949,-3.4806782154798506
1733767647005575000,11.530574951171875,2.849913630056381,-4.551448083105683,-3.140395290267467
1733767647015534800,11.540534912109376,1.6795383098185062,-4.105595243918896,-2.556520174051821
1733767647025496000,11.55049609375,0.3052596887566149,-3.2719881187707185,-1.889933456879854
1733767647035456000,11.5604560546875,-1.7860602638207375,-2.0410230130136013,-1.2268658537447452
1733767647045416000,11.570416015625,-5.996226619935035,0.1060065518260002,-0.013787263942509889
1733767647055376100,11.580376220703124,-9.475893612545729,2.605364868980646,2.0864389025375245
1733767647065336000,11.590336181640625,-10.311354256606101,4.242968409389257,4.463272079263628
1733767647075296800,11.600296875,-8.864954840576647,4.967011582490802,5.455186144578456
1733767647085257000,11.610257080078124,-6.960344623568654,4.793368249243498,5.316632829412818
1733767647095217000,11.620216796875,-5.669751855322718,3.9650966399043797,4.324931822326779
1733767647105176800,11.6301767578125,-4.876314535738527,3.431743796440959,3.0062504391938445
1733767647115136800,11.64013671875,-4.471265708366036,2.9361352849602698,1.6510180255159734
1733767647125097000,11.650096923828125,-3.9677515383273363,1.9059703994452952,0.7970612822350114
1733767647135058000,11.660057861328125,-2.8659517416656017,0.5843254903316497,0.29586013837903735
1733767647145017900,11.670017822265624,-1.3424531577341259,-0.6912614319622516,-0.22146781828291712
1733767647154978000,11.67997802734375,0.28686522327959535,-1.5517676699519156,-1.0627543189525603
1733767647164938000,11.68993798828125,2.0711755746930836,-0.38367490769326684,-2.35734930857718
1733767647174898000,11.69989794921875,1.8939611049607394,3.7671412876993418,-2.9381571461766955
1733767647184859100,11.709859130859375,-1.2910133317455648,8.309939615881442,-3.1127389293178913
1733767647194819000,11.719819091796875,2.758312035679817,6.974006653696298,-4.4238086684033275
1733767647204779000,11.729779052734376,6.947434288591146,3.274846430811286,-3.9202871918410063
1733767647214739200,11.7397392578125,6.503003591161966,0.6024684652656317,-2.5972125421851873
1733767647224699100,11.74969921875,5.530831460410356,-1.6930764213055371,-2.8488685049176214
1733767647234659800,11.759659912109376,5.351333555915952,-2.7635727326869963,-3.7053184532538053
1733767647244620000,11.7696201171875,5.489175507941842,-2.322223634660244,-5.257498503398895
1733767647254580000,11.779580078125,5.406495471167564,-1.3485463600426912,-7.024673595616221
1733767647264540000,11.789539794921875,5.34779193778634,-0.8067933525025844,-7.8943118190884585
1733767647274499800,11.799499755859374,5.354483544379472,-1.4033750978171824,-7.545731605651974
1733767647284461000,11.8094609375,5.487221451264619,-1.969050832736492,-6.65074149878025
1733767647294421000,11.8194208984375,5.728731283035874,-1.947647979223728,-5.522948598206043
1733767647304381000,11.829380859375,5.5026919921189545,-1.965067316058278,-4.267710051935911
1733767647314341000,11.839341064453125,5.0425055071532725,-2.190350235649943,-3.1105235913559794
1733767647324301000,11.849301025390625,4.765625086793303,-2.135067908889055,-2.3829788398742675
1733767647334262000,11.859261962890624,4.571126012521982,-1.8827040901482104,-1.512620485433936
1733767647344222000,11.869221923828125,4.725409396260977,-1.0928472593992948,-0.9296180603995918
1733767647354182000,11.879181884765625,5.219841265177727,0.2823410238534212,-0.381817333660461
1733767647364141800,11.889141845703126,5.506613549476862,1.9395622879236936,0.5392507058629766
1733767647374101800,11.899101806640624,5.242541757285594,3.50249958666563,1.5263260624423622
1733767647384063000,11.90906298828125,4.651353979969024,5.316174564251304,2.6821120085746046
1733767647394023000,11.91902294921875,4.002088107693195,6.635605888968706,4.388581872199476
1733767647403982800,11.92898291015625,3.028141368484497,6.38734775198102,6.3927843900769945
1733767647413943000,11.938943115234375,1.4675105931192636,4.17440457625091,6.7520864885359995
1733767647423903000,11.948903076171876,0.2382207270979881,2.2783476680546997,6.116043085926771
1733767647433864000,11.958864013671874,-0.6444447357296943,0.3931710503131151,5.597231393513083
1733767647443824000,11.96882421875,-1.463084008848667,-1.0537205331474542,5.221990552166104
1733767647453784000,11.9787841796875,-2.1174808142721653,-1.931606945005059,4.569057389554381
1733767647463744000,11.988743896484374,-2.6967642187833785,-2.1318121219635007,4.156571690179407
1733767647473704200,11.9987041015625,-3.0217911226749417,-1.7865689439952372,4.03114498309046
1733767647483665000,12.008664794921875,-3.2421792559623714,-0.8376479249715805,3.6418162874192
1733767647493624800,12.018624755859374,-3.36290406897068,0.4714981525748968,3.2566534792557356
1733767647503584800,12.028584716796875,-3.3092075500965117,1.6077157671451567,3.023247458963096
1733767647513545000,12.038544921875,-3.421573700082302,1.8819658390015364,2.4522169190123675
1733767647523505000,12.0485048828125,-3.5071745927393434,1.3487269773066044,1.971730865600705
1733767647533465900,12.0584658203125,-3.451784129428863,0.37407939635217186,1.7962883739769457
1733767647543426000,12.068426025390625,-3.38006153999865,-0.2936211272805929,1.254638972941786
1733767647553386000,12.078385986328126,-3.125246528713405,-0.5238029248297215,0.44666671285293996
1733767647563346000,12.088345947265625,-2.514778004604578,-0.3568155423402786,-0.26251316457241775
1733767647573306000,12.09830615234375,-2.054477830131352,-0.20357377660870551,-0.6362909476295113
1733767647583267000,12.10826708984375,-1.838574002651125,-0.42954818559587,-0.9262062061294912
1733767647593227000,12.11822705078125,-1.4188792486801742,-0.6511316661477089,-1.6930261524230241
1733767647603187200,12.128187255859375,-0.9428720942482351,-0.4550578899055719,-1.9322084180295467
1733767647613147100,12.138147216796876,-0.22485738765597343,-0.6645435209065675,-2.119594445425272
1733767647623107000,12.148107177734374,-0.41427872027158735,-1.1672528043031691,-2.5754028614372015
1733767647633068000,12.158068115234375,-0.8010007405757904,-1.4564794960170984,-3.025612142267823
1733767647643028000,12.168028076171876,-1.0811423546887933,-1.1031208161324262,-3.217979465207457
1733767647652988000,12.17798779296875,-1.2963187446773052,0.10055763877034186,-3.1825758511319755
1733767647662947800,12.18794775390625,-1.7677949776813386,1.684891361284256,-2.7303976083159447
1733767647672908000,12.197907958984375,-2.3659067090421915,3.1377649417638778,-1.8057960609041153
1733767647682868000,12.207867919921876,-3.560984508860111,3.5245658725231883,0.35966274846494195
1733767647692829000,12.217828857421875,-4.279235362295807,3.8053129051834342,2.400534954831004
1733767647702789000,12.2277890625,-4.3161227851882575,4.374401078894734,3.8924101738780736
1733767647712749000,12.2377490234375,-4.360374307107925,4.91287258054614,4.8286172572791575
1733767647722709000,12.247708984375,-4.542867009504139,5.11461095842123,5.372513122066855
1733767647732670000,12.257669921875,-4.8782037104859945,5.202793684265017,5.915272091779112
1733767647742630000,12.2676298828125,-5.207477458167076,5.113126857343316,6.2214960955232375
1733767647752589800,12.27758984375,-5.535196669882535,4.938223879423737,6.269751884648204
1733767647762549800,12.2875498046875,-6.142786131423711,4.533777986380458,6.270322378012538
1733767647772510000,12.297510009765626,-8.108868762004375,3.688375209498405,6.0666463100731365
1733767647782470000,12.307469970703124,-14.374796119928359,2.1079367408573626,5.399233371210098
1733767647792430800,12.317430908203125,-25.425507438623903,1.215601532408595,4.5183287805750965
1733767647802391000,12.32739111328125,-18.088018185913562,1.8727981976836918,3.1652561752796173
1733767647812350000,12.337349853515626,-8.528570676368474,2.565012984848022,2.539671915103495
1733767647822310000,12.347309814453125,-4.233496816688776,3.3309932654470202,1.9815213149920106
1733767647832269800,12.357269775390625,-1.4270073178172111,3.281045285451412,1.786332797151804
1733767647842231000,12.36723095703125,0.38825697478652,2.39349205058217,2.022345200550556
1733767647852191000,12.37719091796875,1.7472037328124046,1.9281939216911792,1.811616291490197
1733767647862151000,12.38715087890625,3.0757740572750567,2.3985458268404005,1.0124459812119602
1733767647872111000,12.397111083984376,4.266774816912412,3.967492595130205,0.500039771926403
1733767647882071000,12.407071044921874,5.964333352068066,5.6102697387844325,0.11762597021013498
1733767647892032000,12.417031982421875,7.826150721532106,7.8924308276474475,-0.2200958723425865
1733767647901992200,12.4269921875,9.51964273790121,10.40193878289461,-1.0541714917853473
1733767647911952100,12.4369521484375,11.023369722783565,11.885408577167986,-1.8984654306426643
1733767647921912000,12.446912109375,10.408108995962142,10.872058048331738,-1.9758836013659833
1733767647931872000,12.4568720703125,9.20684286289811,7.628589337080717,-1.1487404115349054
1733767647941833000,12.4668330078125,8.456649934017658,3.6466602203190326,-0.5335375523805618
1733767647951793000,12.47679296875,7.727677487820387,0.3581283785045147,-0.5443588426569477
1733767647961752800,12.4867529296875,7.599268550050258,-1.3297352765887975,-0.4916144734084606
1733767647971713000,12.496713134765624,7.093411616277694,-2.0476398008048533,-0.4954416304811835
1733767647981673000,12.5066728515625,6.595616408407688,-2.9157191043972968,-0.18685296169864013
1733767647991634000,12.516634033203125,6.055884677562117,-3.724787416094541,0.537298950740695
1733767648001594000,12.526593994140624,5.3319397041380405,-4.828958033540845,2.6442627549126745
1733767648011554000,12.536553955078125,3.9402994677782055,-5.012639945721626,4.695803362548351
1733767648021514000,12.546513916015625,2.401156593860686,-4.1676942649573085,5.426854368585348
1733767648031474000,12.556473876953126,1.4500918408066032,-3.331784708085656,4.335081460419297
1733767648041435000,12.566434814453125,0.7284113051831722,-1.8523270720630882,2.2864318980500102
1733767648051394800,12.576394775390625,0.0265168355256319,-0.6163403387516737,0.30628479402065273
1733767648061354800,12.586354736328126,0.09476824171394109,-0.2987666734755039,-1.4336631224445997
1733767648071315000,12.59631494140625,1.6239149145349858,-0.41200493012070655,-2.339783110617846
1733767648081275000,12.60627490234375,3.9929730733454227,-1.0965016902536153,-2.6661870019510387
1733767648091235800,12.61623583984375,6.307929931873082,-1.9173446108967065,-2.664462954637408
1733767648101196000,12.626196044921874,7.996240746212005,-2.586742586097121,-2.929749383315444
1733767648111156000,12.636156005859375,9.0252482783854,-2.895615643045306,-3.2328058629393577
