time,seconds_elapsed,z,y,x
1733767221340066800,0.04506689453125,0.06295888125896454,-0.053508952260017395,-0.16056528687477112
1733767221350026800,0.05502685546875,0.05879262834787369,-0.13584324717521667,-0.14013351500034332
1733767221359986700,0.064986572265625,0.054125506430864334,-0.2056633085012436,-0.13631200790405273
1733767221369945900,0.07494580078125,0.053046923130750656,-0.24633775651454926,-0.14717665314674377
1733767221379905800,0.08490576171875,0.0417635515332222,-0.2544408440589905,-0.17167247831821442
1733767221389865000,0.094864990234375,0.03207363933324814,-0.23029422760009766,-0.20888163149356842
1733767221399825000,0.104824951171875,0.01459735631942749,-0.1947997659444809,-0.23246720433235168
1733767221409784800,0.114784912109375,-0.0008657558355480433,-0.16860917210578918,-0.25005125999450684
1733767221419744800,0.124744873046875,-0.029504530131816864,-0.14014580845832825,-0.2748592793941498
1733767221429705000,0.134705078125,-0.055031727999448776,-0.10485280305147171,-0.3029710650444031
1733767221439665000,0.144664794921875,-0.06989583373069763,-0.08928675949573517,-0.3281359374523163
1733767221449624800,0.154624755859375,-0.0704183503985405,-0.08869554102420807,-0.34456443786621094
1733767221459584800,0.164584716796875,-0.05640837922692299,-0.10036636143922806,-0.3515768051147461
1733767221469545000,0.174544921875,-0.024714898318052292,-0.10598696023225784,-0.357226699590683
1733767221479505000,0.1845048828125,0.011883600614964962,-0.1252821385860443,-0.34764203429222107
1733767221489464800,0.19446484375,0.027509696781635284,-0.14665479958057404,-0.32796287536621094
1733767221499423700,0.204423828125,0.019291652366518974,-0.1760523021221161,-0.2956351637840271
1733767221509384000,0.214384033203125,-0.006553261540830135,-0.22002987563610077,-0.26624876260757446
1733767221519343900,0.22434375,-0.02476765587925911,-0.26058676838874817,-0.2419155091047287
1733767221529303800,0.2343037109375,-0.03363971412181854,-0.2942049205303192,-0.22290931642055511
1733767221539263700,0.244263671875,-0.029254455119371414,-0.30090442299842834,-0.21527984738349915
1733767221549224000,0.254223876953125,-0.017749333754181862,-0.30395933985710144,-0.2136201709508896
1733767221559184000,0.264183837890625,0.001532900147140026,-0.3060706853866577,-0.2160373032093048
1733767221569143800,0.274143798828125,0.012252656742930412,-0.33065328001976013,-0.20615750551223755
1733767221579103700,0.284103759765625,0.019238388165831566,-0.39114758372306824,-0.17867256700992584
1733767221589064000,0.29406396484375,0.009180694818496704,-0.5058400630950928,-0.1499873846769333
1733767221599023900,0.30402392578125,0.003590867854654789,-0.6592381000518799,-0.1246597021818161
1733767221608983800,0.31398388671875,-0.0008875038474798203,-0.8018367886543274,-0.1045757383108139
1733767221618943700,0.32394384765625,-0.000003984663635492325,-0.8879246115684509,-0.07131395488977432
1733767221628903000,0.33390283203125,-0.025446761399507523,-0.965263307094574,0.0031363116577267647
1733767221638862800,0.34386279296875,-0.08837749809026718,-1.088594913482666,0.10953274369239807
1733767221648822800,0.35382275390625,-0.17763946950435638,-1.2639460563659668,0.23230473697185516
1733767221658782700,0.36378271484375,-0.27709874510765076,-1.4312266111373901,0.3163641095161438
1733767221668743000,0.373742919921875,-0.359040230512619,-1.554442286491394,0.32223424315452576
1733767221678702800,0.383702880859375,-0.4007970988750458,-1.5883744955062866,0.2123095542192459
1733767221688662800,0.393662841796875,-0.39024725556373596,-1.462379813194275,0.015868406742811203
1733767221698622700,0.403622802734375,-0.3480480909347534,-1.207215666770935,-0.18498490750789642
1733767221708583000,0.4135830078125,-0.31198063492774963,-0.9618930220603943,-0.3326965868473053
1733767221718542800,0.42354296875,-0.3117266297340393,-0.8211422562599182,-0.4257467985153198
1733767221728502800,0.433502685546875,-0.33297890424728394,-0.7287936806678772,-0.5076416730880737
1733767221738463000,0.443462890625,-0.32703033089637756,-0.5636461973190308,-0.6116822957992554
1733767221748423000,0.4534228515625,-0.2658514082431793,-0.2645532488822937,-0.7049658894538879
1733767221758382800,0.4633828125,-0.15166939795017242,0.1006641536951065,-0.7747288942337036
1733767221768341800,0.473341796875,-0.007274677976965904,0.42622628808021545,-0.8049562573432922
1733767221778301700,0.4833017578125,0.11808259040117264,0.6062774062156677,-0.7581285834312439
1733767221788262000,0.493261962890625,0.19272300601005554,0.520797073841095,-0.601813793182373
1733767221798221800,0.503221923828125,0.2014927715063095,0.12294495105743408,-0.3309590816497803
1733767221808181800,0.513181640625,0.14193463325500488,-0.4957563579082489,0.004656457342207432
1733767221818141700,0.5231416015625,0.06468071043491364,-1.1517924070358276,0.3327885568141937
1733767221828102000,0.533101806640625,-0.004782786592841148,-1.660683035850525,0.5711725950241089
1733767221838061800,0.543061767578125,-0.0699981078505516,-1.9852615594863892,0.7135435938835144
1733767221848021800,0.553021728515625,-0.15528850257396698,-2.1627883911132812,0.7815391421318054
1733767221857982000,0.56298193359375,-0.30969101190567017,-2.272787094116211,0.8170169591903687
1733767221867942000,0.57294189453125,-0.5112197995185852,-2.438458204269409,0.8402620553970337
1733767221877901800,0.58290185546875,-0.6529565453529358,-2.762279748916626,0.7897979617118835
1733767221887861800,0.59286181640625,-0.6466408371925354,-3.112985610961914,0.6357644200325012
1733767221897820700,0.602820556640625,-0.5181654691696167,-3.205071449279785,0.39789268374443054
1733767221907780900,0.61278076171875,-0.32438674569129944,-2.9020633697509766,0.09394583106040955
1733767221917740800,0.62274072265625,-0.14479094743728638,-2.3734726905822754,-0.14075279235839844
1733767221927700700,0.63270068359375,0.015249595046043396,-1.793541669845581,-0.26752325892448425
1733767221937660700,0.64266064453125,0.13307145237922668,-1.2233257293701172,-0.3285227417945862
1733767221947620900,0.652620849609375,0.19724564254283905,-0.740516185760498,-0.38087835907936096
1733767221957580800,0.662580810546875,0.2537963092327118,-0.4012731909751892,-0.47272711992263794
1733767221967540700,0.672540771484375,0.32311731576919556,-0.16693177819252014,-0.6117537021636963
1733767221977501000,0.6825009765625,0.3965063989162445,0.002140806056559086,-0.7798036336898804
1733767221987460900,0.6924609375,0.4526434540748596,0.10544881969690323,-0.9508350491523743
1733767221997420800,0.7024208984375,0.49347105622291565,0.0952611118555069,-1.1003841161727905
1733767222007380700,0.712380615234375,0.509539783000946,-0.004345901310443878,-1.2086451053619385
1733767222017341000,0.7223408203125,0.5056014060974121,-0.1275952309370041,-1.2678834199905396
1733767222027300900,0.73230078125,0.5098766088485718,-0.24056412279605865,-1.296993374824524
1733767222037260800,0.7422607421875,0.5116373300552368,-0.3971559703350067,-1.3076595067977905
1733767222047219700,0.7522197265625,0.4747908413410187,-0.5131321549415588,-1.302489995956421
1733767222057180000,0.762179931640625,0.37659838795661926,-0.4775739014148712,-1.2547235488891602
1733767222067139800,0.772139892578125,0.26982825994491577,-0.30616965889930725,-1.1515671014785767
1733767222077099800,0.782099853515625,0.16526435315608978,-0.05751662701368332,-1.0005217790603638
1733767222087059700,0.792059814453125,0.03019706904888153,0.17808391153812408,-0.8262584209442139
1733767222097020000,0.80202001953125,-0.17087018489837646,0.32671090960502625,-0.5998576283454895
1733767222106979800,0.811979736328125,-0.4451510012149811,0.3455687463283539,-0.3069213926792145
1733767222116939800,0.821939697265625,-0.7065704464912415,0.23637446761131287,0.017309680581092834
1733767222126899700,0.831899658203125,-0.9485202431678772,-0.07046003639698029,0.3144473731517792
1733767222136860000,0.84185986328125,-1.1837297677993774,-0.4588952660560608,0.5937123894691467
1733767222146819800,0.85181982421875,-1.3349512815475464,-0.9222317934036255,0.8014554977416992
1733767222156779800,0.86177978515625,-1.3518558740615845,-1.5056508779525757,0.8581977486610413
1733767222166739700,0.87173974609375,-1.262452244758606,-2.0655481815338135,0.770568311214447
1733767222176700000,0.881699951171875,-1.0680111646652222,-2.2111597061157227,0.6125688552856445
1733767222186659800,0.891659912109375,-0.7242215275764465,-1.3350595235824585,0.693158745765686
1733767222196618800,0.90161865234375,-0.24136552214622498,0.4960356056690216,1.4966861009597778
1733767222206578700,0.91157861328125,0.20509052276611328,0.8449573516845703,2.176269054412842
1733767222216539000,0.921538818359375,0.5277977585792542,-0.02822101302444935,2.4354970455169678
1733767222226498800,0.931498779296875,0.6077296137809753,-1.2523903846740723,2.5360467433929443
1733767222236458800,0.941458740234375,0.5284247398376465,-2.2843706607818604,2.648446559906006
1733767222246418700,0.951418701171875,0.45104947686195374,-3.02778697013855,2.752736806869507
1733767222256379000,0.96137890625,0.49026748538017273,-3.500606060028076,2.836071729660034
1733767222266338800,0.9713388671875,0.5496925115585327,-3.6053900718688965,2.8587868213653564
1733767222276298800,0.981298828125,0.5124620795249939,-3.4779417514801025,2.8949198722839355
1733767222286258700,0.9912587890625,0.40262556076049805,-3.3426787853240967,2.8811633586883545
1733767222296219000,1.001218994140625,0.3626714050769806,-3.3402774333953857,2.7672970294952393
1733767222306178800,1.0111787109375,0.40467318892478943,-3.397609233856201,2.6424593925476074
1733767222316138800,1.021138671875,0.4723483622074127,-3.4456098079681396,2.5350759029388428
1733767222326099000,1.031098876953125,0.4743044376373291,-3.404798984527588,2.373067617416382
1733767222336059000,1.041058837890625,0.4527941048145294,-3.2375576496124268,2.067495107650757
1733767222346018800,1.051018798828125,0.5446832776069641,-2.8410212993621826,1.5931737422943115
1733767222355977700,1.060977783203125,0.7183352112770081,-2.369173765182495,1.023673415184021
1733767222365937700,1.070937744140625,0.9151886105537415,-1.8954551219940186,0.4679703116416931
1733767222375897900,1.08089794921875,1.0943443775177002,-1.4489774703979492,0.011911705136299133
1733767222385858600,1.090858642578125,1.1975775957107544,-0.9913997650146484,-0.3488779067993164
1733767222395818500,1.100818603515625,1.244693636894226,-0.5240675210952759,-0.6077433228492737
1733767222405778700,1.11077880859375,1.2724409103393555,-0.04829859361052513,-0.7964311838150024
1733767222415738600,1.120738525390625,1.3100018501281738,0.32107728719711304,-0.9159612059593201
1733767222425698600,1.130698486328125,1.3624447584152222,0.5465564727783203,-0.9627577066421509
1733767222435658500,1.140658447265625,1.4392725229263306,0.5381657481193542,-0.9216398596763611
1733767222445618700,1.15061865234375,1.492789626121521,0.33503416180610657,-0.7816212773323059
1733767222455578600,1.16057861328125,1.511275291442871,-0.1257755607366562,-0.5677580237388611
1733767222465538600,1.17053857421875,1.481033444404602,-0.765034556388855,-0.3289787173271179
1733767222475498800,1.180498779296875,1.3844795227050781,-1.5124051570892334,-0.13410821557044983
1733767222485458700,1.190458740234375,1.2713465690612793,-2.22501540184021,0.017420317977666855
1733767222495418600,1.200418701171875,1.1818172931671143,-2.7384896278381348,0.1275215595960617
1733767222505378600,1.210378662109375,1.1204466819763184,-2.9713590145111084,0.2236505001783371
1733767222515338800,1.2203388671875,1.0702513456344604,-2.971519708633423,0.29161685705184937
1733767222525298700,1.230298583984375,0.9841234683990479,-2.8507080078125,0.27929574251174927
1733767222535258600,1.240258544921875,0.870674192905426,-2.697650909423828,0.18879562616348267
1733767222545217500,1.250217529296875,0.7795658111572266,-2.5350887775421143,0.03845937177538872
1733767222555177500,1.260177490234375,0.7268784642219543,-2.353472948074341,-0.1429409384727478
1733767222565137700,1.2701376953125,0.7145664095878601,-2.1622962951660156,-0.33968859910964966
1733767222575097600,1.28009765625,0.7247416377067566,-2.011220693588257,-0.5219393372535706
1733767222585057500,1.2900576171875,0.73420250415802,-1.9651888608932495,-0.6591017246246338
1733767222595017700,1.300017822265625,0.7313575148582458,-2.0806539058685303,-0.7313821315765381
1733767222604977700,1.309977783203125,0.7241448760032654,-2.395277261734009,-0.7092251181602478
1733767222614937600,1.3199375,0.6869077682495117,-2.8607072830200195,-0.5635926723480225
1733767222624897500,1.3298974609375,0.675750732421875,-3.334536552429199,-0.3598986566066742
1733767222634857700,1.339857666015625,0.6849523186683655,-3.7337143421173096,-0.21346944570541382
1733767222644817700,1.349817626953125,0.6995163559913635,-4.017275810241699,-0.1729036420583725
1733767222654777600,1.359777587890625,0.7342355847358704,-4.172183513641357,-0.20654666423797607
1733767222664737500,1.369737548828125,0.7789537906646729,-4.287044048309326,-0.2728513777256012
1733767222674697700,1.37969775390625,0.8356940150260925,-4.401991367340088,-0.33982211351394653
1733767222684657700,1.38965771484375,0.88600754737854,-4.454888343811035,-0.3939172923564911
1733767222694617600,1.39961767578125,0.9035544991493225,-4.383277416229248,-0.4494776427745819
1733767222704577500,1.40957763671875,0.9066389799118042,-4.230363368988037,-0.5585245490074158
1733767222714537700,1.419537841796875,0.9184693098068237,-3.9332375526428223,-0.7083675265312195
1733767222724497700,1.42949755859375,0.9491401314735413,-3.615095615386963,-0.8728198409080505
1733767222734457600,1.43945751953125,0.9651213884353638,-3.390101909637451,-1.0529042482376099
1733767222744417800,1.449417724609375,0.9949719905853271,-3.2016098499298096,-1.2275035381317139
1733767222754377700,1.459377685546875,1.009456992149353,-3.148224115371704,-1.308874487876892
1733767222764336600,1.469336669921875,0.8925237059593201,-3.104667901992798,-1.1310362815856934
1733767222774296600,1.479296630859375,0.6871070861816406,-2.794416904449463,-0.5809637308120728
1733767222784256500,1.489256591796875,0.5497735142707825,-1.7315912246704102,0.21027393639087677
1733767222794216700,1.499216796875,0.5869035720825195,-0.3550194203853607,1.416914701461792
1733767222804176600,1.5091767578125,0.8367195129394531,0.2961045503616333,2.4961109161376953
1733767222814136600,1.519136474609375,1.1256870031356812,-0.06704957783222198,2.9497694969177246
1733767222824096500,1.529096435546875,1.173072338104248,-0.43454957008361816,2.7835898399353027
1733767222834056700,1.539056640625,0.8557270169258118,-0.5787497162818909,2.0108399391174316
1733767222844016600,1.5490166015625,0.5055080056190491,-0.9351269602775574,0.2325606346130371
1733767222853976600,1.5589765625,0.381946861743927,-1.3200255632400513,-1.4420220851898193
1733767222863936800,1.568936767578125,0.18579760193824768,-1.3877582550048828,-1.8403931856155396
1733767222873896700,1.578896728515625,0.008425561711192131,-1.3771767616271973,-1.3311306238174438
1733767222883856600,1.588856689453125,0.05259115993976593,-1.6366403102874756,-0.4665777385234833
1733767222893816600,1.598816650390625,0.0989912748336792,-2.670016050338745,0.18343865871429443
1733767222903776800,1.60877685546875,0.0005579064600169659,-3.702195167541504,0.5458575487136841
1733767222913736700,1.61873681640625,-0.22224575281143188,-4.254879474639893,0.589995265007019
1733767222923696600,1.628696533203125,-0.5507062077522278,-4.260418891906738,0.000639849342405796
1733767222933656600,1.638656494140625,-0.6103467345237732,-3.3222222328186035,-1.1135679483413696
1733767222943616500,1.648616455078125,-0.2745705842971802,-1.815578579902649,-1.9401603937149048
1733767222953576400,1.658576416015625,0.2167341709136963,-0.5338685512542725,-2.005836248397827
1733767222963536400,1.668536376953125,0.6250271201133728,0.25515154004096985,-1.5558327436447144
1733767222973496600,1.67849658203125,0.7486997246742249,0.5093675851821899,-0.992681086063385
1733767222983456500,1.68845654296875,0.7123022675514221,0.4744682013988495,-0.5945550203323364
1733767222993416400,1.69841650390625,0.7230437397956848,0.2771039307117462,-0.49754834175109863
1733767223003376400,1.70837646484375,0.8450900316238403,-0.016304511576890945,-0.6307519674301147
1733767223013336600,1.718336669921875,0.9776443839073181,-0.3410137891769409,-0.8052608370780945
1733767223023296500,1.728296630859375,1.0591578483581543,-0.6132162809371948,-0.8878785371780396
1733767223033256400,1.73825634765625,1.0443671941757202,-0.848555862903595,-0.8202167749404907
1733767223043216400,1.74821630859375,0.9267975687980652,-1.0689209699630737,-0.6347009539604187
1733767223053176600,1.758176513671875,0.7430385947227478,-1.3020238876342773,-0.42800453305244446
1733767223063136500,1.768136474609375,0.5478112697601318,-1.497735619544983,-0.30365756154060364
1733767223073096400,1.778096435546875,0.3982175290584564,-1.6275041103363037,-0.26012498140335083
1733767223083055600,1.7880556640625,0.33317381143569946,-1.7169770002365112,-0.2754024863243103
1733767223093015600,1.798015625,0.2930886149406433,-1.734833002090454,-0.29623034596443176
1733767223102975500,1.8079755859375,0.23054826259613037,-1.669165849685669,-0.31473052501678467
1733767223112935400,1.817935302734375,0.14414305984973907,-1.5907163619995117,-0.32990387082099915
1733767223122895400,1.827895263671875,0.06486234813928604,-1.5678930282592773,-0.35382065176963806
1733767223132855600,1.83785546875,-0.0016003022901713848,-1.6176838874816895,-0.39634841680526733
1733767223142815500,1.8478154296875,-0.04261564463376999,-1.707078218460083,-0.44090044498443604
1733767223152775400,1.857775390625,-0.028543058782815933,-1.802025318145752,-0.45028945803642273
1733767223162735400,1.8677353515625,0.04688112437725067,-1.8779046535491943,-0.42003461718559265
1733767223172695600,1.877695556640625,0.14366164803504944,-1.9320967197418213,-0.3668639063835144
1733767223182655500,1.887655517578125,0.22829850018024445,-1.9762895107269287,-0.3145306408405304
1733767223192615400,1.897615478515625,0.2595897316932678,-2.0241518020629883,-0.27515771985054016
1733767223202575400,1.907575439453125,0.2598656415939331,-2.0744922161102295,-0.2643048167228699
1733767223212535600,1.91753564453125,0.27399542927742004,-2.1051735877990723,-0.2772672176361084
1733767223222495500,1.92749560546875,0.28072842955589294,-2.061211109161377,-0.30344077944755554
1733767223232455400,1.937455322265625,0.264849990606308,-1.9661989212036133,-0.3251201808452606
1733767223242415600,1.94741552734375,0.2564575672149658,-1.881030559539795,-0.3125775158405304
1733767223252375600,1.95737548828125,0.2553567886352539,-1.7881839275360107,-0.2842005491256714
1733767223262335500,1.96733544921875,0.24604187905788422,-1.6803101301193237,-0.2725028991699219
1733767223272295400,1.97729541015625,0.24234578013420105,-1.6193771362304688,-0.2705998122692108
1733767223282255600,1.987255615234375,0.2480931431055069,-1.6008636951446533,-0.2744256854057312
1733767223292215600,1.997215576171875,0.2588512599468231,-1.6095608472824097,-0.25811251997947693
1733767223302175500,2.007175537109375,0.25364506244659424,-1.6603385210037231,-0.2395060807466507
1733767223312135400,2.017135498046875,0.23744234442710876,-1.723402976989746,-0.23144382238388062
1733767223322095600,2.027095703125,0.21484941244125366,-1.7929480075836182,-0.2306286245584488
1733767223332055600,2.0370556640625,0.17879903316497803,-1.8561757802963257,-0.2481350302696228
1733767223342015500,2.047015380859375,0.1123124286532402,-1.8748706579208374,-0.2679060697555542
1733767223351975400,2.056975341796875,0.038679227232933044,-1.83493971824646,-0.27531397342681885
1733767223361935600,2.066935546875,-0.023365499451756477,-1.7656126022338867,-0.24723386764526367
1733767223371895600,2.0768955078125,-0.06888198852539062,-1.6797715425491333,-0.2138550877571106
1733767223381855500,2.08685546875,-0.10809729993343353,-1.5794771909713745,-0.18078795075416565
1733767223391816200,2.096816162109375,-0.140696719288826,-1.4669932126998901,-0.1537700593471527
1733767223401776000,2.106776123046875,-0.1546892374753952,-1.3528860807418823,-0.12397141754627228
1733767223411736000,2.116736083984375,-0.1511373221874237,-1.2608988285064697,-0.08997198939323425
1733767223421696000,2.126696044921875,-0.1591542363166809,-1.1892459392547607,-0.07420181483030319
1733767223431656200,2.13665625,-0.1687358021736145,-1.1200929880142212,-0.07392212003469467
1733767223441616100,2.1466162109375,-0.17888298630714417,-1.057580828666687,-0.06724824011325836
1733767223451576000,2.156576171875,-0.19176673889160156,-0.9971616268157959,-0.04627659544348717
1733767223461536300,2.166536376953125,-0.1990044116973877,-0.9709388017654419,-0.04408881068229675
1733767223471496200,2.17649609375,-0.20125548541545868,-0.9645728468894958,-0.08689075708389282
1733767223481456000,2.1864560546875,-0.21119360625743866,-0.976440966129303,-0.16391204297542572
1733767223491416000,2.196416015625,-0.23325635492801666,-0.9729093313217163,-0.2492438405752182
1733767223501376300,2.206376220703125,-0.25512731075286865,-0.9302484393119812,-0.3044322431087494
1733767223511336200,2.216336181640625,-0.2700609564781189,-0.872190535068512,-0.3525920808315277
1733767223521296100,2.226296142578125,-0.2583467662334442,-0.8330426216125488,-0.40790432691574097
1733767223531256000,2.236256103515625,-0.2365734875202179,-0.8359672427177429,-0.4772055745124817
1733767223541216300,2.24621630859375,-0.2240840643644333,-0.8675333857536316,-0.5587566494941711
1733767223551176200,2.25617626953125,-0.23978681862354279,-0.9274136424064636,-0.6287855505943298
1733767223561136000,2.26613623046875,-0.28320807218551636,-0.9499130845069885,-0.6536336541175842
1733767223571096000,2.276095947265625,-0.3469056785106659,-0.876798152923584,-0.613889753818512
1733767223581056000,2.286055908203125,-0.4012874364852905,-0.748893141746521,-0.5268622040748596
1733767223591016000,2.296015869140625,-0.43995240330696106,-0.6193342804908752,-0.4109509587287903
1733767223600976000,2.305975830078125,-0.47546911239624023,-0.526468813419342,-0.27787357568740845
1733767223610936000,2.31593603515625,-0.5253966450691223,-0.47777196764945984,-0.13619254529476166
1733767223620896000,2.32589599609375,-0.6317334771156311,-0.5556542277336121,-0.0003660065121948719
1733767223630856000,2.33585595703125,-0.7054940462112427,-0.6974557042121887,0.07827325910329819
1733767223640815900,2.34581591796875,-0.7225918173789978,-0.9340232610702515,0.11490876972675323
1733767223650776000,2.355776123046875,-0.6016746163368225,-1.1654657125473022,0.15072859823703766
1733767223660736000,2.365736083984375,-0.43568482995033264,-1.2949845790863037,0.17402300238609314
1733767223670696000,2.375696044921875,-0.35049352049827576,-1.3549541234970093,0.10435125976800919
1733767223680656000,2.38565576171875,-0.3950183689594269,-1.468108057975769,-0.08197600394487381
1733767223690616000,2.395615966796875,-0.44173285365104675,-1.8323131799697876,-0.2125236839056015
1733767223700576000,2.405575927734375,-0.44635263085365295,-2.3874258995056152,-0.08503363281488419
1733767223710536000,2.415535888671875,-0.46105796098709106,-2.862706422805786,0.42450976371765137
1733767223720496000,2.42549609375,-0.45482802391052246,-3.0245823860168457,1.1134897470474243
1733767223730456000,2.4354560546875,-0.4208875894546509,-2.6684296131134033,1.5026278495788574
1733767223740416000,2.445416015625,-0.3371756374835968,-1.9406837224960327,1.5795543193817139
1733767223750376000,2.4553759765625,-0.2500041127204895,-1.20111083984375,1.5196155309677124
1733767223760336100,2.465336181640625,-0.19535472989082336,-0.5924381613731384,1.4857087135314941
1733767223770296000,2.475296142578125,-0.2916838526725769,-0.2651534676551819,1.4279485940933228
1733767223780256000,2.485256103515625,-0.37202608585357666,-0.25406327843666077,1.3484625816345215
1733767223790216000,2.4952158203125,-0.37021833658218384,-0.487697958946228,1.2814968824386597
1733767223800176000,2.505176025390625,-0.305906742811203,-0.8294422626495361,1.278847336769104
1733767223810136000,2.515135986328125,-0.2260507196187973,-1.188547968864441,1.3426557779312134
1733767223820096000,2.525095947265625,-0.1263510286808014,-1.5161464214324951,1.4419043064117432
1733767223830056000,2.535055908203125,-0.010529831051826477,-1.7175976037979126,1.537667989730835
1733767223840016100,2.54501611328125,-0.05031905695796013,-1.384575366973877,1.7689400911331177
1733767223849976000,2.55497607421875,0.11186861991882324,-1.3695905208587646,1.8711894750595093
1733767223859936000,2.56493603515625,0.44892069697380066,-1.6465076208114624,1.9067178964614868
1733767223869896200,2.574896240234375,0.751024603843689,-1.7590166330337524,1.9360793828964233
1733767223879856000,2.584856201171875,0.9068940877914429,-1.7179559469223022,1.9146190881729126
1733767223889816000,2.594816162109375,1.0137497186660767,-1.7283587455749512,1.7500324249267578
1733767223899776000,2.60477587890625,1.0769121646881104,-1.606336236000061,1.5442981719970703
1733767223909736200,2.614736083984375,1.0480351448059082,-1.3584370613098145,1.2512983083724976
1733767223919696100,2.624696044921875,0.9630498290061951,-0.9990691542625427,0.8658066987991333
1733767223929656000,2.634656005859375,0.8869163393974304,-0.47139301896095276,0.45082661509513855
1733767223939616000,2.644615966796875,0.8955875635147095,0.1166132241487503,0.08581456542015076
1733767223949576200,2.654576171875,0.9737079739570618,0.6384689211845398,-0.21534056961536407
1733767223959536000,2.6645361328125,1.093658685684204,1.0621190071105957,-0.4736173748970032
1733767223969496000,2.67449609375,1.229095697402954,1.3671730756759644,-0.7058244347572327
1733767223979456000,2.6844560546875,1.3429615497589111,1.5531892776489258,-0.8718839287757874
1733767223989416200,2.694416259765625,1.4254769086837769,1.5874611139297485,-0.9857131838798523
1733767223999376100,2.704376220703125,1.4456719160079956,1.378365159034729,-1.0185221433639526
1733767224009336000,2.714336181640625,1.3910280466079712,0.8543111085891724,-0.9244492053985596
1733767224019296300,2.724296142578125,1.2847521305084229,0.0027307518757879734,-0.6518187522888184
1733767224029256200,2.734256103515625,1.1011165380477905,-0.9452328085899353,-0.21525359153747559
1733767224039216000,2.744216064453125,0.892048716545105,-1.63387131690979,0.1900337189435959
1733767224049176000,2.754176025390625,0.7244587540626526,-1.9455311298370361,0.4238143563270569
1733767224059136300,2.76413623046875,0.6292811036109924,-2.0054852962493896,0.460006982088089
1733767224069096200,2.77409619140625,0.5716685652732849,-1.8613829612731934,0.35422858595848083
1733767224079056100,2.78405615234375,0.5058213472366333,-1.6016770601272583,0.20329152047634125
1733767224089016000,2.79401611328125,0.44319140911102295,-1.2570679187774658,0.01659456267952919
1733767224098976300,2.803976318359375,0.35643628239631653,-0.9473235011100769,-0.17994539439678192
1733767224108936200,2.813936279296875,0.2621421813964844,-0.7549872994422913,-0.3441360592842102
1733767224118896000,2.823896240234375,0.17652475833892822,-0.7209286689758301,-0.4598919451236725
1733767224128856000,2.83385595703125,0.09245038032531738,-0.7876014709472656,-0.5249348282814026
1733767224138816000,2.84381591796875,0.002712236251682043,-0.8519583940505981,-0.5726882219314575
1733767224148776000,2.85377587890625,-0.07991467416286469,-0.8973553776741028,-0.6318569183349609
1733767224158736000,2.86373583984375,-0.12573888897895813,-0.877387285232544,-0.67121422290802
1733767224168696000,2.873696044921875,-0.13726842403411865,-0.7273444533348083,-0.641287624835968
1733767224178656000,2.883656005859375,-0.10956648737192154,-0.40954169631004333,-0.5416478514671326
1733767224188616000,2.893615966796875,-0.05433177947998047,0.017876416444778442,-0.3982487916946411
1733767224198575900,2.903575927734375,0.02611938677728176,0.3289027512073517,-0.23507289588451385
1733767224208536000,2.9135361328125,0.1257735639810562,0.4444471299648285,-0.08677904307842255
1733767224218496000,2.92349609375,0.22541920840740204,0.4370134472846985,0.04572706297039986
1733767224228456000,2.9334560546875,0.3030679523944855,0.3783243000507355,0.18368752300739288
1733767224238416000,2.943415771484375,0.3398725688457489,0.2933953106403351,0.2896086275577545
1733767224248376000,2.9533759765625,0.35104018449783325,0.17911332845687866,0.31093886494636536
1733767224258336000,2.9633359375,0.3694508969783783,0.081627257168293,0.23007304966449738
1733767224268296000,2.9732958984375,0.3348410725593567,0.039061564952135086,0.0770082101225853
1733767224278256000,2.983256103515625,0.2763287425041199,0.03294561430811882,-0.0941036194562912
1733767224288216000,2.993216064453125,0.2838830351829529,0.047479432076215744,-0.20764558017253876
1733767224298176000,3.003176025390625,0.3434630036354065,0.10387293249368668,-0.20250993967056274
1733767224308136000,3.013135986328125,0.41949060559272766,0.16858139634132385,-0.07720039784908295
1733767224318096100,3.02309619140625,0.515661358833313,0.13410703837871552,0.1395428329706192
1733767224328056000,3.03305615234375,0.5840060710906982,-0.08507443219423294,0.5004376769065857
1733767224338016000,3.04301611328125,0.6311903595924377,-0.4516705274581909,0.8563523888587952
1733767224347976000,3.052975830078125,0.662470817565918,-0.671985387802124,0.9374023675918579
1733767224357936000,3.06293603515625,0.7076013088226318,-0.7883580923080444,0.7773482799530029
1733767224367896000,3.07289599609375,0.7109467387199402,-0.7554768323898315,0.561471700668335
1733767224377856000,3.08285595703125,0.6487289071083069,-0.7211558818817139,0.3347823917865753
1733767224387815700,3.092815673828125,0.521792471408844,-0.7723708748817444,0.05077016353607178
1733767224397775600,3.102775634765625,0.37257179617881775,-0.7175303101539612,-0.24508652091026306
1733767224407735600,3.112735595703125,0.2689720392227173,-0.36746475100517273,-0.3499165177345276
1733767224417695700,3.12269580078125,0.26964741945266724,0.1993667185306549,-0.10777870565652847
1733767224427655700,3.13265576171875,0.3957773745059967,0.8375495672225952,0.3668479919433594
1733767224437615600,3.14261572265625,0.5328527092933655,1.3380794525146484,0.8460596203804016
1733767224447575600,3.152575439453125,0.5981194972991943,1.2810518741607666,1.065349817276001
1733767224457535700,3.16253564453125,0.5120487809181213,0.4445500075817108,0.9777930378913879
1733767224467495700,3.17249560546875,0.2510397434234619,-0.7957648038864136,0.7237116098403931
1733767224477455600,3.18245556640625,-0.12058065831661224,-1.9634283781051636,0.40438205003738403
1733767224487415800,3.192415771484375,-0.4750402867794037,-2.3814172744750977,0.007838287390768528
1733767224497375700,3.202375732421875,-0.7351852655410767,-2.0821454524993896,-0.3198325037956238
1733767224507335700,3.212335693359375,-0.9645355939865112,-1.3669008016586304,-0.5045194029808044
1733767224517295600,3.222295654296875,-1.1942285299301147,-0.782278835773468,-0.6766139268875122
1733767224527255800,3.232255859375,-1.3521487712860107,-0.27655962109565735,-0.9567808508872986
1733767224537215700,3.2422158203125,-1.3748834133148193,0.19470377266407013,-1.3189427852630615
1733767224547175700,3.25217578125,-1.20548677444458,0.5065584778785706,-1.7660049200057983
1733767224557135600,3.262135498046875,-0.9130426049232483,0.7010752558708191,-2.2200584411621094
1733767224567095800,3.272095703125,-0.6692394018173218,1.138872504234314,-2.5322461128234863
1733767224577055700,3.2820556640625,-0.49070242047309875,1.8364536762237549,-2.7111308574676514
1733767224587015700,3.292015625,-0.3292945623397827,2.640510320663452,-2.785233736038208
1733767224596975900,3.301975830078125,-0.11495748907327652,3.43949556350708,-2.7380833625793457
1733767224606935800,3.311935791015625,0.19881807267665863,3.9450948238372803,-2.5311336517333984
1733767224616895700,3.321895751953125,0.45383384823799133,3.887760877609253,-2.2947139739990234
1733767224626855700,3.331855712890625,0.569288432598114,3.3008010387420654,-2.1227333545684814
1733767224636816000,3.34181591796875,0.5689195990562439,2.526756763458252,-1.9545358419418335
1733767224646775800,3.35177587890625,0.5729026794433594,1.6653687953948975,-1.6905300617218018
1733767224656735700,3.36173583984375,0.5950734615325928,0.7807964086532593,-1.2576473951339722
1733767224666695700,3.37169580078125,0.5891885161399841,0.024055115878582,-0.7461498379707336
1733767224676656600,3.38165673828125,0.562536895275116,-0.47969433665275574,-0.2991377115249634
1733767224686616600,3.391616455078125,0.5296663045883179,-0.7711429595947266,-0.01673043891787529
1733767224696576500,3.401576416015625,0.4773836135864258,-0.9702798128128052,0.11720126122236252
1733767224706536700,3.41153662109375,0.3730661869049072,-1.1011295318603516,0.12303531169891357
1733767224716496600,3.42149658203125,0.20171521604061127,-1.1599934101104736,0.05256088078022003
1733767224726456600,3.43145654296875,-0.004610253963619471,-1.170208215713501,-0.07146438956260681
1733767224736416500,3.44141650390625,-0.1896088719367981,-1.1848206520080566,-0.24034103751182556
1733767224746376700,3.451376708984375,-0.3372819423675537,-1.1385608911514282,-0.4465237557888031
1733767224756336600,3.461336669921875,-0.41813230514526367,-1.0179836750030518,-0.6689648032188416
1733767224766296600,3.471296630859375,-0.4171772599220276,-0.768911600112915,-0.8380034565925598
1733767224776256800,3.4812568359375,-0.32480576634407043,-0.34879687428474426,-0.903592586517334
1733767224786216700,3.491216796875,-0.17657339572906494,0.17433184385299683,-0.8969802856445312
1733767224796176600,3.5011767578125,-0.033649276942014694,0.6285158395767212,-0.9088206887245178
1733767224806136600,3.511136474609375,0.0589008703827858,1.0165960788726807,-0.9573634266853333
1733767224816096800,3.5210966796875,0.11838257312774658,1.3148431777954102,-1.032163381576538
1733767224826056700,3.531056640625,0.1728181391954422,1.4956928491592407,-1.072303056716919
1733767224836016600,3.5410166015625,0.22068579494953156,1.5447578430175781,-1.035106897354126
1733767224845976600,3.5509765625,0.2498064488172531,1.4754060506820679,-0.9342361688613892
1733767224855936800,3.560936767578125,0.23009799420833588,1.2913243770599365,-0.8323547840118408
1733767224865896700,3.570896728515625,0.1715455949306488,0.965423583984375,-0.7518210411071777
1733767224875856600,3.580856689453125,0.10362353175878525,0.6036238074302673,-0.6951603889465332
1733767224885816600,3.590816650390625,0.042809754610061646,0.26412233710289,-0.6594392657279968
1733767224895776800,3.60077685546875,0.003368603065609932,0.02235790342092514,-0.6140318512916565
1733767224905736700,3.61073681640625,-0.020337313413619995,-0.10898996889591217,-0.5817347764968872
1733767224915696600,3.620696533203125,-0.04184073954820633,-0.17163391411304474,-0.563140869140625
1733767224925656800,3.63065673828125,-0.07679792493581772,-0.12139897048473358,-0.5438353419303894
1733767224935616800,3.64061669921875,-0.12362747639417648,-0.0011375369504094124,-0.5167126655578613
1733767224945576700,3.65057666015625,-0.17535939812660217,0.222722128033638,-0.5182809829711914
1733767224955536600,3.66053662109375,-0.21361143887043,0.5669796466827393,-0.5900115966796875
1733767224965496800,3.670496826171875,-0.2639160454273224,1.0095854997634888,-0.7207782864570618
1733767224975456800,3.680456787109375,-0.3178243041038513,1.4825124740600586,-0.8416378498077393
1733767224985416700,3.690416748046875,-0.34469640254974365,1.9252532720565796,-0.9037069082260132
1733767224995376600,3.700376708984375,-0.3412739634513855,2.2776124477386475,-0.9045242071151733
1733767225005336800,3.7103369140625,-0.309087336063385,2.565783977508545,-0.8761763572692871
1733767225015296800,3.720296875,-0.2627861499786377,2.7583096027374268,-0.8423116207122803
1733767225025256700,3.730256591796875,-0.1900748461484909,2.844597339630127,-0.8360114693641663
1733767225035216600,3.740216552734375,-0.13254843652248383,2.8465776443481445,-0.87391197681427
1733767225045176800,3.7501767578125,-0.10111232846975327,2.7899410724639893,-0.9322203993797302
1733767225055136800,3.76013671875,-0.09904118627309799,2.6772050857543945,-0.9593579769134521
1733767225065096700,3.7700966796875,-0.13012060523033142,2.522461414337158,-0.9377830624580383
1733767225075057000,3.780056884765625,-0.19476456940174103,2.298884391784668,-0.8281915783882141
1733767225085016800,3.790016845703125,-0.20024053752422333,1.9986557960510254,-0.5600551962852478
1733767225094976800,3.799976806640625,-0.13594438135623932,1.6458028554916382,-0.20088882744312286
1733767225104936700,3.809936767578125,-0.04757029563188553,1.3993581533432007,0.06382723152637482
1733767225114897000,3.81989697265625,0.0453798845410347,1.2172949314117432,0.32123640179634094
1733767225124856800,3.82985693359375,0.14970776438713074,0.9113113284111023,0.8174957036972046
1733767225134816800,3.839816650390625,0.29718244075775146,0.4395328760147095,1.5497759580612183
1733767225144776700,3.849776611328125,0.5452454090118408,-0.14809852838516235,2.3698678016662598
1733767225154736600,3.859736572265625,0.8201198577880859,-0.746457040309906,3.1005430221557617
1733767225164696600,3.869696533203125,1.1283795833587646,-1.195064663887024,3.6438345909118652
1733767225174656500,3.879656494140625,1.4527113437652588,-1.4045031070709229,3.977133274078369
1733767225184616400,3.889616455078125,1.6797291040420532,-1.4459575414657593,4.171718120574951
1733767225194576600,3.89957666015625,1.7283743619918823,-1.3793751001358032,4.296230316162109
1733767225204537600,3.90953759765625,1.575507640838623,-1.3232728242874146,4.334721088409424
1733767225214497500,3.91949755859375,1.3209210634231567,-1.2651357650756836,4.343590259552002
1733767225224457700,3.929457763671875,0.9078487753868103,-1.2058382034301758,4.185328006744385
1733767225234417700,3.939417724609375,0.46478429436683655,-1.137955904006958,3.794638156890869
1733767225244377600,3.949377685546875,0.14889690279960632,-0.8908189535140991,3.271245002746582
1733767225254337800,3.959337890625,0.033732496201992035,-0.5167734622955322,2.726580858230591
1733767225264297700,3.969297607421875,0.11115596443414688,-0.10296580940485,2.255519390106201
1733767225274257700,3.979257568359375,0.22452113032341003,0.42262235283851624,1.9459878206253052
1733767225284217600,3.989217529296875,0.28265181183815,0.836268961429596,1.6760973930358887
1733767225294177800,3.999177734375,0.24905896186828613,1.1248552799224854,1.3533250093460083
1733767225304137700,4.0091376953125,0.17928831279277802,1.3767290115356445,1.0291293859481812
1733767225314097700,4.01909765625,0.15336084365844727,1.5396246910095215,0.7286648154258728
1733767225324057600,4.0290576171875,0.18476638197898865,1.6557481288909912,0.5109220147132874
1733767225334017800,4.039017822265625,0.3001374304294586,1.646643042564392,0.357782781124115
1733767225343977700,4.048977783203125,0.3835694193840027,1.629827618598938,0.2653427720069885
1733767225353937700,4.058937744140625,0.38086870312690735,1.6665596961975098,0.21725165843963623
1733767225363897900,4.06889794921875,0.37745168805122375,1.6363316774368286,0.13703036308288574
1733767225373857800,4.07885791015625,0.341383695602417,1.6015920639038086,0.09523071348667145
1733767225383817700,4.088817626953125,0.30452919006347656,1.5066395998001099,0.062086574733257294
1733767225393777700,4.098777587890625,0.3070634603500366,1.3217514753341675,-0.018298543989658356
1733767225403737600,4.108737548828125,0.3822041153907776,0.9713602066040039,-0.10341612249612808
1733767225413697500,4.118697509765625,0.47486749291419983,0.5660459995269775,-0.08362989872694016
1733767225423657700,4.12865771484375,0.5083606243133545,0.1328728348016739,0.036623530089855194
1733767225433617700,4.13861767578125,0.48455700278282166,-0.18502336740493774,0.21398313343524933
1733767225443577600,4.14857763671875,0.3727249801158905,-0.3553287982940674,0.3979940414428711
1733767225453537500,4.15853759765625,0.2209136188030243,-0.3863213360309601,0.5627084374427795
1733767225463497700,4.168497802734375,0.07633378356695175,-0.3312886953353882,0.603547215461731
1733767225473457700,4.178457763671875,-0.048524800688028336,-0.1589917540550232,0.4532434642314911
1733767225483417600,4.18841748046875,-0.14150084555149078,0.15515205264091492,0.15778100490570068
1733767225493377500,4.19837744140625,-0.2256239801645279,0.5077023506164551,-0.22370190918445587
1733767225503337700,4.208337646484375,-0.29919442534446716,0.8487986326217651,-0.5477948188781738
1733767225513297700,4.218297607421875,-0.35871660709381104,1.0839775800704956,-0.7443161606788635
1733767225523257600,4.228257568359375,-0.4347948133945465,1.1153308153152466,-0.8271512389183044
1733767225533217800,4.2382177734375,-0.5421433448791504,0.8917711973190308,-0.8310397267341614
1733767225543177700,4.248177734375,-0.6563426852226257,0.44904088973999023,-0.7975276708602905
1733767225553137700,4.2581376953125,-0.7503368258476257,-0.0481579564511776,-0.7356970310211182
1733767225563097600,4.26809765625,-0.7983059883117676,-0.4998340606689453,-0.6615317463874817
1733767225573057500,4.2780576171875,-0.7662087678909302,-0.825697124004364,-0.5877944231033325
1733767225583017500,4.288017578125,-0.6808124780654907,-0.9750721454620361,-0.4839721918106079
1733767225592977400,4.297977294921875,-0.5719752311706543,-1.0527167320251465,-0.3681904673576355
1733767225602937300,4.307937255859375,-0.4598245620727539,-1.0157475471496582,-0.22754497826099396
1733767225612897500,4.3178974609375,-0.2939671576023102,-0.7508413195610046,-0.018922001123428345
1733767225622857500,4.327857421875,-0.14156556129455566,-0.40031948685646057,0.180153489112854
1733767225632817400,4.3378173828125,-0.04367842152714729,-0.2735154628753662,0.25622934103012085
1733767225642777300,4.34777734375,0.0384225957095623,-0.35158902406692505,0.238679900765419
1733767225652737500,4.357737548828125,0.15063995122909546,-0.519477367401123,0.1998203843832016
1733767225662697500,4.367697509765625,0.28510981798171997,-0.6148635149002075,0.18352217972278595
1733767225672657400,4.377657470703125,0.38462600111961365,-0.5546613931655884,0.18639786541461945
1733767225682618600,4.38761865234375,0.45099788904190063,-0.33852502703666687,0.17609716951847076
1733767225692578600,4.39757861328125,0.47491946816444397,-0.025675512850284576,0.15119926631450653
1733767225702538500,4.40753857421875,0.5117900371551514,0.35874322056770325,0.07827635109424591
1733767225712498700,4.417498779296875,0.5373774170875549,0.7972350716590881,-0.0412798747420311
1733767225722458600,4.427458740234375,0.5471667647361755,1.3398138284683228,-0.04584239795804024
1733767225732418600,4.43741845703125,0.6790430545806885,1.77695894241333,0.08997589349746704
1733767225742378500,4.44737841796875,0.6607648134231567,1.194670557975769,-0.17199502885341644
1733767225752338700,4.457338623046875,0.31159937381744385,0.4767789840698242,-0.5416389107704163
1733767225762298600,4.467298583984375,-0.15302914381027222,0.26685330271720886,-0.6675824522972107
1733767225772258600,4.477258544921875,-0.46123358607292175,0.4298747181892395,-0.48731759190559387
1733767225782218500,4.487218505859375,-0.4031582474708557,0.5317999124526978,0.002259576693177223
1733767225792178700,4.4971787109375,-0.045295994728803635,0.457166463136673,0.6450515985488892
1733767225802138600,4.507138671875,0.33625251054763794,0.38376158475875854,1.1466383934020996
1733767225812098600,4.5170986328125,0.48854535818099976,0.3006557524204254,1.3211734294891357
1733767225822058800,4.527058837890625,0.4632377028465271,-0.049227483570575714,1.1341439485549927
1733767225832018700,4.537018798828125,0.3396843373775482,-0.40828418731689453,0.7205410003662109
1733767225841978600,4.546978515625,0.15365998446941376,-0.47845155000686646,0.13295820355415344
1733767225851938600,4.5569384765625,-0.08063054829835892,-0.5929211378097534,-0.3729870021343231
1733767225861898800,4.566898681640625,-0.3611653745174408,-0.739090085029602,-0.5161929726600647
1733767225871858700,4.576858642578125,-0.6429107189178467,-0.9988119602203369,-0.4210398197174072
1733767225881818600,4.586818603515625,-0.9437766075134277,-1.3982352018356323,-0.33061376214027405
1733767225891778600,4.596778564453125,-1.1782336235046387,-1.699074149131775,-0.29946622252464294
1733767225901738800,4.60673876953125,-1.318427324295044,-1.8291481733322144,-0.4797322452068329
1733767225911698700,4.61669873046875,-1.4695076942443848,-1.4603403806686401,-1.0381689071655273
1733767225921658600,4.62665869140625,-1.4588260650634766,-0.47545138001441956,-1.7458093166351318
1733767225931618600,4.63661865234375,-1.168973445892334,0.6593034863471985,-2.2054848670959473
1733767225941578800,4.646578857421875,-0.6943538784980774,1.5970176458358765,-2.3786258697509766
1733767225951538700,4.65653857421875,-0.3244447708129883,2.263263702392578,-2.400078773498535
1733767225961498600,4.66649853515625,-0.2627637982368469,2.9565253257751465,-2.3397982120513916
1733767225971458600,4.67645849609375,-0.2973305583000183,3.364611864089966,-2.300924062728882
1733767225981418500,4.68641845703125,-0.22941485047340393,3.498960494995117,-2.295851945877075
1733767225991378400,4.69637841796875,-0.11330129206180573,3.516235589981079,-2.254384756088257
1733767226001338400,4.70633837890625,0.008492609485983849,3.2973296642303467,-2.1262094974517822
1733767226011298600,4.716298583984375,0.1458459347486496,2.967437505722046,-1.8892065286636353
1733767226021258500,4.726258544921875,0.24830950796604156,2.67472505569458,-1.5490349531173706
1733767226031218400,4.736218505859375,0.3058399558067322,2.4041454792022705,-1.201512336730957
1733767226041178400,4.746178466796875,0.3370759189128876,2.0265252590179443,-0.9532366394996643
1733767226051138600,4.756138671875,0.34061872959136963,1.4723836183547974,-0.8114060163497925
1733767226061098500,4.766098388671875,0.3234172761440277,0.9439399838447571,-0.7088000774383545
1733767226071058400,4.776058349609375,0.28275561332702637,0.4615863859653473,-0.612604558467865
1733767226081018400,4.786018310546875,0.237815260887146,0.014423677697777748,-0.5165809988975525
1733767226090978600,4.795978515625,0.17363999783992767,-0.35847240686416626,-0.37889161705970764
1733767226100938500,4.8059384765625,0.09127434343099594,-0.6083650588989258,-0.2234441041946411
1733767226110898400,4.8158984375,0.01045832596719265,-0.8292215466499329,-0.08014953136444092
1733767226120858600,4.825858642578125,-0.030327340587973595,-0.9841502904891968,0.02645021304488182
1733767226130818600,4.835818603515625,-0.07455126196146011,-0.9941326379776001,0.051333457231521606
1733767226140778500,4.845778564453125,-0.12211325019598007,-0.9311680197715759,-0.0214492566883564
1733767226150739700,4.85573974609375,-0.17311730980873108,-0.8467466235160828,-0.15170179307460785
1733767226160699600,4.86569970703125,-0.164284348487854,-0.7894660234451294,-0.31377342343330383
1733767226170659600,4.87565966796875,-0.14150340855121613,-0.7458384037017822,-0.45577847957611084
1733767226180619500,4.88561962890625,-0.13516953587532043,-0.6500839591026306,-0.5378383994102478
1733767226190579700,4.895579833984375,-0.13572320342063904,-0.5563183426856995,-0.5331176519393921
1733767226200539600,4.90553955078125,-0.14817754924297333,-0.5145007967948914,-0.4813283383846283
1733767226210499600,4.91549951171875,-0.1409984678030014,-0.4265488088130951,-0.4329565465450287
1733767226220459500,4.92545947265625,-0.09419438242912292,-0.21784019470214844,-0.45622289180755615
1733767226230419700,4.935419677734375,-0.028233207762241364,0.16930806636810303,-0.5718439817428589
1733767226240379600,4.945379638671875,0.013277213089168072,0.6813410520553589,-0.7818893790245056
1733767226250339600,4.955339599609375,0.008370871655642986,1.1906474828720093,-1.0007582902908325
1733767226260299500,4.965299560546875,-0.016757028177380562,1.6157299280166626,-1.1326625347137451
1733767226270259700,4.975259765625,-0.031570594757795334,1.8640353679656982,-1.1711931228637695
1733767226280219600,4.9852197265625,-0.043384794145822525,2.003847122192383,-1.170933485031128
1733767226290179600,4.9951796875,-0.0991860032081604,1.985334873199463,-1.0931681394577026
1733767226300139800,5.005139892578125,-0.22108638286590576,1.7252147197723389,-0.884193480014801
1733767226310099700,5.015099609375,-0.37948691844940186,1.2152527570724487,-0.5910489559173584
1733767226320059600,5.0250595703125,-0.4679148495197296,0.5870315432548523,-0.3799099624156952
1733767226330019600,5.03501953125,-0.4902563691139221,0.04894809052348137,-0.3244989216327667
1733767226339979800,5.044979736328125,-0.4513552784919739,-0.3185877799987793,-0.332275927066803
1733767226349939700,5.054939697265625,-0.3715946674346924,-0.5054239630699158,-0.30397263169288635
1733767226359899600,5.064899658203125,-0.28877881169319153,-0.4060131907463074,-0.21944379806518555
1733767226369859600,5.074859619140625,-0.21814964711666107,0.0028467418160289526,-0.15597879886627197
1733767226379819500,5.084819580078125,-0.16109974682331085,0.5861807465553284,-0.19026291370391846
1733767226389780200,5.0947802734375,-0.08031300455331802,1.124537706375122,-0.241514652967453
1733767226399740200,5.104740234375,0.04713797941803932,1.3984315395355225,-0.16985610127449036
1733767226409700000,5.1147001953125,0.14593060314655304,1.6074411869049072,-0.1359572559595108
1733767226419660300,5.124660400390625,0.2227187603712082,2.1042473316192627,-0.3568439185619354
1733767226429620200,5.1346201171875,0.28758537769317627,2.685856819152832,-0.7035638093948364
1733767226439580200,5.144580078125,0.3287108838558197,3.0121822357177734,-0.9536312222480774
1733767226449540000,5.1545400390625,0.3295780122280121,3.0405189990997314,-0.9785930514335632
1733767226459500300,5.164500244140625,0.3304719030857086,2.908553123474121,-0.7956759929656982
1733767226469460200,5.174460205078125,0.36612948775291443,2.694981813430786,-0.36700212955474854
1733767226479420200,5.184420166015625,0.44311898946762085,2.378664493560791,0.38052770495414734
1733767226489380000,5.194380126953125,0.6241718530654907,1.9805041551589966,1.3284993171691895
1733767226499340300,5.20434033203125,0.9285392761230469,1.4834818840026855,2.2907803058624268
1733767226509300200,5.21430029296875,1.2651503086090088,0.8944731950759888,3.082634687423706
1733767226519260200,5.22426025390625,1.5434298515319824,0.35562318563461304,3.5665090084075928
1733767226529220400,5.234220458984375,1.7215908765792847,0.0056643979623913765,3.826815605163574
1733767226539180300,5.24418017578125,1.6473474502563477,-0.22774289548397064,3.9648005962371826
1733767226549140200,5.25414013671875,1.3027472496032715,-0.40792277455329895,4.1218953132629395
1733767226559100200,5.26410009765625,0.8482028841972351,-0.4481087327003479,4.34077262878418
1733767226569060400,5.274060302734375,0.37896081805229187,-0.35613247752189636,4.430428981781006
1733767226579020300,5.284020263671875,-0.07846078276634216,-0.12504515051841736,4.317338943481445
1733767226588980200,5.293980224609375,-0.41750568151474,0.08613873273134232,4.00689172744751
1733767226598940200,5.303940185546875,-0.5154340863227844,0.13119009137153625,3.5461935997009277
1733767226608900400,5.313900390625,-0.3334920108318329,0.08499863743782043,3.05484938621521
1733767226618860300,5.3238603515625,0.005292571149766445,-0.11860328167676926,2.5987863540649414
1733767226628820200,5.3338203125,0.22624066472053528,-0.219858780503273,2.095193386077881
1733767226638781200,5.34378125,0.1570000797510147,-0.27808812260627747,1.594491720199585
1733767226648741000,5.3537412109375,0.0615348145365715,-0.32861921191215515,1.2982603311538696
1733767226658701000,5.363701171875,0.06278494000434875,-0.32809969782829285,1.170344591140747
1733767226668661000,5.373660888671875,0.015558306127786636,-0.249781996011734,1.0951638221740723
1733767226678621200,5.38362109375,-0.1372988075017929,0.07029745727777481,0.9174400568008423
1733767226688581000,5.3935810546875,-0.3003809154033661,0.7085679173469543,0.5541853904724121
1733767226698541000,5.403541015625,-0.2407490462064743,1.407899260520935,0.19551384449005127
1733767226708501200,5.413501220703125,0.04534182697534561,1.9979279041290283,-0.012928575277328491
1733767226718461200,5.423461181640625,0.4160546660423279,2.3447680473327637,-0.09106473624706268
1733767226728421000,5.433421142578125,0.7079355120658875,2.4478912353515625,-0.11135721206665039
1733767226738381000,5.443381103515625,0.8381460309028625,2.4979958534240723,-0.1564808189868927
1733767226748341200,5.45334130859375,0.8263887166976929,2.5477216243743896,-0.240609809756279
1733767226758301200,5.46330126953125,0.7037343382835388,2.572012186050415,-0.33504045009613037
1733767226768261000,5.47326123046875,0.5144615769386292,2.5384387969970703,-0.38377442955970764
1733767226778221000,5.483220947265625,0.34503036737442017,2.37115740776062,-0.4190285801887512
1733767226788181200,5.49318115234375,0.2342902570962906,2.097336769104004,-0.4412417411804199
1733767226798141200,5.50314111328125,0.2002536505460739,1.7550386190414429,-0.4376380443572998
1733767226808101000,5.51310107421875,0.18522091209888458,1.369018793106079,-0.39347511529922485
1733767226818061000,5.52306103515625,0.13754048943519592,0.9471471905708313,-0.29871803522109985
1733767226828021200,5.533021240234375,0.07575435936450958,0.5734425783157349,-0.17629703879356384
1733767226837981200,5.542981201171875,-0.015611240640282631,0.19768007099628448,-0.10591904819011688
1733767226847941000,5.552941162109375,-0.19730539619922638,-0.21812912821769714,-0.057659100741147995
1733767226857901300,5.5629013671875,-0.39381229877471924,-0.5634105801582336,-0.01447093952447176
1733767226867861200,5.572861328125,-0.5515856742858887,-0.7426431775093079,-0.0011247741058468819
1733767226877821200,5.5828212890625,-0.6355791687965393,-0.8078674674034119,-0.048575859516859055
1733767226887781000,5.592781005859375,-0.639862060546875,-0.8003445863723755,-0.1441868096590042
1733767226897741300,5.6027412109375,-0.6066460609436035,-0.7696695327758789,-0.28883206844329834
1733767226907701200,5.612701171875,-0.5733821392059326,-0.7562016248703003,-0.4738013744354248
1733767226917661200,5.6226611328125,-0.5356431603431702,-0.7176053524017334,-0.6436026096343994
1733767226927621000,5.63262109375,-0.4923662841320038,-0.6269478797912598,-0.7865666747093201
1733767226937581300,5.642581298828125,-0.4450974762439728,-0.42979490756988525,-0.8548838496208191
1733767226947541200,5.652541259765625,-0.38731300830841064,-0.15268848836421967,-0.7910183072090149
1733767226957501200,5.662501220703125,-0.3072185814380646,0.12578697502613068,-0.6596211194992065
1733767226967461000,5.672461181640625,-0.24637147784233093,0.3432186245918274,-0.5279536843299866
1733767226977421300,5.68242138671875,-0.19731612503528595,0.49488067626953125,-0.38361120223999023
1733767226987381200,5.69238134765625,-0.11912704259157181,0.588814377784729,-0.20554426312446594
1733767226997341200,5.702341064453125,0.016505923122167587,0.6166247129440308,-0.035406749695539474
1733767227007301400,5.71230126953125,0.20877788960933685,0.4998709559440613,0.11277046799659729
1733767227017261300,5.72226123046875,0.4088100492954254,0.2296590358018875,0.22051933407783508
1733767227027221200,5.73222119140625,0.5604994297027588,-0.19587229192256927,0.31191742420196533
1733767227037181200,5.74218115234375,0.6477002501487732,-0.6204309463500977,0.4100228250026703
1733767227047141400,5.752141357421875,0.6595771312713623,-0.8025081157684326,0.489398330450058
1733767227057101300,5.762101318359375,0.6378783583641052,-0.5666192173957825,0.5035313963890076
1733767227067061200,5.772061279296875,0.6973637938499451,0.10024190694093704,0.3985104262828827
1733767227077021200,5.782021240234375,0.8723266124725342,1.1000713109970093,0.20139913260936737
1733767227086981400,5.7919814453125,0.7885566353797913,1.5249767303466797,-0.2639283537864685
1733767227096941300,5.80194140625,0.4229389429092407,1.3392350673675537,-0.6867603063583374
1733767227106901200,5.8119013671875,0.1840059906244278,1.4776318073272705,-0.587269127368927
1733767227116862200,5.8218623046875,0.2631959319114685,1.7610327005386353,0.3090483248233795
1733767227126821400,5.8318212890625,0.5948505401611328,1.3640973567962646,1.525395154953003
1733767227136781300,5.84178125,0.8411561846733093,0.5346410274505615,2.2253105640411377
1733767227146742300,5.8517421875,0.7204697132110596,-0.5170586109161377,2.3149242401123047
1733767227156702200,5.8617021484375,0.3567350506782532,-1.24142587184906,1.9382860660552979
1733767227166662100,5.871662109375,-0.08539042621850967,-1.724503517150879,1.1634782552719116
1733767227176622000,5.8816220703125,-0.45542988181114197,-1.855865478515625,0.051102831959724426
1733767227186582300,5.891582275390625,-0.6447651982307434,-1.4688061475753784,-0.6734266877174377
1733767227196542200,5.901542236328125,-0.7559913396835327,-0.9333733916282654,-0.7905200123786926
1733767227206502100,5.911502197265625,-0.8569077849388123,-0.6669670343399048,-0.7243193984031677
1733767227216462000,5.921462158203125,-0.9713009595870972,-0.6897262334823608,-0.6607260704040527
1733767227226422300,5.93142236328125,-1.080828070640564,-0.8557716608047485,-0.6678218245506287
1733767227236382200,5.94138232421875,-1.1280187368392944,-1.039678692817688,-0.8410808444023132
1733767227246342100,5.951342041015625,-1.26636803150177,-0.7604073286056519,-1.185017704963684
1733767227256302000,5.961302001953125,-1.4793951511383057,0.29800814390182495,-1.8162013292312622
1733767227266262300,5.97126220703125,-1.3866937160491943,1.628719687461853,-2.291965961456299
1733767227276222200,5.98122216796875,-0.979328453540802,2.4576754570007324,-2.500443935394287
1733767227286182100,5.99118212890625,-0.566736102104187,2.8721425533294678,-2.4574649333953857
1733767227296142300,6.001142333984375,-0.38845622539520264,3.200589656829834,-2.3228135108947754
1733767227306102300,6.011102294921875,-0.5040856003761292,3.521559476852417,-2.0889060497283936
1733767227316062200,6.021062255859375,-0.5833293199539185,3.2625293731689453,-1.8821947574615479
1733767227326022100,6.031022216796875,-0.51395583152771,2.756669759750366,-1.8156734704971313
1733767227335982300,6.040982421875,-0.4121846854686737,2.3402304649353027,-1.748234510421753
1733767227345942300,6.0509423828125,-0.27460044622421265,1.9120320081710815,-1.6021220684051514
1733767227355902200,6.060902099609375,-0.11457686126232147,1.5255495309829712,-1.373079776763916
1733767227365862100,6.070862060546875,-0.01238764263689518,1.1299091577529907,-1.0747218132019043
1733767227375822300,6.080822265625,0.0044525847770273685,0.7057579755783081,-0.7661993503570557
1733767227385782300,6.0907822265625,-0.022764388471841812,0.22343580424785614,-0.520953893661499
1733767227395741400,6.100741455078125,-0.037498753517866135,-0.17354874312877655,-0.4049740731716156
1733767227405701600,6.11070166015625,-0.07789864391088486,-0.5057588815689087,-0.3229180574417114
1733767227415661600,6.12066162109375,-0.09619486331939697,-0.8845272660255432,-0.19051283597946167
1733767227425621500,6.13062158203125,-0.10310256481170654,-1.2839889526367188,-0.04333989694714546
1733767227435581400,6.14058154296875,-0.1006203219294548,-1.7123160362243652,0.04197542369365692
1733767227445541600,6.150541748046875,-0.06068887934088707,-2.0346946716308594,0.053791072219610214
1733767227455501600,6.16050146484375,0.025899186730384827,-2.236469030380249,-0.05331335589289665
1733767227465461500,6.17046142578125,0.08833193778991699,-2.0538675785064697,-0.21916463971138
1733767227475421700,6.180421630859375,0.10516899824142456,-1.723078727722168,-0.3550463914871216
1733767227485381600,6.190381591796875,0.09745355695486069,-1.2925773859024048,-0.41572117805480957
1733767227495341600,6.200341552734375,0.11182228475809097,-0.8045994639396667,-0.4317270517349243
1733767227505301500,6.210301513671875,0.17431947588920593,-0.3606036305427551,-0.44406548142433167
1733767227515261700,6.22026171875,0.2401062697172165,0.04738675057888031,-0.4661991596221924
1733767227525221600,6.2302216796875,0.26565101742744446,0.44079744815826416,-0.5320059061050415
1733767227535181600,6.240181640625,0.239916130900383,0.7784616947174072,-0.7159605026245117
1733767227545141500,6.2501416015625,0.125971719622612,1.0467205047607422,-0.9725222587585449
1733767227555101700,6.260101806640625,-0.03274504095315933,1.212743878364563,-1.2186299562454224
1733767227565061600,6.2700615234375,-0.18195423483848572,1.2470635175704956,-1.3333845138549805
1733767227575021600,6.280021484375,-0.3019025921821594,1.189788579940796,-1.306673526763916
1733767227584981500,6.2899814453125,-0.36445918679237366,1.128806471824646,-1.2167776823043823
1733767227594941700,6.299941650390625,-0.4356159269809723,1.134814977645874,-1.1686666011810303
1733767227604901600,6.309901611328125,-0.5646075010299683,1.184386968612671,-1.1533427238464355
1733767227614861600,6.319861572265625,-0.6727898120880127,1.2690380811691284,-1.120676875114441
1733767227624821800,6.32982177734375,-0.6892715692520142,1.3875292539596558,-1.079660177230835
1733767227634781700,6.33978173828125,-0.6491310000419617,1.549627423286438,-1.0479340553283691
1733767227644741600,6.34974169921875,-0.5824057459831238,1.6127424240112305,-0.9893462657928467
1733767227654701600,6.35970166015625,-0.5157678127288818,1.5417250394821167,-0.8962002992630005
1733767227664661800,6.369661865234375,-0.496883362531662,1.4672307968139648,-0.7857776880264282
1733767227674621700,6.37962158203125,-0.5661711096763611,1.4030786752700806,-0.6595638394355774
1733767227684582400,6.38958251953125,-0.6685267686843872,1.3154056072235107,-0.5370003581047058
1733767227694542600,6.39954248046875,-0.7215567827224731,1.144280195236206,-0.38950249552726746
1733767227704502500,6.40950244140625,-0.6445834636688232,0.8813502192497253,-0.22770455479621887
1733767227714462500,6.41946240234375,-0.46913808584213257,0.7783136963844299,-0.19713713228702545
1733767227724422400,6.42942236328125,-0.24672605097293854,1.070971131324768,-0.4170069098472595
1733767227734382600,6.439382568359375,-0.011865690350532532,1.5125828981399536,-0.6237399578094482
1733767227744342500,6.449342529296875,0.19379453361034393,1.881496787071228,-0.4075125753879547
1733767227754302500,6.459302490234375,0.41488778591156006,2.0694761276245117,0.42015230655670166
1733767227764262700,6.4692626953125,0.6514662504196167,1.7469788789749146,1.7621265649795532
1733767227774222600,6.47922265625,0.89192795753479,0.6630784869194031,3.1276183128356934
1733767227784182500,6.4891826171875,1.0801076889038086,-0.7519631385803223,4.091538906097412
1733767227794142500,6.499142578125,1.234154224395752,-1.946795105934143,4.568924427032471
1733767227804102700,6.5091025390625,1.4023743867874146,-2.8597254753112793,4.6778883934021
1733767227814062600,6.5190625,1.4549148082733154,-3.451652765274048,4.662527084350586
1733767227824022500,6.5290224609375,1.3047760725021362,-3.873216152191162,4.608941555023193
1733767227833982500,6.538982421875,1.0062142610549927,-4.251590728759766,4.494143486022949
1733767227843942700,6.548942626953125,0.6777427196502686,-4.467916488647461,4.308543682098389
1733767227853902600,6.558902587890625,0.4162400960922241,-4.20235013961792,3.8892219066619873
1733767227863862500,6.568862548828125,0.20899049937725067,-3.6313695907592773,3.314152717590332
1733767227873822500,6.578822509765625,0.16880732774734497,-2.776872158050537,2.6941447257995605
1733767227883782700,6.58878271484375,0.21050924062728882,-1.756853461265564,2.0664408206939697
1733767227893742600,6.59874267578125,0.26781773567199707,-0.8880132436752319,1.630422830581665
1733767227903702500,6.60870263671875,0.359134316444397,-0.24582310020923615,1.479421854019165
1733767227913662700,6.618662841796875,0.3781544268131256,0.27691560983657837,1.369940161705017
1733767227923622700,6.62862255859375,0.3321443498134613,0.8114096522331238,1.1593959331512451
1733767227933582600,6.63858251953125,0.25970983505249023,1.392622470855713,0.8808979988098145
1733767227943542500,6.64854248046875,0.2447332888841629,1.9003794193267822,0.5448054671287537
1733767227953502700,6.658502685546875,0.3070012927055359,2.241302967071533,0.20019061863422394
1733767227963462700,6.668462646484375,0.39852482080459595,2.389934539794922,-0.10012952983379364
1733767227973422600,6.678422607421875,0.4849797785282135,2.4447362422943115,-0.31071892380714417
1733767227983382500,6.688382568359375,0.5612170696258545,2.4023430347442627,-0.41472867131233215
1733767227993342700,6.6983427734375,0.6663222908973694,2.1554808616638184,-0.44821032881736755
1733767228003302700,6.708302734375,0.8144862055778503,1.7679858207702637,-0.5432726740837097
1733767228013262600,6.7182626953125,0.8141562342643738,1.4330590963363647,-0.5793349742889404
1733767228023222500,6.728222412109375,0.7176693677902222,1.0755773782730103,-0.499313086271286
1733767228033182700,6.7381826171875,0.6605150103569031,0.5820909738540649,-0.3224734365940094
1733767228043142700,6.748142578125,0.6644831299781799,0.0683770477771759,-0.056576766073703766
1733767228053102600,6.7581025390625,0.6889228820800781,-0.3863929808139801,0.2222297489643097
1733767228063062800,6.768062744140625,0.6990228891372681,-0.6906876564025879,0.4790266752243042
1733767228073022700,6.778022705078125,0.6692987084388733,-0.8421943187713623,0.650982141494751
1733767228082982700,6.787982666015625,0.5786452293395996,-0.8376272916793823,0.6981584429740906
1733767228092942600,6.797942626953125,0.4518861472606659,-0.7339569330215454,0.5819675326347351
1733767228102902500,6.807902587890625,0.29543688893318176,-0.63514244556427,0.3382752239704132
1733767228112862500,6.817862548828125,0.10635356605052948,-0.5748536586761475,0.046902745962142944
1733767228122822400,6.827822509765625,-0.07021534442901611,-0.5294419527053833,-0.2180309146642685
1733767228132782300,6.8377822265625,-0.19452255964279175,-0.4971427321434021,-0.4267076253890991
1733767228142742500,6.847742431640625,-0.29213327169418335,-0.5417400002479553,-0.5699305534362793
1733767228152702500,6.857702392578125,-0.3989813029766083,-0.6290223598480225,-0.6554295420646667
1733767228162662400,6.867662353515625,-0.5147861838340759,-0.7892102003097534,-0.7137466073036194
1733767228172622300,6.877622314453125,-0.5754700899124146,-0.9988014698028564,-0.776711642742157
1733767228182582500,6.88758251953125,-0.5495859980583191,-1.272477149963379,-0.8671030402183533
1733767228192542500,6.89754248046875,-0.40208402276039124,-1.4685560464859009,-0.9110090732574463
1733767228202502400,6.90750244140625,-0.0465213917195797,-1.2395633459091187,-0.6672488451004028
1733767228212462600,6.917462646484375,0.3315747082233429,-0.9568105936050415,-0.4011496901512146
1733767228222423600,6.927423583984375,0.4272620975971222,-1.0529348850250244,-0.35258162021636963
1733767228232383500,6.937383544921875,0.31670641899108887,-1.1295627355575562,-0.34398365020751953
1733767228242343700,6.94734375,0.19890736043453217,-0.9364190101623535,-0.2730516791343689
1733767228252303600,6.9573037109375,0.15155668556690216,-0.5940667986869812,-0.19888831675052643
1733767228262263600,6.967263671875,0.20662127435207367,-0.37348809838294983,-0.16638816893100739
1733767228272223500,6.977223388671875,0.33278271555900574,-0.48520493507385254,-0.1870669424533844
1733767228282183700,6.98718359375,0.451112300157547,-0.8250565528869629,-0.24703654646873474
1733767228292143600,6.9971435546875,0.5218743085861206,-1.1988139152526855,-0.28968513011932373
1733767228302103600,7.007103515625,0.5485743880271912,-1.5449941158294678,-0.29015809297561646
1733767228312063500,7.0170634765625,0.520724892616272,-1.7263460159301758,-0.2591565251350403
1733767228322023700,7.027023681640625,0.403713583946228,-1.5648225545883179,-0.3060598373413086
1733767228331983600,7.036983642578125,0.16044557094573975,-1.0636553764343262,-0.47728195786476135
1733767228341943600,7.046943603515625,-0.16090822219848633,-0.24409045279026031,-0.688957691192627
1733767228351903700,7.05690380859375,-0.4159831404685974,0.8768698573112488,-0.691129744052887
1733767228361863700,7.06686376953125,-0.48551082611083984,2.16862416267395,-0.5830890536308289
1733767228371823600,7.07682373046875,-0.25637558102607727,3.025193214416504,-0.4841806888580322
1733767228381783600,7.086783447265625,0.3400222957134247,3.3171486854553223,-0.12866652011871338
1733767228391744300,7.096744140625,0.9697607755661011,2.954692840576172,0.585067868232727
1733767228401704200,7.1067041015625,1.2058441638946533,1.9210072755813599,1.3171402215957642
1733767228411664100,7.1166640625,1.059884786605835,0.38534727692604065,1.7075586318969727
1733767228421624000,7.1266240234375,0.5342822670936584,-1.4944607019424438,1.701934576034546
1733767228431584000,7.136583984375,-0.1522143930196762,-3.3079206943511963,1.3881784677505493
1733767228441544200,7.146544189453125,-0.7340458631515503,-4.309713363647461,0.9010733366012573
1733767228451504000,7.156504150390625,-1.0885117053985596,-4.294358730316162,0.5052067637443542
1733767228461464000,7.166464111328125,-1.3070114850997925,-3.7414438724517822,0.26679208874702454
1733767228471424300,7.17642431640625,-1.4710586071014404,-3.3936047554016113,0.011252230033278465
1733767228481384200,7.18638427734375,-1.4921241998672485,-3.1630756855010986,-0.2963141202926636
1733767228491344100,7.19634423828125,-1.4471200704574585,-2.981353759765625,-0.6484538912773132
1733767228501304000,7.206303955078125,-1.400026798248291,-2.7285218238830566,-1.1577138900756836
1733767228511264300,7.21626416015625,-1.341115951538086,-1.9911315441131592,-1.7555112838745117
1733767228521224200,7.22622412109375,-1.1304898262023926,-0.8433067202568054,-2.4593887329101562
1733767228531184000,7.23618408203125,-0.7100011706352234,0.5119139552116394,-3.0121612548828125
1733767228541144000,7.24614404296875,-0.28622809052467346,1.8336073160171509,-3.211052417755127
1733767228551104300,7.256104248046875,-0.032847728580236435,2.869699001312256,-3.0636308193206787
1733767228561064200,7.266064208984375,-0.031001094728708267,3.6113052368164062,-2.7018866539001465
1733767228571024100,7.276024169921875,-0.12873475253582,4.028824806213379,-2.3138699531555176
1733767228580984000,7.285984130859375,-0.15672644972801208,4.123394966125488,-2.052117109298706
1733767228590944300,7.2959443359375,-0.09276890754699707,3.9652931690216064,-1.994726300239563
1733767228600904200,7.305904296875,-0.036344513297080994,3.474030017852783,-2.01765775680542
1733767228610864000,7.315864013671875,0.08542109280824661,2.6794958114624023,-1.9809558391571045
1733767228620824300,7.32582421875,0.1887621283531189,1.6730272769927979,-1.8306605815887451
1733767228630784300,7.3357841796875,0.21202903985977173,0.6370376348495483,-1.5914708375930786
1733767228640744200,7.345744140625,0.19088220596313477,-0.3531123101711273,-1.2895809412002563
1733767228650704100,7.3557041015625,0.1360429972410202,-1.2160089015960693,-0.9675549268722534
1733767228660664300,7.365664306640625,0.025134315714240074,-1.846939206123352,-0.6473369598388672
1733767228670624300,7.375624267578125,-0.06194864958524704,-2.2777488231658936,-0.3411789536476135
1733767228680584200,7.385584228515625,-0.1450621783733368,-2.4321789741516113,-0.14044688642024994
1733767228690544000,7.395544189453125,-0.15471424162387848,-2.4003496170043945,-0.027059689164161682
1733767228700504300,7.40550439453125,-0.10892145335674286,-2.329044818878174,0.035736050456762314
1733767228710464300,7.41546435546875,-0.04537400230765343,-2.1103556156158447,0.0615905337035656
1733767228720424200,7.425424072265625,-0.03572084382176399,-1.799259901046753,0.02424369379878044
1733767228730384100,7.435384033203125,-0.04841793328523636,-1.4842449426651,-0.04983414337038994
1733767228740344300,7.44534423828125,-0.0676179900765419,-1.2031834125518799,-0.11516600847244263
1733767228750304300,7.45530419921875,-0.07694216072559357,-0.9752836227416992,-0.17736272513866425
1733767228760264200,7.46526416015625,-0.06373368203639984,-0.7942426800727844,-0.25118395686149597
1733767228770224400,7.475224365234375,-0.06164427474141121,-0.6048334240913391,-0.35469362139701843
1733767228780184300,7.485184326171875,-0.0641724169254303,-0.40086352825164795,-0.5220032930374146
1733767228790144300,7.495144287109375,-0.08856206387281418,-0.10687894374132156,-0.737778902053833
1733767228800104200,7.505104248046875,-0.1323162019252777,0.23864170908927917,-0.9369958639144897
1733767228810064400,7.515064453125,-0.18010079860687256,0.5510799288749695,-1.0813251733779907
1733767228820024300,7.5250244140625,-0.24378657341003418,0.7457940578460693,-1.1498451232910156
1733767228829985000,7.534985107421875,-0.3409889042377472,0.8256000876426697,-1.1765697002410889
1733767228839945200,7.5449453125,-0.44275468587875366,0.8117076754570007,-1.148234486579895
1733767228849905200,7.5549052734375,-0.5054971575737,0.7334815263748169,-1.0909645557403564
1733767228859865000,7.564864990234375,-0.5187644958496094,0.6995893120765686,-1.0448293685913086
1733767228869825000,7.574824951171875,-0.506650984287262,0.7654543519020081,-1.0856252908706665
1733767228879785200,7.58478515625,-0.4785171151161194,0.9787327647209167,-1.1873329877853394
1733767228889745200,7.5947451171875,-0.42091426253318787,1.1343564987182617,-1.2467396259307861
1733767228899705000,7.604705078125,-0.37969574332237244,1.1412453651428223,-1.1278865337371826
1733767228909665000,7.6146650390625,-0.3576871156692505,1.071821928024292,-0.8842616677284241
1733767228919625200,7.624625244140625,-0.3272956609725952,1.0156053304672241,-0.6906961798667908
1733767228929585200,7.634585205078125,-0.27758219838142395,0.9577810168266296,-0.639320969581604
1733767228939545000,7.644545166015625,-0.23137423396110535,0.8658367395401001,-0.6296654343605042
1733767228949505300,7.65450537109375,-0.18443474173545837,0.7111800909042358,-0.4931221306324005
1733767228959465200,7.66446533203125,-0.1421450674533844,0.47744882106781006,-0.18689748644828796
1733767228969425200,7.674425048828125,-0.11647960543632507,0.2998218238353729,0.07163678109645844
1733767228979385000,7.684385009765625,-0.0858018547296524,0.28618109226226807,0.19142842292785645
1733767228989345300,7.69434521484375,0.00916200689971447,0.39914706349372864,0.30329808592796326
1733767228999305200,7.70430517578125,0.12347526848316193,0.452800452709198,0.5768678188323975
1733767229009265200,7.71426513671875,0.278281569480896,0.36284446716308594,1.1192258596420288
1733767229019225000,7.72422509765625,0.4457312822341919,0.03829805180430412,1.8611303567886353
1733767229029185300,7.734185302734375,0.6160597205162048,-0.5543414354324341,2.652927875518799
1733767229039145200,7.744145263671875,0.7724522948265076,-1.2464255094528198,3.342026472091675
1733767229049105200,7.754105224609375,0.9350584149360657,-1.9302006959915161,3.8141520023345947
1733767229059065300,7.7640654296875,1.0953871011734009,-2.594351291656494,4.021358489990234
1733767229069025300,7.774025390625,1.1764429807662964,-3.261348009109497,4.011140823364258
1733767229078985200,7.783985107421875,1.1475937366485596,-3.912846803665161,3.984135389328003
1733767229088945200,7.793945068359375,0.9906792044639587,-4.096158504486084,3.8219449520111084
1733767229098905300,7.8039052734375,0.7579687237739563,-3.8752264976501465,3.4214608669281006
1733767229108865300,7.813865234375,0.5059658885002136,-3.3241078853607178,2.887314558029175
1733767229118825200,7.8238251953125,0.3021238446235657,-2.564854383468628,2.114605188369751
1733767229128785200,7.83378515625,0.22895747423171997,-1.4570046663284302,1.4280346632003784
1733767229138745300,7.843745361328125,0.2858591079711914,-0.5160642862319946,1.0760595798492432
1733767229148705300,7.853705322265625,0.3856815695762634,0.0563424751162529,0.9705871939659119
1733767229158665200,7.863665283203125,0.35438624024391174,0.34515777230262756,0.9486424922943115
1733767229168625200,7.873625244140625,0.2222229689359665,0.46433964371681213,0.9152199029922485
1733767229178585300,7.88358544921875,0.033781953155994415,0.48403480648994446,0.8408638834953308
1733767229188545300,7.893545166015625,-0.14071142673492432,0.4796319603919983,0.7287277579307556
1733767229198505200,7.903505126953125,-0.24211528897285461,0.3454746603965759,0.5787795782089233
1733767229208465400,7.91346533203125,-0.28308629989624023,0.06426697224378586,0.3609052896499634
1733767229218425300,7.92342529296875,-0.2767394483089447,-0.30289211869239807,0.08645107597112656
1733767229228385300,7.93338525390625,-0.21356265246868134,-0.7212141156196594,-0.12366262823343277
1733767229238345200,7.94334521484375,-0.09266898781061172,-1.1331442594528198,-0.23516333103179932
1733767229248305400,7.953305419921875,0.004714522510766983,-1.3317828178405762,-0.2681049108505249
1733767229258265300,7.963265380859375,0.04676876589655876,-1.3036994934082031,-0.23940831422805786
1733767229268225300,7.973225341796875,0.07568323612213135,-1.2288260459899902,-0.1496954709291458
1733767229278185200,7.983185302734375,0.09579595923423767,-1.2110204696655273,-0.03019862435758114
1733767229288145400,7.9931455078125,0.104036845266819,-1.281003713607788,0.10116715729236603
1733767229298105300,8.003105224609374,0.11634544283151627,-1.4645967483520508,0.1931934803724289
1733767229308065300,8.013065185546875,0.11155521124601364,-1.6330316066741943,0.21600373089313507
1733767229318025200,8.023025146484375,0.08053471148014069,-1.7814128398895264,0.15819795429706573
1733767229327985400,8.0329853515625,0.11100924015045166,-1.9211273193359375,0.03394022211432457
1733767229337945300,8.0429453125,0.16901981830596924,-2.032947063446045,-0.10804035514593124
1733767229347905300,8.0529052734375,0.21137623488903046,-2.080690622329712,-0.21795016527175903
1733767229357865200,8.062865234375,0.23483389616012573,-2.0958845615386963,-0.2797538638114929
1733767229367825200,8.0728251953125,0.22673894464969635,-2.1466853618621826,-0.2800963521003723
1733767229377785000,8.08278515625,0.18804214894771576,-2.254713535308838,-0.27173322439193726
1733767229387745000,8.0927451171875,0.17350107431411743,-2.4697110652923584,-0.26667869091033936
1733767229397704400,8.102704345703126,0.19444763660430908,-2.8857803344726562,-0.2767811417579651
1733767229407664400,8.112664306640625,0.25268980860710144,-3.423306941986084,-0.3007219731807709
1733767229417624300,8.122624267578125,0.2742600739002228,-4.106287002563477,-0.2761966586112976
1733767229427584500,8.13258447265625,0.2695779800415039,-4.876115798950195,-0.21815960109233856
1733767229437544400,8.14254443359375,0.19735515117645264,-5.495187759399414,-0.11669423431158066
1733767229447504400,8.15250439453125,0.12520241737365723,-5.926640510559082,-0.003796264063566923
1733767229457464600,8.162464599609375,0.07705805450677872,-6.122437477111816,0.03734904155135155
1733767229467424500,8.172424560546874,0.0374317541718483,-5.994204521179199,-0.04282660782337189
1733767229477384400,8.182384521484375,0.011421194300055504,-5.4752197265625,-0.22248664498329163
1733767229487344400,8.192344482421875,0.04244699329137802,-4.642543315887451,-0.4267638325691223
1733767229497304300,8.20230419921875,0.12107975780963898,-3.5777053833007812,-0.5647994875907898
1733767229507264300,8.21226416015625,0.19024121761322021,-2.3833682537078857,-0.5321274995803833
1733767229517224200,8.22222412109375,0.2289702445268631,-1.3299190998077393,-0.3448883593082428
1733767229527184100,8.23218408203125,0.3071533441543579,-0.7696420550346375,-0.1500946283340454
1733767229537145300,8.242145263671874,0.4316987097263336,-0.6696792244911194,-0.0991307869553566
1733767229547105300,8.252105224609375,0.46514683961868286,-0.8884952068328857,-0.10263422876596451
1733767229557065200,8.262065185546875,0.3669837713241577,-1.6344993114471436,0.16093669831752777
1733767229567025400,8.272025390625,0.20406614243984222,-2.6307311058044434,0.8743650317192078
1733767229576985300,8.2819853515625,0.22319483757019043,-3.7827889919281006,1.9311854839324951
1733767229586945300,8.2919453125,0.5419521927833557,-4.710103988647461,2.9725074768066406
1733767229596905500,8.301905517578126,0.9202704429626465,-5.027634620666504,3.5764832496643066
1733767229606865400,8.311865478515625,0.919459342956543,-4.701889514923096,3.582961320877075
1733767229616825300,8.321825439453125,0.6092793941497803,-4.284398078918457,2.8425216674804688
1733767229626785300,8.331785400390626,0.342549592256546,-3.8467061519622803,1.6848751306533813
1733767229636745500,8.341745361328124,0.3367670774459839,-2.864678144454956,0.27686476707458496
1733767229646705400,8.351705322265625,0.6413079500198364,-1.5756897926330566,-0.9248434901237488
1733767229656665300,8.361665283203125,1.012449026107788,-0.43623635172843933,-1.381701111793518
1733767229666625300,8.371625244140626,1.1419440507888794,0.2758742570877075,-1.4514254331588745
1733767229676585500,8.38158544921875,1.047479271888733,0.5010448098182678,-1.3711316585540771
1733767229686545400,8.39154541015625,0.7799800038337708,0.4536625146865845,-1.1868720054626465
1733767229696505300,8.40150537109375,0.44138169288635254,0.17007367312908173,-0.9886173009872437
1733767229706465300,8.41146533203125,0.17366570234298706,-0.2751179039478302,-0.847374677658081
1733767229716425500,8.421425537109375,0.06713446229696274,-0.7153834700584412,-0.9015292525291443
1733767229726385400,8.431385498046875,0.17304390668869019,-1.0616158246994019,-1.3299957513809204
1733767229736345300,8.441345458984374,0.3775038421154022,-1.4031745195388794,-1.7847552299499512
1733767229746305500,8.451305419921875,0.5460779666900635,-1.7681198120117188,-1.9294164180755615
1733767229756265500,8.461265380859375,0.6067751049995422,-2.1405725479125977,-1.7263764142990112
1733767229766225400,8.471225341796876,0.620301365852356,-2.5244858264923096,-1.3563398122787476
1733767229776185300,8.481185302734374,0.6569560766220093,-2.855069875717163,-1.0672723054885864
1733767229786145500,8.4911455078125,0.7017496228218079,-3.1041219234466553,-0.9626659750938416
1733767229796105500,8.50110546875,0.7027709484100342,-3.185224771499634,-0.9686173796653748
1733767229806065400,8.5110654296875,0.6146429181098938,-3.0620110034942627,-0.9635725021362305
1733767229816025300,8.521025390625,0.4625582993030548,-2.7737491130828857,-0.8617574572563171
1733767229825985500,8.530985595703125,0.3181843161582947,-2.4072465896606445,-0.6871064901351929
1733767229835945500,8.540945556640626,0.24786993861198425,-2.0985965728759766,-0.5092837810516357
1733767229845905400,8.550905517578125,0.23034785687923431,-1.8692655563354492,-0.3595984876155853
1733767229855865300,8.560865234375,0.21531909704208374,-1.6644821166992188,-0.24377737939357758
1733767229865825500,8.570825439453126,0.17631976306438446,-1.5010110139846802,-0.1604316234588623
1733767229875785500,8.580785400390624,0.13093683123588562,-1.4174662828445435,-0.09259746223688126
1733767229885745400,8.590745361328125,0.11780063807964325,-1.4392645359039307,-0.040552861988544464
1733767229895705300,8.600705322265625,0.11582829803228378,-1.562151551246643,-0.01573113538324833
1733767229905665300,8.610665283203126,0.07771765440702438,-1.7357968091964722,-0.02309122309088707
1733767229915625200,8.620625244140625,-0.0004855380393564701,-1.8955779075622559,-0.04094824939966202
1733767229925585200,8.630585205078125,-0.08002784848213196,-1.9653587341308594,-0.002494474872946739
1733767229935545300,8.64054541015625,-0.14017321169376373,-2.014007568359375,0.14290159940719604
1733767229945505300,8.65050537109375,-0.2154649794101715,-2.0936102867126465,0.39654576778411865
1733767229955465200,8.66046533203125,-0.2891162931919098,-2.1851799488067627,0.6827274560928345
1733767229965425200,8.670425048828125,-0.3203187882900238,-2.282465934753418,0.8936281204223633
1733767229975385300,8.68038525390625,-0.3032439351081848,-2.3724892139434814,1.0006483793258667
1733767229985345300,8.69034521484375,-0.25201401114463806,-2.4513015747070312,1.028896450996399
1733767229995305200,8.70030517578125,-0.18067219853401184,-2.558396577835083,1.0064678192138672
1733767230005265200,8.71026513671875,-0.0987066775560379,-2.692925453186035,0.9417459964752197
1733767230015225300,8.720225341796874,0.011657916940748692,-2.8866820335388184,0.8198730945587158
1733767230025185300,8.730185302734375,0.13010676205158234,-3.0879344940185547,0.6173306703567505
1733767230035145200,8.740145263671875,0.2316882461309433,-3.1999590396881104,0.32204097509384155
1733767230045105400,8.75010546875,0.3220803439617157,-3.2226438522338867,-0.01054687425494194
1733767230055065300,8.7600654296875,0.4125223457813263,-3.141601800918579,-0.24729043245315552
1733767230065025300,8.770025390625,0.45095276832580566,-2.9802615642547607,-0.3632648289203644
1733767230074985200,8.779985107421876,0.4373866319656372,-2.7249367237091064,-0.3767007291316986
1733767230084945400,8.7899453125,0.38464194536209106,-2.395045518875122,-0.3256985545158386
1733767230094905300,8.7999052734375,0.31944215297698975,-2.0265891551971436,-0.2724478542804718
1733767230104865300,8.809865234375,0.2744409441947937,-1.6847436428070068,-0.27198171615600586
1733767230114825200,8.8198251953125,0.2498280107975006,-1.3657941818237305,-0.338514119386673
1733767230124785400,8.829785400390625,0.27568262815475464,-1.117674469947815,-0.4966336786746979
1733767230134745300,8.839745361328125,0.33731138706207275,-0.9303280115127563,-0.7093784213066101
1733767230144705300,8.849705322265624,0.3781953454017639,-0.7534978985786438,-0.8829362392425537
1733767230154665200,8.859665283203125,0.32131102681159973,-0.5812816619873047,-0.9445985555648804
1733767230164625400,8.86962548828125,0.19008095562458038,-0.45051872730255127,-0.8654041290283203
1733767230174585300,8.87958544921875,0.07406700402498245,-0.4150283634662628,-0.7125847339630127
1733767230184545300,8.889545166015624,0.0035200314596295357,-0.5407571792602539,-0.5637364387512207
1733767230194505500,8.89950537109375,-0.06775281578302383,-0.8338133096694946,-0.4801965355873108
1733767230204465400,8.90946533203125,-0.1556040495634079,-1.190518856048584,-0.4769318997859955
1733767230214425300,8.91942529296875,-0.26323437690734863,-1.5383785963058472,-0.5039792060852051
1733767230224385300,8.92938525390625,-0.3964233100414276,-1.7862045764923096,-0.4980795979499817
1733767230234345500,8.939345458984375,-0.5488442778587341,-2.0422933101654053,-0.48340287804603577
1733767230244305400,8.949305419921876,-0.6561112999916077,-2.3522677421569824,-0.4724874496459961
1733767230254265300,8.959265380859375,-0.6826456785202026,-2.585780382156372,-0.5213193893432617
1733767230264225300,8.969225341796875,-0.6438688039779663,-2.6779439449310303,-0.6224674582481384
1733767230274185500,8.979185546875,-0.547804594039917,-2.5769052505493164,-0.7759371399879456
1733767230284145400,8.9891455078125,-0.39918527007102966,-2.2712504863739014,-0.9496927261352539
1733767230294105300,8.999105224609375,-0.289325088262558,-1.760313630104065,-1.014358639717102
1733767230304065500,9.0090654296875,-0.28605687618255615,-1.1641604900360107,-0.7956911325454712
1733767230314025500,9.019025390625,-0.354655385017395,-0.7434468269348145,-0.15354762971401215
1733767230323985400,9.0289853515625,-0.35610345005989075,-0.6412032246589661,0.9448080062866211
1733767230333945300,9.0389453125,-0.27055180072784424,-0.9324629902839661,1.8138078451156616
1733767230343905500,9.048905517578126,-0.15932480990886688,-1.279316782951355,2.3331878185272217
1733767230353865500,9.058865478515624,-0.12550479173660278,-1.5917543172836304,2.6374881267547607
1733767230363825400,9.068825439453125,-0.11729157716035843,-1.9465560913085938,2.777045726776123
1733767230373785300,9.078785400390625,-0.084291011095047,-2.320429801940918,2.78690242767334
1733767230383745500,9.08874560546875,-0.048683810979127884,-2.6087939739227295,2.7255492210388184
1733767230393705700,9.098705810546875,-0.013978827744722366,-2.6455702781677246,2.644571304321289
1733767230403665700,9.108665771484375,0.05157642066478729,-2.481142044067383,2.525472402572632
1733767230413625600,9.11862548828125,0.2773483097553253,-2.3559718132019043,2.308359384536743
1733767230423586600,9.128586669921875,0.47941282391548157,-2.2769734859466553,2.0074360370635986
1733767230433545500,9.13854541015625,0.5562660694122314,-2.262129068374634,1.5553580522537231
1733767230443506700,9.148506591796876,0.5120564103126526,-2.1521010398864746,1.0451874732971191
1733767230453466600,9.158466552734374,0.409152626991272,-1.8426358699798584,0.6403822302818298
1733767230463426600,9.168426513671875,0.30688780546188354,-1.2967876195907593,0.4363887906074524
1733767230473386800,9.17838671875,0.29451024532318115,-0.6928293704986572,0.3172144591808319
1733767230483346700,9.1883466796875,0.3241545557975769,-0.08198712766170502,0.10965578258037567
1733767230493306600,9.198306640625,0.35288766026496887,0.6133208274841309,-0.3184899687767029
1733767230503266600,9.2082666015625,0.43942415714263916,1.3634501695632935,-0.8295274972915649
1733767230513226800,9.218226806640626,0.5833451747894287,2.086205005645752,-1.2372699975967407
1733767230523186700,9.228186767578125,0.7535197734832764,2.724980354309082,-1.4769269227981567
1733767230533146600,9.238146728515625,0.9442929029464722,3.2541961669921875,-1.5906777381896973
1733767230543106800,9.24810693359375,1.1090619564056396,3.5961618423461914,-1.6654083728790283
1733767230553066800,9.258066650390624,1.1979973316192627,3.635490655899048,-1.7382503747940063
1733767230563026700,9.268026611328125,1.2156275510787964,3.4226529598236084,-1.774642825126648
1733767230572986600,9.277986572265625,1.2080436944961548,2.9629454612731934,-1.5553642511367798
1733767230582946800,9.28794677734375,1.2707034349441528,2.2434780597686768,-0.6256392002105713
1733767230592906800,9.29790673828125,1.2168209552764893,0.46653780341148376,0.4778309762477875
1733767230602866700,9.30786669921875,0.9705644845962524,-1.9359054565429688,1.014564871788025
1733767230612826600,9.31782666015625,0.7656393051147461,-3.7295708656311035,1.1852656602859497
1733767230622786800,9.327786865234375,0.696965754032135,-4.475107192993164,1.2085460424423218
1733767230632746800,9.337746826171875,0.6403961777687073,-4.371219158172607,1.1937754154205322
1733767230642706700,9.347706787109376,0.5785515904426575,-3.7549290657043457,1.1450649499893188
1733767230652666600,9.35766650390625,0.527550220489502,-2.999054193496704,1.021026372909546
1733767230662626800,9.367626708984375,0.4781779944896698,-2.4246485233306885,0.7845587134361267
1733767230672586800,9.377586669921875,0.4359964430332184,-2.0581185817718506,0.42767035961151123
1733767230682546700,9.387546630859376,0.4135628938674927,-1.770095705986023,0.00272866222076118
1733767230692507000,9.3975068359375,0.3815423846244812,-1.439522624015808,-0.3966251015663147
1733767230702466800,9.407466796875,0.33126071095466614,-0.9776066541671753,-0.6762032508850098
1733767230712426800,9.4174267578125,0.2783879041671753,-0.44741445779800415,-0.8594697713851929
1733767230722386700,9.42738671875,0.24457001686096191,0.036876972764730453,-0.9819948077201843
1733767230732347000,9.437346923828125,0.22499285638332367,0.3246898353099823,-0.9314096570014954
1733767230742306800,9.447306884765625,0.18645410239696503,0.19888173043727875,-0.6409922242164612
1733767230752266800,9.457266845703124,0.13312430679798126,-0.4677801728248596,-0.3088212311267853
1733767230762226700,9.467226806640625,0.10402417927980423,-1.362250804901123,-0.08721420913934708
1733767230772187000,9.477186767578125,0.1153697818517685,-1.9199223518371582,-0.009246968664228916
1733767230782146800,9.487146728515626,0.1710377186536789,-1.9376791715621948,-0.023051826283335686
1733767230792106800,9.497106689453124,0.22704294323921204,-1.687222957611084,-0.0969468280673027
1733767230802066700,9.507066650390625,0.2563133239746094,-1.5262565612792969,-0.20449981093406677
1733767230812026600,9.517026611328125,0.29513049125671387,-1.5336438417434692,-0.28450730443000793
1733767230821986600,9.526986572265624,0.37340304255485535,-1.564944863319397,-0.28891777992248535
1733767230831946500,9.536946533203125,0.4691742956638336,-1.5370064973831177,-0.2101672738790512
1733767230841906700,9.54690673828125,0.5462020039558411,-1.4331060647964478,-0.11874435842037201
1733767230851866600,9.55686669921875,0.5482936501502991,-1.3659353256225586,-0.1178993284702301
1733767230861826600,9.56682666015625,0.5497088432312012,-1.2831060886383057,-0.2240341305732727
1733767230871786500,9.576786376953125,0.506758451461792,-1.0086989402770996,-0.36842191219329834
1733767230881746700,9.58674658203125,0.40872058272361755,-0.4683685898780823,-0.5101418495178223
1733767230891706600,9.59670654296875,0.28702130913734436,0.20377439260482788,-0.6529346704483032
1733767230901666600,9.60666650390625,0.17774458229541779,1.038962483406067,-0.5612440705299377
1733767230911626500,9.61662646484375,0.2032853662967682,1.6973397731781006,-0.32399532198905945
1733767230921586700,9.626586669921876,0.6104354858398438,1.8732365369796753,-0.20725895464420319
1733767230931546600,9.636546630859375,1.0610814094543457,1.9207364320755005,0.1345931887626648
1733767230941506600,9.646506591796875,1.2382488250732422,1.7371940612792969,0.7124453783035278
1733767230951466800,9.656466796875,1.161358118057251,1.0601577758789062,1.1873387098312378
1733767230961426700,9.6664267578125,0.7873374223709106,-0.312258243560791,1.397735834121704
1733767230971386600,9.67638671875,0.09663885086774826,-2.319969892501831,1.404678463935852
1733767230981346600,9.6863466796875,-0.6444544792175293,-4.429441452026367,1.2226163148880005
1733767230991306800,9.696306640625,-1.2017743587493896,-5.696712017059326,0.8945510983467102
1733767231001266700,9.7062666015625,-1.5512008666992188,-5.778472900390625,0.5018349289894104
1733767231011226600,9.7162265625,-1.635317325592041,-5.206586837768555,0.10565667599439621
1733767231021186600,9.7261865234375,-1.5571209192276,-4.152059555053711,-0.427082896232605
1733767231031146800,9.736146728515624,-1.4966343641281128,-2.4347736835479736,-1.0194425582885742
1733767231041106700,9.746106689453125,-1.3580020666122437,-0.8168517351150513,-1.6238430738449097
1733767231051066600,9.756066650390625,-1.055351734161377,0.4475119113922119,-2.1371076107025146
1733767231061026600,9.766026611328124,-0.6433443427085876,1.5111727714538574,-2.4653663635253906
1733767231070986800,9.77598681640625,-0.2496839165687561,2.336367130279541,-2.632288694381714
1733767231080946700,9.78594677734375,-0.10491491854190826,2.993133068084717,-2.667757272720337
1733767231090906600,9.79590673828125,-0.13524964451789856,3.420494556427002,-2.6196229457855225
1733767231100866800,9.80586669921875,-0.2782396674156189,3.596813440322876,-2.550711154937744
1733767231110826800,9.81582666015625,-0.3951992988586426,3.672642946243286,-2.4856178760528564
1733767231120786700,9.82578662109375,-0.45112746953964233,3.6489617824554443,-2.4219837188720703
1733767231130746600,9.83574658203125,-0.4120069444179535,3.4031736850738525,-2.318413496017456
1733767231140706800,9.845706787109375,-0.27176719903945923,3.046557664871216,-2.172783851623535
1733767231150666800,9.855666748046875,-0.11618532240390778,2.5664851665496826,-2.0260512828826904
1733767231160626700,9.865626708984376,-0.01144485641270876,1.9478139877319336,-1.89198899269104
1733767231170586600,9.875586669921875,0.02913026697933674,1.2692070007324219,-1.7325807809829712
1733767231180546800,9.885546875,0.0859709158539772,0.5069612860679626,-1.5174660682678223
1733767231190506800,9.8955068359375,0.11769608408212662,-0.2835538983345032,-1.3056179285049438
1733767231200466700,9.905466796875,0.06540235131978989,-0.962394118309021,-1.0676867961883545
1733767231210426600,9.915426513671875,0.006818398367613554,-1.5229707956314087,-0.7751731872558594
1733767231220386800,9.92538671875,-0.06161954626441002,-1.9189262390136719,-0.4552007019519806
1733767231230346800,9.9353466796875,-0.13326603174209595,-2.0757648944854736,-0.1541292667388916
1733767231240306700,9.945306640625,-0.13366255164146423,-2.146723508834839,0.08470965921878815
1733767231250267000,9.955266845703125,-0.06023441255092621,-2.111220359802246,0.21778355538845062
1733767231260226800,9.965226806640626,0.08190812170505524,-2.0334384441375732,0.2856309413909912
1733767231270186800,9.975186767578125,0.25153255462646484,-1.9289262294769287,0.3446684181690216
1733767231280146700,9.985146728515625,0.3804953694343567,-1.7502249479293823,0.419506698846817
1733767231290107000,9.99510693359375,0.4630506932735443,-1.4945729970932007,0.466095507144928
1733767231300066800,10.00506689453125,0.5032007098197937,-1.2072972059249878,0.431221067905426
1733767231310026800,10.01502685546875,0.5005940198898315,-0.9641395211219788,0.28207898139953613
1733767231319986700,10.024986572265625,0.47527608275413513,-0.7538067698478699,-0.016997946426272392
1733767231329947000,10.03494677734375,0.4235990345478058,-0.46386468410491943,-0.4188942611217499
1733767231339906800,10.04490673828125,0.39099225401878357,-0.03302353620529175,-0.8175258636474609
1733767231349867500,10.054867431640625,0.3042999505996704,0.869283139705658,-1.1254721879959106
1733767231359827700,10.06482763671875,0.12637066841125488,1.8080343008041382,-1.359053373336792
1733767231369787600,10.07478759765625,-0.06909416615962982,2.405999183654785,-1.4643244743347168
1733767231379747600,10.08474755859375,-0.194881409406662,2.554501533508301,-1.5336809158325195
1733767231389707500,10.09470751953125,-0.23737800121307373,2.597306728363037,-1.9082281589508057
1733767231399667200,10.104667236328124,-0.42805448174476624,2.675668239593506,-2.426405429840088
1733767231409627100,10.114627197265625,-0.8111225366592407,2.5791966915130615,-2.518303155899048
1733767231419587300,10.12458740234375,-1.0590232610702515,2.242422103881836,-2.0928218364715576
1733767231429547300,10.13454736328125,-1.0373033285140991,1.8077913522720337,-1.5196282863616943
1733767231439507200,10.144507080078125,-0.8728358149528503,1.3988304138183594,-1.2374142408370972
1733767231449467400,10.15446728515625,-0.7213575839996338,1.1900827884674072,-1.3030897378921509
1733767231459427300,10.16442724609375,-0.6185311079025269,1.0765324831008911,-1.432966947555542
1733767231469387300,10.17438720703125,-0.45106491446495056,0.8231460452079773,-1.3159615993499756
1733767231479347200,10.18434716796875,-0.11351902782917023,0.44102486968040466,-0.8585258722305298
1733767231489307400,10.194307373046875,0.19898614287376404,0.11113857477903366,-0.36547836661338806
1733767231499267300,10.204267333984374,0.33682021498680115,-0.040698446333408356,-0.07167164236307144
1733767231509227300,10.214227294921875,0.4991564154624939,-0.05843137204647064,0.23317667841911316
1733767231519187200,10.224187255859375,0.6792097091674805,-0.0005376031622290611,0.8981528282165527
1733767231529147400,10.2341474609375,0.8071750998497009,-0.054393380880355835,2.190666675567627
1733767231539107300,10.244107421875,0.9564716219902039,-0.48228442668914795,3.6174678802490234
1733767231549067300,10.2540673828125,1.1833231449127197,-0.9318957924842834,4.685332775115967
1733767231559027200,10.264027099609375,1.5000813007354736,-1.2060954570770264,5.239376068115234
1733767231568987400,10.2739873046875,1.717172384262085,-1.3512520790100098,5.422417163848877
1733767231578947300,10.283947265625,1.7318401336669922,-1.5838255882263184,5.520301818847656
1733767231588907300,10.2939072265625,1.2939735651016235,-1.6387945413589478,5.526961803436279
1733767231598867500,10.303867431640626,0.555757999420166,-1.9625108242034912,5.32041597366333
1733767231608827400,10.313827392578125,-0.11623688042163849,-2.142850637435913,4.694363117218018
1733767231618787300,10.323787353515625,-0.4447516202926636,-1.9986553192138672,3.775909662246704
1733767231628747300,10.333747314453126,-0.3399738073348999,-1.3152549266815186,2.7554759979248047
1733767231638707500,10.34370751953125,0.09573552012443542,-0.6084250211715698,2.020143747329712
1733767231648667400,10.35366748046875,0.5324718356132507,-0.2500860393047333,1.674918293952942
1733767231658627300,10.36362744140625,0.672640860080719,-0.28150486946105957,1.7230618000030518
1733767231668587300,10.373587158203126,0.5412298440933228,-0.37869346141815186,1.9539848566055298
1733767231678547500,10.38354736328125,0.2922837436199188,-0.41470199823379517,2.0986058712005615
1733767231688507400,10.39350732421875,0.13737590610980988,-0.6097649931907654,1.9822826385498047
1733767231698467300,10.40346728515625,0.06461948901414871,-0.7956052422523499,1.7867586612701416
1733767231708427300,10.41342724609375,0.00936022587120533,-0.6876950263977051,1.6641960144042969
1733767231718387500,10.423387451171875,-0.029731301590800285,-0.5020740032196045,1.5246610641479492
1733767231728347400,10.433347412109375,-0.08104003220796585,-0.12038545310497284,1.2064236402511597
1733767231738307300,10.443307373046874,-0.008192455396056175,0.38282492756843567,0.527279257774353
1733767231748267500,10.453267578125,0.1485803723335266,0.9783067107200623,0.0137205570936203
1733767231758227500,10.4632275390625,0.3826645314693451,1.3750543594360352,-0.21415765583515167
1733767231768187400,10.4731875,0.6872609257698059,1.4563101530075073,-0.25408270955085754
1733767231778147300,10.483147216796874,1.054216980934143,1.196104884147644,-0.2464023381471634
1733767231788107500,10.493107421875,1.3163005113601685,0.9732834696769714,-0.2600608766078949
1733767231798067500,10.5030673828125,1.3395968675613403,0.8798871636390686,-0.24053987860679626
1733767231808027400,10.51302734375,1.1674991846084595,0.6735409498214722,-0.1085251197218895
1733767231817987300,10.5229873046875,0.8431798219680786,0.4570043683052063,0.1025516614317894
1733767231827947300,10.532947265625,0.6348947882652283,0.1562304049730301,0.24865959584712982
1733767231837907200,10.5429072265625,0.6286268830299377,-0.20038947463035583,0.3168298304080963
1733767231847867100,10.5528671875,0.6758772134780884,-0.4732729494571686,0.2846372723579407
1733767231857827300,10.562827392578125,0.636090874671936,-0.5373226404190063,0.19081120193004608
1733767231867787300,10.572787353515626,0.5023261904716492,-0.47138917446136475,0.008661912754178047
1733767231877747200,10.582747314453124,0.31790804862976074,-0.4198659658432007,-0.257473886013031
1733767231887707100,10.59270703125,0.10149050503969193,-0.34293416142463684,-0.5570196509361267
1733767231897667300,10.602667236328125,-0.10647934675216675,-0.3431945741176605,-0.8504882454872131
1733767231907627300,10.612627197265626,-0.26533105969429016,-0.3809337019920349,-1.0650527477264404
1733767231917587200,10.622587158203125,-0.38713538646698,-0.36694857478141785,-1.1835614442825317
1733767231927547100,10.632547119140625,-0.5208125114440918,-0.38048064708709717,-1.180627465248108
1733767231937507300,10.64250732421875,-0.5875067114830017,-0.3231346309185028,-0.9427896738052368
1733767231947467300,10.65246728515625,-0.5234499573707581,-0.13943590223789215,-0.5032812356948853
1733767231957427200,10.66242724609375,-0.3031880259513855,-0.010435747914016247,-0.07720264047384262
1733767231967387100,10.67238720703125,-0.09674486517906189,-0.49972769618034363,-0.05835118889808655
1733767231977347300,10.682347412109374,0.020450398325920105,-1.269966959953308,-0.23876336216926575
1733767231987307300,10.692307373046875,0.11206686496734619,-1.7247259616851807,-0.29725438356399536
1733767231997267200,10.70226708984375,0.23125576972961426,-1.6293162107467651,-0.20371364057064056
1733767232007227400,10.712227294921876,0.3870410919189453,-1.1322331428527832,-0.08999214321374893
1733767232017187300,10.722187255859374,0.5422831177711487,-0.5508466958999634,-0.04911680892109871
1733767232027147300,10.732147216796875,0.6469227075576782,-0.18227161467075348,-0.1080043613910675
1733767232037107200,10.742107177734376,0.6820862889289856,-0.09854915738105774,-0.24256141483783722
1733767232047067400,10.7520673828125,0.6663792133331299,-0.23522764444351196,-0.4047015905380249
1733767232057027300,10.76202734375,0.5914589762687683,-0.48611244559288025,-0.5221289992332458
1733767232066987300,10.7719873046875,0.4207431375980377,-0.7626925706863403,-0.5621653199195862
1733767232076947200,10.781947265625,0.12236712872982025,-0.8885405659675598,-0.5804207921028137
1733767232086907400,10.791907470703125,-0.2083764374256134,-0.6170365810394287,-0.5922406911849976
1733767232096867300,10.801867431640625,-0.4786534309387207,0.11031071096658707,-0.5522735714912415
1733767232106827300,10.8118271484375,-0.7333493828773499,1.4241093397140503,-0.5987004637718201
1733767232116787200,10.821787109375,-0.8490278124809265,3.2062790393829346,-0.9701858162879944
1733767232126747400,10.831747314453125,-0.5057213306427002,4.937293529510498,-1.2576558589935303
1733767232136707300,10.841707275390625,0.26089149713516235,5.271114826202393,-1.4399694204330444
1733767232146667300,10.851667236328124,1.2524750232696533,4.526899337768555,-1.038233757019043
1733767232156627500,10.86162744140625,1.7592589855194092,3.4928767681121826,-0.11923380196094513
1733767232166587400,10.87158740234375,1.604602575302124,2.0191521644592285,0.7647830843925476
1733767232176547300,10.88154736328125,0.8450376987457275,0.08022231608629227,1.2267448902130127
1733767232186507300,10.89150732421875,-0.11876823753118515,-1.9428801536560059,1.2664902210235596
1733767232196467500,10.901467529296875,-0.9265609979629517,-3.614593505859375,1.1600755453109741
1733767232206427400,10.911427490234376,-1.3758693933486938,-4.3528361320495605,1.0339794158935547
1733767232216387300,10.92138720703125,-1.7454792261123657,-4.372992992401123,0.8308563232421875
1733767232226347300,10.93134716796875,-2.1142497062683105,-4.0921854972839355,0.5185157060623169
1733767232236307500,10.941307373046875,-2.3427841663360596,-3.907367706298828,0.05051281675696373
1733767232246267400,10.951267333984376,-2.2947239875793457,-3.385747194290161,-0.4587743878364563
1733767232256227300,10.961227294921875,-1.9797797203063965,-3.210759162902832,-1.0492956638336182
1733767232266187300,10.971187255859375,-1.537705659866333,-3.178990602493286,-1.6265429258346558
1733767232276148200,10.981148193359376,-1.0534030199050903,-2.936002254486084,-2.044711112976074
1733767232286108200,10.991108154296874,-0.7688515186309814,-1.8184558153152466,-2.6172165870666504
1733767232296068000,11.001068115234375,-0.6346577405929565,0.33001509308815,-3.3217666149139404
1733767232306028300,11.0110283203125,-0.5369740724563599,2.446953535079956,-3.648120641708374
1733767232315988200,11.02098828125,-0.3468972444534302,3.848475217819214,-3.4488232135772705
1733767232325948200,11.0309482421875,-0.2160191535949707,4.513383388519287,-2.9831204414367676
1733767232335908400,11.040908447265625,-0.2059006243944168,4.515700340270996,-2.4638781547546387
1733767232345868300,11.050868408203126,-0.1992054432630539,4.144779205322266,-2.028186321258545
1733767232355828200,11.060828125,-0.10898389667272568,3.699099063873291,-1.7832634449005127
1733767232365788200,11.0707880859375,0.00330855930224061,3.320002317428589,-1.7495895624160767
1733767232375748400,11.080748291015626,0.10583992302417755,2.841715097427368,-1.8313472270965576
1733767232385708300,11.090708251953124,0.16046029329299927,2.1464695930480957,-1.857321858406067
1733767232395668700,11.100668701171875,0.19606374204158783,1.1641212701797485,-1.8290611505508423
1733767232405629000,11.11062890625,0.20528972148895264,0.02727590501308441,-1.7116138935089111
1733767232415588900,11.1205888671875,0.16184155642986298,-0.9681897759437561,-1.5141996145248413
1733767232425548800,11.130548828125,0.08943606168031693,-1.522537350654602,-1.3074924945831299
1733767232435508700,11.1405087890625,0.04351109266281128,-1.6819270849227905,-1.0721654891967773
1733767232445469000,11.150468994140626,0.02294669672846794,-1.5787508487701416,-0.7723066210746765
1733767232455428900,11.160428955078125,0.061744268983602524,-1.3728545904159546,-0.4504249393939972
1733767232465388800,11.170388916015625,0.13522301614284515,-1.1386592388153076,-0.16533832252025604
1733767232475348700,11.1803486328125,0.18577875196933746,-0.7866922616958618,0.033170148730278015
1733767232485309000,11.190308837890624,0.1978737711906433,-0.42041015625,0.13562674820423126
1733767232495268900,11.200268798828125,0.1520812213420868,-0.09095700085163116,0.13345764577388763
1733767232505228800,11.210228759765625,0.04153021052479744,0.18817636370658875,0.06535955518484116
1733767232515188700,11.220188720703124,-0.1285722553730011,0.35509034991264343,-0.026120338588953018
1733767232525149000,11.23014892578125,-0.30508044362068176,0.3586110472679138,-0.1638776659965515
1733767232535108900,11.24010888671875,-0.4224405288696289,0.33955591917037964,-0.35481908917427063
1733767232545068800,11.25006884765625,-0.46074557304382324,0.39552250504493713,-0.580108106136322
1733767232555029000,11.260029052734374,-0.5051466226577759,0.5077287554740906,-0.806343674659729
1733767232564989000,11.269989013671875,-0.5847015976905823,0.6840568780899048,-0.9817607402801514
1733767232574948900,11.279948974609376,-0.7219939827919006,0.8157740831375122,-0.9994904398918152
1733767232584908800,11.28990869140625,-0.8236202001571655,0.8197329044342041,-0.7594879865646362
1733767232594869000,11.299868896484375,-0.8956558108329773,0.6768912076950073,-0.4028935730457306
1733767232604829000,11.309828857421875,-0.8889350891113281,0.47029221057891846,-0.1707223802804947
1733767232614788900,11.319788818359376,-0.8146303296089172,0.34176063537597656,-0.18670102953910828
1733767232624748800,11.329748779296875,-0.693981409072876,0.3853459358215332,-0.4310615062713623
1733767232634709000,11.339708984375,-0.5246858596801758,0.4828786849975586,-0.7595206499099731
1733767232644669000,11.3496689453125,-0.34400659799575806,0.5041248202323914,-1.0062153339385986
1733767232654628900,11.35962890625,-0.2043132483959198,0.4206809401512146,-1.0612694025039673
1733767232664589000,11.369589111328125,-0.07954440265893936,0.36750054359436035,-0.8805667757987976
1733767232674549000,11.379549072265625,0.036541227251291275,0.46038395166397095,-0.7404781579971313
1733767232684509000,11.389509033203124,0.06701710820198059,0.8279083967208862,-0.9123681783676147
1733767232694468900,11.39946875,0.0006071836687624454,1.4273896217346191,-1.206691861152649
1733767232704428800,11.4094287109375,-0.08746648579835892,1.9933124780654907,-1.3211990594863892
1733767232714388700,11.419388671875,-0.1373872607946396,2.620497226715088,-0.6276031136512756
1733767232724348700,11.4293486328125,0.06996886432170868,2.9552974700927734,1.3563059568405151
1733767232734308600,11.43930859375,0.5010029673576355,1.7018072605133057,3.497986078262329
1733767232744268800,11.449268798828125,1.0012212991714478,-0.481542706489563,4.933464050292969
1733767232754228700,11.459228759765624,1.4958114624023438,-2.366445302963257,5.408839225769043
1733767232764188700,11.469188720703125,1.8376688957214355,-3.587614059448242,5.240505695343018
1733767232774148600,11.479148681640625,1.86252760887146,-4.312009811401367,4.959672451019287
1733767232784108800,11.48910888671875,1.6917178630828857,-4.948365211486816,4.876686096191406
1733767232794068700,11.49906884765625,1.3022924661636353,-5.671314716339111,4.941819190979004
1733767232804028700,11.509028564453125,0.792313277721405,-6.111563682556152,4.97318696975708
1733767232813988900,11.51898876953125,0.3739931583404541,-5.881302356719971,4.890058517456055
1733767232823948800,11.52894873046875,0.20998239517211914,-4.774191379547119,4.4550580978393555
1733767232833908700,11.53890869140625,0.2851669490337372,-3.780437707901001,3.2840445041656494
1733767232843868700,11.54886865234375,0.6018207669258118,-3.109933614730835,2.1906588077545166
1733767232853828900,11.558828857421876,0.9995555877685547,-2.4406118392944336,1.6794427633285522
1733767232863788800,11.568788818359375,1.1827155351638794,-1.7569960355758667,1.6454826593399048
1733767232873748700,11.578748779296875,1.1117873191833496,-1.2095234394073486,1.7250972986221313
1733767232883708700,11.588708740234376,0.9332688450813293,-0.909002959728241,1.7033954858779907
1733767232893668900,11.5986689453125,0.675687849521637,-0.2698843777179718,1.4866220951080322
1733767232903628800,11.60862890625,0.5603953003883362,0.7881383895874023,1.0630398988723755
1733767232913588700,11.618588623046875,0.6823477745056152,1.5312440395355225,0.6479371786117554
1733767232923548700,11.628548583984376,0.9297365546226501,1.8228037357330322,0.34415706992149353
1733767232933508900,11.6385087890625,1.1852989196777344,1.787580966949463,0.14050866663455963
1733767232943468800,11.64846875,1.339768409729004,1.692025899887085,0.027658015489578247
1733767232953428700,11.6584287109375,1.4042675495147705,1.6025060415267944,-0.08129657059907913
1733767232963389000,11.668388916015624,1.4437979459762573,1.3401122093200684,-0.23302724957466125
1733767232973348900,11.678348876953125,1.4085077047348022,0.9257148504257202,-0.3360126316547394
1733767232983308800,11.688308837890625,1.350633978843689,0.5568334460258484,-0.3414177894592285
1733767232993268700,11.698268798828124,1.3141379356384277,0.21797369420528412,-0.3148578703403473
1733767233003229000,11.70822900390625,1.309874176979065,-0.13160854578018188,-0.24244464933872223
1733767233013188900,11.71818896484375,1.2628517150878906,-0.2609347105026245,-0.13509684801101685
1733767233023148800,11.728148681640626,1.1201534271240234,-0.2831004559993744,-0.018336137756705284
1733767233033108700,11.738108642578124,0.886705219745636,-0.3602229058742523,0.0769716277718544
1733767233043069000,11.74806884765625,0.6056780815124512,-0.5349311232566833,0.1065838485956192
1733767233053028900,11.75802880859375,0.34457215666770935,-0.8579321503639221,0.022817540913820267
1733767233062988800,11.76798876953125,0.1518906056880951,-1.2624516487121582,-0.1642839014530182
1733767233072948700,11.77794873046875,0.008137787692248821,-1.5864672660827637,-0.4121604561805725
1733767233082909000,11.787908935546875,-0.14084184169769287,-1.8143627643585205,-0.6622390151023865
1733767233092868900,11.797868896484376,-0.3121531009674072,-2.1171436309814453,-0.7888721823692322
1733767233102828800,11.807828857421875,-0.4675525426864624,-2.359360694885254,-0.8218053579330444
1733767233112789000,11.8177890625,-0.5615618228912354,-2.447187662124634,-0.8118936419487
1733767233122749000,11.8277490234375,-0.614551842212677,-2.3802428245544434,-0.8355824947357178
1733767233132708900,11.837708984375,-0.6865082383155823,-2.118009090423584,-0.8938324451446533
1733767233142668800,11.847668701171875,-0.7675663828849792,-1.658799648284912,-0.9566521048545837
1733767233152629800,11.857629638671876,-0.7907185554504395,-0.9476268887519836,-1.0370514392852783
1733767233162589700,11.867589599609374,-0.6366312503814697,-0.03526599705219269,-1.046060562133789
1733767233172549600,11.877549560546875,-0.35023343563079834,0.35721996426582336,-1.0586845874786377
1733767233182509800,11.887509765625,-0.11973629146814346,0.14524781703948975,-0.9217177033424377
1733767233192469800,11.8974697265625,-0.04113155975937843,-0.20206275582313538,-0.5863121151924133
1733767233202429700,11.9074296875,-0.0027415608055889606,-0.3368951380252838,-0.17201215028762817
1733767233212389600,11.9173896484375,0.11525491625070572,-0.1899542510509491,0.09808121621608734
1733767233222349800,11.927349853515626,0.32960742712020874,-0.07306944578886032,0.05663124471902847
1733767233232309800,11.937309814453124,0.5379152894020081,-0.37962526082992554,-0.1893208920955658
1733767233242269700,11.947269775390625,0.6398153305053711,-0.9186727404594421,-0.35728299617767334
1733767233252229600,11.957229736328125,0.6625546813011169,-1.203525185585022,-0.3307674527168274
1733767233262189800,11.96718994140625,0.6157493591308594,-1.0810655355453491,-0.21286799013614655
1733767233272149800,11.977149658203125,0.535597026348114,-0.8303187489509583,-0.22037744522094727
1733767233282109700,11.987109619140625,0.31028512120246887,-0.4885110557079315,-0.38052210211753845
1733767233292070000,11.99706982421875,-0.09019917249679565,-0.01827506721019745,-0.5183326601982117
1733767233302029800,12.00702978515625,-0.3360576927661896,0.7311765551567078,-0.4200708568096161
1733767233311989800,12.01698974609375,-0.23104402422904968,1.6673909425735474,-0.09616386890411377
1733767233321949700,12.02694970703125,-0.32671117782592773,1.8922107219696045,-0.5921944379806519
1733767233331910000,12.036909912109374,-0.5671929717063904,1.887899398803711,-0.7146362662315369
1733767233341869800,12.046869873046875,-0.28513357043266296,1.9399935007095337,0.15642057359218597
1733767233351829800,12.056829833984375,0.40773284435272217,1.2576894760131836,1.4135302305221558
1733767233361789700,12.066789794921876,0.761610746383667,-0.1600370556116104,2.0257492065429688
1733767233371750000,12.07675,0.5385144948959351,-1.9578723907470703,1.8488354682922363
1733767233381709800,12.086709716796875,-0.08170187473297119,-3.718212842941284,1.0972074270248413
1733767233391669800,12.096669677734376,-0.658519446849823,-4.823031425476074,0.20267227292060852
1733767233401629400,12.10662939453125,-0.8834732174873352,-5.073126792907715,-0.1968357115983963
1733767233411589400,12.11658935546875,-0.8907644748687744,-4.688647747039795,-0.1220603659749031
1733767233421549600,12.126549560546875,-0.845900297164917,-4.173640727996826,-0.04626360535621643
1733767233431509500,12.136509521484374,-0.8016714453697205,-3.6534903049468994,-0.13428115844726562
1733767233441469400,12.146469482421875,-0.7557657361030579,-3.3530538082122803,-0.3303140699863434
1733767233451429400,12.156429443359375,-0.7762877941131592,-3.094139814376831,-0.6552740335464478
1733767233461389600,12.1663896484375,-0.7756928205490112,-2.70835542678833,-1.061991572380066
1733767233471349500,12.176349609375,-0.8000140190124512,-1.8293750286102295,-1.5233182907104492
1733767233481309400,12.186309326171875,-0.8530657887458801,-0.29096272587776184,-1.9613078832626343
1733767233491269600,12.19626953125,-0.6855791807174683,1.3411552906036377,-2.3281285762786865
1733767233501229600,12.2062294921875,-0.2734752595424652,2.598024606704712,-2.5657236576080322
1733767233511189500,12.216189453125,0.20344120264053345,3.633162021636963,-2.642531156539917
1733767233521149400,12.2261494140625,0.48383158445358276,4.348851680755615,-2.672739028930664
1733767233531109600,12.236109619140626,0.3918413519859314,4.830145835876465,-2.6368119716644287
1733767233541069600,12.246069580078125,0.15648339688777924,4.981841564178467,-2.5562217235565186
1733767233551029500,12.256029541015625,-0.007725918665528297,4.784702301025391,-2.523810863494873
1733767233560989400,12.265989501953126,-0.1472795456647873,4.312334060668945,-2.525850772857666
1733767233570949600,12.27594970703125,-0.31019654870033264,3.622213125228882,-2.575908899307251
1733767233580909600,12.28590966796875,-0.4906962811946869,2.7532219886779785,-2.5888195037841797
1733767233590869500,12.295869384765625,-0.6372795701026917,1.873752474784851,-2.472928047180176
1733767233600829400,12.305829345703126,-0.6905989646911621,0.9710462689399719,-2.187138557434082
1733767233610789600,12.31578955078125,-0.6447116136550903,0.12599492073059082,-1.764339804649353
1733767233620749600,12.32574951171875,-0.4969128668308258,-0.5733786225318909,-1.3134959936141968
1733767233630709500,12.33570947265625,-0.2985481917858124,-1.161602258682251,-0.9353945255279541
1733767233640669700,12.345669677734374,-0.13869965076446533,-1.5596632957458496,-0.6317238807678223
1733767233650629600,12.355629638671875,-0.03649815171957016,-1.6978033781051636,-0.35674911737442017
1733767233660589600,12.365589599609375,0.03572385013103485,-1.6096549034118652,-0.06786244362592697
1733767233670549500,12.375549560546874,0.10106432437896729,-1.3782784938812256,0.27562952041625977
1733767233680509400,12.385509521484375,0.20364822447299957,-1.1258068084716797,0.6813327670097351
1733767233690469400,12.395469482421875,0.32010895013809204,-0.9218211770057678,1.0759354829788208
1733767233700429300,12.40542919921875,0.4520166516304016,-0.8081388473510742,1.3682658672332764
1733767233710389200,12.41538916015625,0.5886922478675842,-0.7438223958015442,1.4535338878631592
1733767233720349400,12.425349365234375,0.6862728595733643,-0.6844600439071655,1.3139396905899048
1733767233730309400,12.435309326171875,0.7054977416992188,-0.6833734512329102,0.9421905875205994
