time,seconds_elapsed,z,y,x
1733767221340066800,0.04506689453125,0.244055570731312,-0.09665361706912518,-0.17261464778669178
1733767221350026800,0.05502685546875,-0.002002279733121395,-0.09070610684156417,-0.33280784009136255
1733767221359986700,0.064986572265625,-0.21324176866412162,-0.1446580617815256,-0.41099633760005233
1733767221369945900,0.07494580078125,-0.05122106867134571,-0.13691431578695773,-0.3981719273403287
1733767221379905800,0.08490576171875,0.19600421813726424,-0.07105331186652183,-0.35914603111445903
1733767221389865000,0.094864990234375,0.3680643738463521,-0.04535831411778927,-0.33267318086102604
1733767221399825000,0.104824951171875,0.41378918318897484,-0.012367314141988753,-0.4010978977896273
1733767221409784800,0.114784912109375,0.3536553247436881,0.052530982226133345,-0.5531908588122576
1733767221419744800,0.124744873046875,0.26965251493304965,0.1238356385052204,-0.7547229004602879
1733767221429705000,0.134705078125,0.27184958658590913,0.12070201665461062,-0.8686565920237451
1733767221439665000,0.144664794921875,0.287897196675837,0.04411386701464653,-0.8470073625344783
1733767221449624800,0.154624755859375,0.22916882111430167,0.010574000984430312,-0.760666976621747
1733767221459584800,0.164584716796875,0.08098565394654869,0.005706687209010124,-0.6066636519331484
1733767221469545000,0.174544921875,-0.16341361565589904,-0.042667759859561914,-0.4313488052770495
1733767221479505000,0.1845048828125,-0.4930862995266914,-0.09064005586802959,-0.2554196991801262
1733767221489464800,0.19446484375,-0.8989530191533267,-0.1690267793625593,-0.13249511110521853
1733767221499423700,0.204423828125,-1.191951484490931,-0.19759937837421893,-0.06046309039965272
1733767221509384000,0.214384033203125,-1.2703566204249859,-0.20852701510190963,-0.05036562088578939
1733767221519343900,0.22434375,-1.1784240405283868,-0.27176059312820433,-0.05367145749814808
1733767221529303800,0.2343037109375,-1.041949869724363,-0.32212650627493855,-0.041600788215175266
1733767221539263700,0.244263671875,-0.9576688274942338,-0.3272130157589912,0.00418568818680942
1733767221549224000,0.254223876953125,-0.9282353738695382,-0.34095687895119187,0.1210731880545616
1733767221559184000,0.264183837890625,-0.9969435839146376,-0.3433423127830028,0.28495325217843054
1733767221569143800,0.274143798828125,-1.143713961675018,-0.3221457954972982,0.5090615019675344
1733767221579103700,0.284103759765625,-1.2894377529919148,-0.31554362075328823,0.7190332359850407
1733767221589064000,0.29406396484375,-1.323534960643947,-0.25538521238863465,0.873418764924258
1733767221599023900,0.30402392578125,-1.1832353863328695,-0.1762824495792389,0.9281459420204162
1733767221608983800,0.31398388671875,-0.9179961577974259,-0.08954933802187443,0.8056017315652221
1733767221618943700,0.32394384765625,-0.6369020652651787,0.020775077003240584,0.43115854340195653
1733767221628903000,0.33390283203125,-0.3993712201274931,0.0912450360238552,-0.026920667086169123
1733767221638862800,0.34386279296875,-0.1591441216431558,0.017336919248104096,-0.4792355418939143
1733767221648822800,0.35382275390625,0.13895970400944352,-0.26927228344380855,-0.768819376482442
1733767221658782700,0.36378271484375,0.5785458840169012,-0.46415363503098483,-0.8795158396903425
1733767221668743000,0.373742919921875,1.0953390762150288,-0.44117724859118457,-0.8705915786743164
1733767221678702800,0.383702880859375,1.476113001769781,-0.23109891239404676,-0.8135489642426371
1733767221688662800,0.393662841796875,1.6648137650258839,0.0950011736869812,-0.7048898520812392
1733767221698622700,0.403622802734375,1.6883132985569536,0.2996078004747629,-0.47729635399226095
1733767221708583000,0.4135830078125,1.652952062318474,0.4359685740321874,-0.16702831728802994
1733767221718542800,0.42354296875,1.569952730461955,0.4128577475577593,0.24368162285238504
1733767221728502800,0.433502685546875,1.3910242964185773,0.3123299194037914,0.7479796367451548
1733767221738463000,0.443462890625,1.1345846065409482,0.11136954016387463,1.2702329940453172
1733767221748423000,0.4534228515625,0.7905354606628417,-0.0877028333723545,1.7312810642763972
1733767221758382800,0.4633828125,0.34200784930884837,-0.23522154528200626,2.009939892485738
1733767221768341800,0.473341796875,-0.33307577031254765,-0.3619172493934631,2.018678786997497
1733767221778301700,0.4833017578125,-1.2359738738298416,-0.47189621198177334,1.7928379412621258
1733767221788262000,0.493261962890625,-2.2692636133670807,-0.5747568669974804,1.4395400516539811
1733767221798221800,0.503221923828125,-3.156723909255862,-0.526606876334548,1.0100187540650367
1733767221808181800,0.513181640625,-3.8567233589470384,-0.4107692508459091,0.6208806125298142
1733767221818141700,0.5231416015625,-4.199218114989995,-0.3766828568488359,0.30601474490761754
1733767221828102000,0.533101806640625,-3.8840719691216945,-0.45377369531393047,0.22155803558332846
1733767221838061800,0.543061767578125,-3.066138798445463,-0.4913900170028209,0.3158423114389181
1733767221848021800,0.553021728515625,-2.1100532946199175,-0.37786183750033375,0.38112230060100555
1733767221857982000,0.56298193359375,-1.2131738668702543,-0.19415654444396493,0.4469830122604966
1733767221867942000,0.57294189453125,-0.4695606086410582,0.08424421735107898,0.6108823656067252
1733767221877901800,0.58290185546875,0.18282500309050081,0.43785365712642665,1.0486457141011953
1733767221887861800,0.59286181640625,0.7669850737273692,0.7938555449962615,1.8038178926989434
1733767221897820700,0.602820556640625,1.372843035300821,0.9743179106086493,2.6417162853002547
1733767221907780900,0.61278076171875,1.931899790471792,0.8155793010264635,3.176414405892789
1733767221917740800,0.62274072265625,2.4491993247568606,0.48721477714478967,3.424467960219085
1733767221927700700,0.63270068359375,2.5537907490879297,0.1097930846273899,3.4640228487551212
1733767221937660700,0.64266064453125,2.3050727395035326,-0.34201720165908334,3.3801340207129713
1733767221947620900,0.652620849609375,2.139364729300141,-0.7200444588541984,3.0842715442463753
1733767221957580800,0.662580810546875,2.0376859775453804,-0.8247042722463608,2.644533973069489
1733767221967540700,0.672540771484375,1.8119395320951937,-0.7490215470135212,2.212444870819151
1733767221977501000,0.6825009765625,1.5401602342665195,-0.6207762753725051,1.7955565525710582
1733767221987460900,0.6924609375,1.1928221298456192,-0.44383565414547915,1.3768956716924905
1733767221997420800,0.7024208984375,0.7724877627968788,-0.26690263170301914,0.9284984087198972
1733767222007380700,0.712380615234375,0.23648118995428083,-0.08589023099243641,0.5071937353342771
1733767222017341000,0.7223408203125,-0.29142149834446607,-0.017232874351739882,0.1574278375108726
1733767222027300900,0.73230078125,-0.7243049658428877,-0.06392039124667644,-0.15188419537646694
1733767222037260800,0.7422607421875,-1.0606733479600399,-0.10978957749605178,-0.43914691180735826
1733767222047219700,0.7522197265625,-1.4300770806513725,-0.08718377793431281,-0.7188917816877365
1733767222057180000,0.762179931640625,-1.8235510594338178,-0.0764227299451828,-1.0363716312006115
1733767222067139800,0.772139892578125,-2.191135833069682,-0.10068155741095543,-1.474188463447988
1733767222077099800,0.782099853515625,-2.796014866608381,-0.12550386397838592,-1.8475956596270202
1733767222087059700,0.792059814453125,-3.604735972303152,-0.2243395012617111,-2.138285409630835
1733767222097020000,0.80202001953125,-4.404475899162888,-0.33895430695712564,-2.385198854011297
1733767222106979800,0.811979736328125,-5.200362657725811,-0.3320020036011934,-2.439086803804338
1733767222116939800,0.821939697265625,-6.041774903666973,-0.19100947858989237,-2.1624773093402383
1733767222126899700,0.831899658203125,-6.359450860273838,0.04838847559392452,-1.0006123355552554
1733767222136860000,0.84185986328125,-5.806055930256843,0.41414311119318004,0.607234620221518
1733767222146819800,0.85181982421875,-5.00436954550445,0.8395037819713353,2.063432120959461
1733767222156779800,0.86177978515625,-4.275229926046729,1.4853531238019466,3.6098014389991757
1733767222166739700,0.87173974609375,-3.5694951475739476,2.319607899203896,5.291733365955949
1733767222176700000,0.881699951171875,-3.0327900710731743,3.270826673775911,6.986264662244915
1733767222186659800,0.891659912109375,-2.9908272446125745,3.8804672226279973,8.603878138548135
1733767222196618800,0.90161865234375,-3.928407369932532,3.6839281669616697,9.874799407118559
1733767222206578700,0.91157861328125,-6.771775523868203,2.504895493015647,9.98740754916668
1733767222216539000,0.921538818359375,-9.525915826821327,1.1994435938119887,7.112734740906953
1733767222226498800,0.931498779296875,-9.37081761956811,0.41050621599555015,4.978120421004295
1733767222236458800,0.941458740234375,-7.92522951992154,0.750209880015254,3.678329324041307
1733767222246418700,0.951418701171875,-5.637295692875981,1.5762819334834812,2.638149532729387
1733767222256379000,0.96137890625,-3.2135113798826933,2.3238690637797115,2.0631579801931976
1733767222266338800,0.9713388671875,-1.3362396900467575,2.9278830049216746,2.052325036011636
1733767222276298800,0.981298828125,0.6625108460351824,3.6126188345074652,2.0911934035882354
1733767222286258700,0.9912587890625,2.4480016394048927,3.975333371758461,2.098289060937613
1733767222296219000,1.001218994140625,3.774731012175977,3.8171611638873815,2.4082626264736056
1733767222306178800,1.0111787109375,4.738108426575362,2.988114478522539,2.8320518101513383
1733767222316138800,1.021138671875,5.495941348814964,2.032815741160512,3.0843034006893633
1733767222326099000,1.031098876953125,6.19784341725707,1.1514075849175454,3.225697784499824
1733767222336059000,1.041058837890625,7.049228191158175,1.0049608861535786,3.214749689505994
1733767222346018800,1.051018798828125,7.667499790233373,1.3464999489068985,3.209108176487684
1733767222355977700,1.060977783203125,8.353853576409817,1.534461730363965,3.3208436273545026
1733767222365937700,1.070937744140625,8.127617301616072,1.0161235006809235,3.4691286474615333
1733767222375897900,1.08089794921875,7.33006991636455,-0.06091653325557708,3.4937171452730893
1733767222385858600,1.090858642578125,6.234800398254394,-1.0693933185756206,3.319052067762613
1733767222395818500,1.100818603515625,5.200153398889303,-1.405932965606451,2.916656969769299
1733767222405778700,1.11077880859375,4.386828014269471,-1.2283148835092783,2.4011235683739183
1733767222415738600,1.120738525390625,3.8702629317387935,-0.857677152043581,2.010720813730359
1733767222425698600,1.130698486328125,3.226037099456787,-0.5966939735174178,1.7061514453254638
1733767222435658500,1.140658447265625,2.4473510665416716,-0.4599392322063446,1.3801375762231647
1733767222445618700,1.15061865234375,1.6024404570907353,-0.42493046266734597,0.9939302274428308
1733767222455578600,1.16057861328125,0.7290124859467149,-0.3017828064262867,0.5802856768889353
1733767222465538600,1.17053857421875,-0.1438835702776909,-0.1576724416553974,0.12367299528941511
1733767222475498800,1.180498779296875,-0.610828589592874,-0.06241875451207161,-0.30885829777047036
1733767222485458700,1.190458740234375,-0.4791854922071099,0.2179214509129524,-0.6163631351053714
1733767222495418600,1.200418701171875,-0.021388824987411497,0.3116542120993137,-0.7024917048983276
1733767222505378600,1.210378662109375,0.7049240466117859,0.19181202714443205,-0.636991277918592
1733767222515338800,1.2203388671875,1.4213243037447332,-0.04503039733767509,-0.6103144295256584
1733767222525298700,1.230298583984375,2.0235361639007925,-0.2572352241694927,-0.6875675458803773
1733767222535258600,1.240258544921875,2.5577277962759135,-0.4014665849715471,-0.7859300126940012
1733767222545217500,1.250217529296875,2.9125486576676365,-0.6163175423979759,-0.8506682961948215
1733767222555177500,1.260177490234375,3.064971215970814,-0.848217834302783,-0.8450907152581959
1733767222565137700,1.2701376953125,3.1031375727578996,-0.8763935429513454,-0.7684882448319346
1733767222575097600,1.28009765625,2.939189704094827,-0.7537099970906972,-0.7094817099161446
1733767222585057500,1.2900576171875,2.5695295854896307,-0.5193284097641706,-0.7129398875460028
1733767222595017700,1.300017822265625,2.0244711066633463,-0.19073241521418094,-0.7436400731708854
1733767222604977700,1.309977783203125,1.2822709301024675,0.06852876182496548,-0.7747530773803591
1733767222614937600,1.3199375,0.2437482583478093,0.07236965516209602,-0.7871123543463647
1733767222624897500,1.3298974609375,-0.8443328095629811,-0.027650807991623876,-0.6479455834574998
1733767222634857700,1.339857666015625,-1.4064452990427612,-0.17245500024557112,-0.2239287102374248
1733767222644817700,1.349817626953125,-1.0492533246055245,-0.2717839740037918,0.3585874473836273
1733767222654777600,1.359777587890625,-0.14935761777460574,-0.32652795610427854,0.7228432957924902
1733767222664737500,1.369737548828125,0.7036392674982548,-0.428287371879816,0.9165771578449755
1733767222674697700,1.37969775390625,1.335631641151011,-0.5468471158087254,0.9555427752509713
1733767222684657700,1.38965771484375,1.7975313597753644,-0.633109687244892,0.9598862112827599
1733767222694617600,1.39961767578125,2.1792247382625938,-0.8375362812906503,0.8671296016521751
1733767222704577500,1.40957763671875,2.48007581679672,-1.0659563298642634,0.6494432746693491
1733767222714537700,1.419537841796875,2.5926164465665815,-1.1039157659024,0.5136855815716087
1733767222724497700,1.42949755859375,2.467723992484808,-1.1580863320291042,0.41336398004684594
1733767222734457600,1.43945751953125,2.152495429030061,-1.0014531702935696,0.4315216776259243
1733767222744417800,1.449417724609375,1.6166063450872896,-0.7074480121314525,0.36445860443934797
1733767222754377700,1.459377685546875,0.7501458748683333,-0.4205857114613056,0.14490966192241758
1733767222764336600,1.469336669921875,-1.1439864950060843,0.36196167305707927,-0.3906017843469977
1733767222774296600,1.479296630859375,-4.456186797177791,1.495419759786129,-1.1656626125022769
1733767222784256500,1.489256591796875,-8.040621739730238,1.7336802343726156,-1.6466633374378083
1733767222794216700,1.499216796875,-5.522075322502851,1.337272686356306,-1.3531632061883807
1733767222804176600,1.5091767578125,1.432246387514472,1.7952496785789727,-1.3606427482888102
1733767222814136600,1.519136474609375,4.5950189292848105,2.3228671932607887,-1.5989584601938724
1733767222824096500,1.529096435546875,6.371200919300318,3.087478523594141,-1.8350909828409552
1733767222834056700,1.539056640625,7.71332981351614,4.772523614135384,-2.7544728959083558
1733767222844016600,1.5490166015625,8.10365658031404,6.8554656144678585,-3.840175544250011
1733767222853976600,1.5589765625,6.76771601934433,7.840832742357254,-3.937527372716367
1733767222863936800,1.568936767578125,4.243426674550771,5.215858917543292,-2.4414389198884368
1733767222873896700,1.578896728515625,3.4136870384857056,0.8071095788449049,-0.5801707087397575
1733767222883856600,1.588856689453125,3.4601720185458658,-1.0818529871761797,0.02910772880166769
1733767222893816600,1.598816650390625,3.213991272354126,-2.1109026049256325,0.5322460512652993
1733767222903776800,1.60877685546875,2.9299346767544745,-2.47074070995748,1.2346180753067135
1733767222913736700,1.61873681640625,3.2062828899338838,-1.8859663068145514,1.7631968362361192
1733767222923696600,1.628696533203125,3.8037346960812806,-0.5640612854599952,2.225869585059583
1733767222933656600,1.638656494140625,4.205966420206427,0.8196393900722265,3.0388273054108024
1733767222943616500,1.648616455078125,4.409640150058269,1.4709183557361363,4.190407324285805
1733767222953576400,1.658576416015625,4.067686661285162,1.5653776776313781,4.908877957952022
1733767222963536400,1.668536376953125,2.8337527688503266,1.645769311207533,5.011801741331816
1733767222973496600,1.67849658203125,1.5168242207340896,0.982803999403119,4.709128415806592
1733767222983456500,1.68845654296875,0.74037003852427,0.33444939675331115,3.9397570314645765
1733767222993416400,1.69841650390625,0.2952589576154947,0.23160218574106692,3.15554346729964
1733767223003376400,1.70837646484375,-0.08617255506515502,0.07357844642996787,2.6339842297434806
1733767223013336600,1.718336669921875,-0.43831484489738937,-0.27064766345024105,2.161782312813401
1733767223023296500,1.728296630859375,-0.753649937466532,-0.3435907345861196,1.519465236762166
1733767223033256400,1.73825634765625,-1.0020949753284454,-0.09600479777157306,0.7658785737901925
1733767223043216400,1.74821630859375,-1.0364711460523306,0.2688426598548889,0.14619827696084975
1733767223053176600,1.758176513671875,-0.9525183128632605,0.4927098674297333,-0.29796032552868124
1733767223063136500,1.768136474609375,-0.8353396480292081,0.3764695063591003,-0.571532936514914
1733767223073096400,1.778096435546875,-0.6654827014528214,0.1640337933808565,-0.6872793765887618
1733767223083055600,1.7880556640625,-0.4757857667662203,0.026034604966640472,-0.7154977553352713
1733767223093015600,1.798015625,-0.31875023477487263,-0.21738369077444075,-0.4186091506913304
1733767223102975500,1.8079755859375,-0.12265709624513983,-0.4744833058655262,0.028525818994175643
1733767223112935400,1.817935302734375,0.16851999888420105,-0.42690439308881756,0.3034332039818167
1733767223122895400,1.827895263671875,0.3255757699459791,-0.3043564563065767,0.5771846786662936
1733767223132855600,1.83785546875,0.3267044817149639,-0.21694354579150676,1.0015355878800154
1733767223142815500,1.8478154296875,0.25314927003011106,-0.0415618444442749,1.4577505388662217
1733767223152775400,1.857775390625,0.13528291519284247,0.09431962116360663,1.893031422895193
1733767223162735400,1.8677353515625,0.039460488250851626,0.03258826439380646,2.2428572524785992
1733767223172695600,1.877695556640625,-0.0042144028246402735,-0.08411445349156856,2.4615230920180675
1733767223182655500,1.887655517578125,0.0037526305317878723,-0.20261223810017107,2.4518942629292604
1733767223192615400,1.897615478515625,0.027096754305437204,-0.24316578228473662,2.2371125713467594
1733767223202575400,1.907575439453125,0.07297755792737007,-0.14379004677534102,1.988704212233424
1733767223212535600,1.91753564453125,0.08143449369259179,0.009228431594371795,1.8387322619527577
1733767223222495500,1.92749560546875,0.11271445196680724,-0.07708207063674927,1.7468945207327604
1733767223232455400,1.937455322265625,0.2221919678390026,-0.13941314686536788,1.5972504872322082
1733767223242415600,1.94741552734375,0.2979045036882162,-0.046347909677028655,1.298251174044609
1733767223252375600,1.95737548828125,0.21882636386342347,-0.09293371976315974,1.1113310105949639
1733767223262335500,1.96733544921875,0.1491034238178283,-0.24298165788948534,1.0690230239585041
1733767223272295400,1.97729541015625,0.21108378691263496,-0.2864952209234238,0.905258987429738
1733767223282255600,1.987255615234375,0.20500468619465828,-0.27800445595383644,0.7586623588010668
1733767223292215600,1.997215576171875,0.10367087542004882,-0.24602175623774528,0.6586237754687666
1733767223302175500,2.007175537109375,0.006153882987238467,-0.21142916628420352,0.5535954210251569
1733767223312135400,2.017135498046875,-0.03919332521464675,-0.1921066261768341,0.37918753314614295
1733767223322095600,2.027095703125,-0.06506554269380867,-0.1513502528965473,0.22743078180793672
1733767223332055600,2.0370556640625,-0.06347030939161777,-0.07009235787987708,0.07767740618139506
1733767223342015500,2.047015380859375,-0.09270290668196976,0.034299744486808774,-0.0566129543101415
1733767223351975400,2.056975341796875,-0.03610938772466033,0.07156126138865947,-0.17503012969689444
1733767223361935600,2.066935546875,0.10212298839092254,0.032878187251091,-0.2505111766114831
1733767223371895600,2.0768955078125,0.17134795231912284,-0.02401391279399395,-0.23183338241474702
1733767223381855500,2.08685546875,0.15903726373519747,-0.1718108571231365,-0.1502972001796588
1733767223391816200,2.096816162109375,0.15699264269769192,-0.29632337197661396,-0.05318856935203075
1733767223401776000,2.106776123046875,0.17545414552893487,-0.323459216183424,0.07532180123226717
1733767223411736000,2.116736083984375,0.1795277151107788,-0.2871305962175131,0.18597849868535996
1733767223421696000,2.126696044921875,0.11704174058139323,-0.23479425978064536,0.29346096828281876
1733767223431656200,2.13665625,0.10523027022387832,-0.13003040149211884,0.33964112017750736
1733767223441616100,2.1466162109375,0.164247107337974,-0.06847907746434212,0.33393092583715916
1733767223451576000,2.156576171875,0.1929734721392393,-0.11039221956431865,0.33273937796503306
1733767223461536300,2.166536376953125,0.2498024803528562,-0.20519348676502702,0.3588116845935583
1733767223471496200,2.17649609375,0.2973415725758299,-0.2751893985331058,0.3820455529257655
1733767223481456000,2.1864560546875,0.3486544477164745,-0.2781891648709774,0.3908762173742056
1733767223491416000,2.196416015625,0.38000706936810164,-0.2790297073483467,0.38318215574026104
1733767223501376300,2.206376220703125,0.4327321128616109,-0.27492168750762935,0.3918541224956512
1733767223511336200,2.216336181640625,0.4664981523305177,-0.25092063419520855,0.46438393665552136
1733767223521296100,2.226296142578125,0.45647652453184123,-0.2677349908739328,0.5522521897226572
1733767223531256000,2.236256103515625,0.3826052326351404,-0.2823930463016033,0.6065197864830494
1733767223541216300,2.24621630859375,0.1721183339034207,-0.35635786170065403,0.6195230604410171
1733767223551176200,2.25617626953125,-0.10191723668575287,-0.5110428119778633,0.6457277612775564
1733767223561136000,2.26613623046875,-0.43582536616921425,-0.5693780965685844,0.6415630428135395
1733767223571096000,2.276095947265625,-0.7179203063070774,-0.5231295556128025,0.6831365776956081
1733767223581056000,2.286055908203125,-0.864008693152666,-0.3263607828438282,0.7545426485225558
1733767223591016000,2.296015869140625,-1.0095067128896713,-0.043829789376258844,0.8443596975699067
1733767223600976000,2.305975830078125,-1.2052408819139002,0.3311819193899631,1.017252796971798
1733767223610936000,2.31593603515625,-1.4041887522876262,0.7412778010189532,1.2226976281493902
1733767223620896000,2.32589599609375,-1.5706068104565143,1.119383968669176,1.4085352570593357
1733767223630856000,2.33585595703125,-1.7645652019798754,1.4033371038943527,1.5093883716449141
1733767223640815900,2.34581591796875,-2.034359463471174,1.6849012981563805,1.7904104218542576
1733767223650776000,2.355776123046875,-2.252651501262188,1.7231185083478688,2.2200091685935854
1733767223660736000,2.365736083984375,-2.466205404615402,1.4626409412562846,2.532278882242739
1733767223670696000,2.375696044921875,-2.624367675614357,1.2565671645253895,2.538414316257834
1733767223680656000,2.38565576171875,-2.8751170448958874,1.5669728378683327,2.107681012530625
1733767223690616000,2.395615966796875,-3.5419758570075035,2.3730706093221903,1.4704578986175358
1733767223700576000,2.405575927734375,-4.980860659623146,2.9539404062420127,0.8617033388197421
1733767223710536000,2.415535888671875,-6.972732395976782,3.248997119283676,0.4993868609756231
1733767223720496000,2.42549609375,-8.62057909798026,3.363087024322152,0.1402821117196232
1733767223730456000,2.4354560546875,-9.177084853494167,3.0825989348590372,0.10347527978271245
1733767223740416000,2.445416015625,-7.147626021546125,1.9176707741111516,0.2157772054258734
1733767223750376000,2.4553759765625,-4.148597350299358,0.763932700419426,0.26358225510865446
1733767223760336100,2.465336181640625,-2.279115729817748,0.0554302107989788,-0.020691490373015403
1733767223770296000,2.475296142578125,-1.212050561928749,-0.2770926018059254,-0.44590456937402484
1733767223780256000,2.485256103515625,-0.6103069038063287,-0.24358371543586252,-0.8882935318425297
1733767223790216000,2.4952158203125,-0.24089674137420952,0.1173567978799343,-0.8046632086060941
1733767223800176000,2.505176025390625,-0.07855506579875945,0.6186451085627078,0.2005176039084792
1733767223810136000,2.515135986328125,0.002391279050707817,0.5613152016222477,1.5450789859682321
1733767223820096000,2.525095947265625,0.18565306612327695,0.036404607811570164,2.705972192111611
1733767223830056000,2.535055908203125,0.4142589195925742,-0.6106202075392008,3.523962645933032
1733767223840016100,2.54501611328125,0.8980318126551806,-1.1805962700009345,4.013834075066447
1733767223849976000,2.55497607421875,1.2047510525703429,-1.3423147721767426,3.3728143453493713
1733767223859936000,2.56493603515625,1.653363127337396,-1.1691326267004012,3.4979739259347316
1733767223869896200,2.574896240234375,2.575537885993719,-1.5760522163808346,4.126312745516002
1733767223879856000,2.584856201171875,3.2713466059967873,-1.9000988770633935,3.699063776773214
1733767223889816000,2.594816162109375,3.8077538685947654,-1.6587965505629776,2.9105761885508894
1733767223899776000,2.60477587890625,4.335335142919421,-1.253776072502136,2.4945821887940167
1733767223909736200,2.614736083984375,4.727347670847177,-0.8568190739095211,2.160449018383026
1733767223919696100,2.624696044921875,4.867231650094688,-0.08521861534118652,1.6911229491502047
1733767223929656000,2.634656005859375,4.832356736068427,0.6766928083837032,1.3335901984512806
1733767223939616000,2.644615966796875,4.763766891705989,1.1074205591529607,0.9347530852004885
1733767223949576200,2.654576171875,4.5163568959802385,0.9876432561278342,0.6118260761976242
1733767223959536000,2.6645361328125,3.9760812675163146,0.6477338404029608,0.37158235537204887
1733767223969496000,2.67449609375,3.3810943901777266,0.25480653571784495,0.13944821817874908
1733767223979456000,2.6844560546875,2.8235788730993865,-0.03904606223106384,-0.12355247418228536
1733767223989416200,2.694416259765625,2.1558663667678832,-0.17566694802939892,-0.5000038238301873
1733767223999376100,2.704376220703125,1.3841229925975203,-0.08261573936641216,-1.020971525233984
1733767224009336000,2.714336181640625,0.489634990029037,0.1334124451458454,-1.5795806827679275
1733767224019296300,2.724296142578125,-0.6866869636535644,0.24628888274133204,-2.193552831083536
1733767224029256200,2.734256103515625,-1.9368942377582192,0.13017711648643016,-2.652867793911695
1733767224039216000,2.744216064453125,-2.830409303641319,-0.1332031863093376,-3.1225425304517147
1733767224049176000,2.754176025390625,-2.3108573142543434,-0.325318580314517,-3.489104098519683
1733767224059136300,2.76413623046875,-0.9349123674154282,-0.554507275173068,-3.578006663070619
1733767224069096200,2.77409619140625,0.25861001965403557,-0.8413514556646347,-3.576773614144325
1733767224079056100,2.78405615234375,1.117184997320175,-1.0530769745469093,-3.544427341812849
1733767224089016000,2.79401611328125,1.571526847910881,-1.274821198618412,-3.6299139604404567
1733767224098976300,2.803976318359375,1.7933296703018247,-1.2902630979001521,-3.671857497678697
1733767224108936200,2.813936279296875,1.8259505217909813,-1.1339619445979594,-3.7696380729511376
1733767224118896000,2.823896240234375,1.465858295867592,-1.0587012441694736,-3.818489782142639
1733767224128856000,2.83385595703125,0.7754993657030165,-0.9975871425151824,-3.713029173761606
1733767224138816000,2.84381591796875,0.11599573865979909,-0.9468839602380991,-3.337515945214033
1733767224148776000,2.85377587890625,-0.44687604475468395,-0.8844003237962722,-2.8917601366609333
1733767224158736000,2.86373583984375,-0.9140510734334587,-0.7623971614152193,-2.345530860489607
1733767224168696000,2.873696044921875,-1.449392021974176,-0.7532540700167417,-1.7188795556038616
1733767224178656000,2.883656005859375,-2.1355890101537107,-0.5429723202019929,-1.060709442186728
1733767224188616000,2.893615966796875,-2.7657565064668654,-0.22668460308313368,-0.3820777381623164
1733767224198575900,2.903575927734375,-3.029032764366269,0.09231061942875385,0.21490813097376374
1733767224208536000,2.9135361328125,-3.0553678135842084,0.3338496772944927,0.7686950194504112
1733767224218496000,2.92349609375,-2.9330320582479237,0.3988444197744131,1.1998700025305151
1733767224228456000,2.9334560546875,-2.895743653339147,0.14968085837960243,1.439357388563454
1733767224238416000,2.943415771484375,-3.227449888864159,-0.049987727484107014,1.4868752188026904
1733767224248376000,2.9533759765625,-3.5567876416921616,-0.26053894189000126,1.0311366531565784
1733767224258336000,2.9633359375,-3.311670725339651,-0.502199580308795,0.3510740030135959
1733767224268296000,2.9732958984375,-2.417496464895457,-0.516629087677598,-0.17340930529572068
1733767224278256000,2.983256103515625,-1.5382058853283525,0.06403086588382721,-0.6823555833857506
1733767224288216000,2.993216064453125,-1.1348925034463404,0.5497995358735323,-0.7448202959313989
1733767224298176000,3.003176025390625,-1.4415104749441146,0.5172147786110639,-0.17259908489137887
1733767224308136000,3.013135986328125,-2.31822565106526,0.4699550147861242,0.4848881608281284
1733767224318096100,3.02309619140625,-2.9318431407243013,0.5856254670143127,0.8822548362001776
1733767224328056000,3.03305615234375,-3.3446728312313554,0.6065776541501283,1.0554606548130512
1733767224338016000,3.04301611328125,-3.979536084145307,0.5226981784582138,0.9851946939319371
1733767224347976000,3.052975830078125,-4.459138632720709,0.2844324431747198,0.8183727311372756
1733767224357936000,3.06293603515625,-2.8808102881014346,-0.48070203424990177,0.3345534416496754
1733767224367896000,3.07289599609375,-0.6635200230777263,-0.7471861482799053,-0.22756343174427746
1733767224377856000,3.08285595703125,0.6839116537213326,0.24494272882938384,-0.9242822523295878
1733767224387815700,3.092815673828125,1.22484706126824,1.8987094685316084,-1.4923467820815741
1733767224397775600,3.102775634765625,1.277961542470753,3.2381495620548724,-1.6958635678060352
1733767224407735600,3.112735595703125,0.8035112620919942,3.6923844451397656,-1.641721789382398
1733767224417695700,3.12269580078125,-0.2759352484643459,3.283348301696777,-1.2357684143856167
1733767224427655700,3.13265576171875,-1.2223533447563648,2.5244267074376343,-1.178047754561901
1733767224437615600,3.14261572265625,-0.7398876618348061,2.19561560883224,-2.3844756543032823
1733767224447575600,3.152575439453125,1.3546402930036185,2.0337749415814876,-3.765349728107452
1733767224457535700,3.16253564453125,3.118231973776221,0.7516425431668758,-4.6012312279284
1733767224467495700,3.17249560546875,4.12481549269557,-1.0586065516233443,-5.164040467500686
1733767224477455600,3.18245556640625,5.136211964854597,-1.8352426662713288,-5.639693401667476
1733767224487415800,3.192415771484375,6.186125506934523,-1.7643009980857371,-6.010850188571214
1733767224497375700,3.202375732421875,7.225029579222202,-1.4898393293052912,-5.959501109606027
1733767224507335700,3.212335693359375,7.467962721794843,-1.495553615298867,-5.109011238718033
1733767224517295600,3.222295654296875,7.322906600606441,-1.4118600175678728,-3.8877468582421537
1733767224527255800,3.232255859375,6.751093385845422,-1.2718822225570678,-2.7452444643139837
1733767224537215700,3.2422158203125,6.36263592005074,-0.9444710538774729,-1.4656532748147844
1733767224547175700,3.25217578125,6.091227793622017,-0.4663958609998226,-0.19197678925208747
1733767224557135600,3.262135498046875,5.772886066582799,0.313423559859395,1.1452945819299667
1733767224567095800,3.272095703125,5.586870743018388,0.9793944832205772,2.6764854008644816
1733767224577055700,3.2820556640625,5.135787017440796,1.3876853612542153,3.8679426720976826
1733767224587015700,3.292015625,4.4435564481854435,1.751074436765909,4.911792384093999
1733767224596975900,3.301975830078125,3.5843618773162365,1.8097504976183174,6.157067754754424
1733767224606935800,3.311935791015625,2.583300336688757,1.6023896036863325,6.942590940213203
1733767224616895700,3.321895751953125,1.0371160198271274,0.8269090888142585,7.448618554377555
1733767224626855700,3.331855712890625,-0.6580120733112096,0.2568716515541076,6.805286163803935
1733767224636816000,3.34181591796875,-2.1280326034247876,0.32674072207212446,5.6283180211722845
1733767224646775800,3.35177587890625,-3.3295570951640605,0.4901134211957454,4.081440753610432
1733767224656735700,3.36173583984375,-4.287708883869648,0.5924848313897848,2.6438182260155676
1733767224666695700,3.37169580078125,-4.841041854566336,0.5025152221292257,1.3389338975667953
1733767224676656600,3.38165673828125,-4.827050738614798,0.3952940338164568,0.12442030652537941
1733767224686616600,3.391616455078125,-4.266669602972269,0.0980681600421667,-0.9072592213362455
1733767224696576500,3.401576416015625,-3.29736747469902,-0.2586187874823809,-1.619005076792091
1733767224706536700,3.41153662109375,-2.3076094183743,-0.30634090812206266,-2.018654529339075
1733767224716496600,3.42149658203125,-1.4792296724855898,-0.37841011903285976,-2.29523479770869
1733767224726456600,3.43145654296875,-0.7204302433013916,-0.476395276966691,-2.4210819221667945
1733767224736416500,3.44141650390625,-0.04812142215557396,-0.6292553499042988,-2.2938486040472985
1733767224746376700,3.451376708984375,0.5587035212865099,-0.7911714204788207,-1.9002654658019542
1733767224756336600,3.461336669921875,1.0452572407066822,-0.5951490821629762,-1.268890055003762
1733767224766296600,3.471296630859375,1.3222354223527013,-0.36904490931630135,-0.46379123145937917
1733767224776256800,3.4812568359375,1.3627110789954662,-0.2328793660700321,0.3483762152969837
1733767224786216700,3.491216796875,1.2093711135864258,-0.293095057579875,0.9562310497760772
1733767224796176600,3.5011767578125,0.9054572134155779,-0.36237376098930835,1.3157089431934057
1733767224806136600,3.511136474609375,0.5597649765055627,-0.39906361548304553,1.4605080208808183
1733767224816096800,3.5210966796875,0.20046872326545417,-0.28760873512327667,1.396305890083313
1733767224826056700,3.531056640625,-0.20568506967425346,-0.1543617096722126,1.0873416477203368
1733767224836016600,3.5410166015625,-0.7029344802297651,-0.07985270439386367,0.6702073918871582
1733767224845976600,3.5509765625,-1.1875532495319843,-0.039703064835071564,0.2515969260215759
1733767224855936800,3.560936767578125,-1.5730162096858025,-0.007998013016581535,-0.13547171576321124
1733767224865896700,3.570896728515625,-1.8066028472423552,-0.01697334663271904,-0.469211210681498
1733767224875856600,3.580856689453125,-1.9064533606566487,0.04175707475543022,-0.6928742739863694
1733767224885816600,3.590816650390625,-1.8304783744789659,-0.01670446656346321,-0.784387021035701
1733767224895776800,3.60077685546875,-1.6112594311013817,-0.1709919419556856,-0.7687371050264686
1733767224905736700,3.61073681640625,-1.304113051815331,-0.12856909676790237,-0.6896386530660092
1733767224915696600,3.620696533203125,-0.936387700664997,0.09258125306367873,-0.6731508979931473
1733767224925656800,3.63065673828125,-0.5400783523261546,0.2866056955605745,-0.599552870079875
1733767224935616800,3.64061669921875,-0.23342267916649578,0.5322328995227813,-0.528703994744271
1733767224945576700,3.65057666015625,-0.1237815702304244,0.9335153600990772,-0.3704125444076955
1733767224955536600,3.66053662109375,-0.0357493587732315,1.2217670693010092,-0.11460516108423471
1733767224965496800,3.670496826171875,0.05913461827486753,1.2918074047327042,0.24219737564399837
1733767224975456800,3.680456787109375,0.08973930763602256,1.1981582301765679,0.6806263484403491
1733767224985416700,3.690416748046875,-0.12123685418367385,1.1737941887706518,1.169041733546555
1733767224995376600,3.700376708984375,-0.6236465701118111,1.363334179329872,1.658568294765055
1733767225005336800,3.7103369140625,-1.3178686054453252,1.5838029766380786,2.1116931707814333
1733767225015296800,3.720296875,-2.023356715680659,1.720753532782197,2.4754808902218937
1733767225025256700,3.730256591796875,-2.694931450398266,1.7621020267367362,2.7402532318979502
1733767225035216600,3.740216552734375,-3.2773589981541034,1.7586872498571873,2.956264173014462
1733767225045176800,3.7501767578125,-3.7790626116394996,1.691364356690645,3.0576243603393434
1733767225055136800,3.76013671875,-4.248611091451346,1.601710389250517,3.078899495819211
1733767225065096700,3.7700966796875,-4.755380171632766,1.4354139116346836,3.069141779653728
1733767225075057000,3.780056884765625,-5.2273190537124865,1.4460329208046196,3.1318051565766334
1733767225085016800,3.790016845703125,-5.697867942738533,1.6829449033915995,3.3593703418865797
1733767225094976800,3.799976806640625,-6.222837573260069,2.189445980286598,3.7648049537062644
1733767225104936700,3.809936767578125,-6.668126348823309,2.528748662289977,4.141445724979043
1733767225114897000,3.81989697265625,-6.99897567525804,2.58206290384829,4.304474432970583
1733767225124856800,3.82985693359375,-7.611465183800458,2.1968214774906634,4.338304514119029
1733767225134816800,3.839816650390625,-8.372634264725447,1.7380524581074714,4.23885980502665
1733767225144776700,3.849776611328125,-8.823708637952803,1.4987117870688438,4.083545909196138
1733767225154736600,3.859736572265625,-8.65351632194221,1.5967185723125934,3.950091962996125
1733767225164696600,3.869696533203125,-7.75437727869749,1.8503262536346912,3.4244442870825527
1733767225174656500,3.879656494140625,-6.225423498100042,1.81662739765048,2.4524025047123432
1733767225184616400,3.889616455078125,-4.339560651659966,1.7261492543458938,1.360163732600212
1733767225194576600,3.89957666015625,-2.432518239068985,2.082419437763095,0.2858259068271145
1733767225204537600,3.90953759765625,-0.8797007678031921,2.5914438956558703,-0.7964587132319808
1733767225214497500,3.91949755859375,0.4294810021111741,3.473439496397972,-1.8271049525231122
1733767225224457700,3.929457763671875,1.8462544741511344,4.346361563846469,-2.5321570094287393
1733767225234417700,3.939417724609375,3.762808226931095,5.681728708842396,-3.5499905288979408
1733767225244377600,3.949377685546875,5.478722502988576,6.771425395256281,-4.1755946628183125
1733767225254337800,3.959337890625,6.726385645568371,7.210340544134378,-4.319327134187519
1733767225264297700,3.969297607421875,7.244254504173994,7.012324401652813,-4.239741264036297
1733767225274257700,3.979257568359375,7.490073431316017,6.1648132543146605,-3.9625907945632934
1733767225284217600,3.989217529296875,7.286741646769642,4.592967257452011,-3.8157381453469394
1733767225294177800,3.999177734375,6.81769614804387,2.550438516050577,-3.8606002003803845
1733767225304137700,4.0091376953125,6.101177525228262,0.837790548312664,-3.757817871297896
1733767225314097700,4.01909765625,5.267064788645506,-0.3309422654151916,-3.5671026994794603
1733767225324057600,4.0290576171875,4.680733219188451,-1.117895775938034,-3.1534850734651085
1733767225334017800,4.039017822265625,4.276965956059098,-1.8185072200477121,-2.6746841966614125
1733767225343977700,4.048977783203125,3.9932007446214555,-2.2935791394561527,-2.3719142788939176
1733767225353937700,4.058937744140625,3.682972473672032,-2.4222499430328606,-2.0575546072281896
1733767225363897900,4.06889794921875,3.29861718249917,-2.4742893423497674,-1.9012641214504837
1733767225373857800,4.07885791015625,3.141150492548942,-2.5526965241104365,-1.652943732881546
1733767225383817700,4.088817626953125,3.092635175704956,-2.633569219201803,-1.483841842456162
1733767225393777700,4.098777587890625,2.8889275435835122,-2.4504186374187467,-1.4652803498491644
1733767225403737600,4.108737548828125,2.705509835296869,-2.2222493487358093,-1.2687366180077195
1733767225413697500,4.118697509765625,2.3038697934545573,-1.804225596717,-1.0425221166543661
1733767225423657700,4.12865771484375,1.8453385283499955,-1.4997697716891765,-0.9648226447716355
1733767225433617700,4.13861767578125,1.4525421565681695,-1.199901858973503,-1.1970832944214342
1733767225443577600,4.14857763671875,1.2504980737447737,-0.8345055352926254,-1.5657389121592045
1733767225453537500,4.15853759765625,1.2012474283635615,-0.8989519962400198,-2.059555571787059
1733767225463497700,4.168497802734375,1.3807516164682805,-1.3259323771744966,-2.4835160203784703
1733767225473457700,4.178457763671875,1.5400645188070832,-1.6239479400217531,-2.672484348529577
1733767225483417600,4.18841748046875,1.6826516195334493,-1.7770348074525593,-2.5970190654397007
1733767225493377500,4.19837744140625,1.7892577446877955,-2.022247000873089,-2.3711089538604018
1733767225503337700,4.208337646484375,1.5944827760845421,-2.266426344114542,-2.034028039559722
1733767225513297700,4.218297607421875,1.2354089334234595,-2.5291040515989063,-1.6054057366371153
1733767225523257600,4.228257568359375,0.7450720787353813,-2.7819769889056682,-1.1866234213359654
1733767225533217800,4.2382177734375,0.24522972907721996,-2.71388135780096,-0.8608642576470971
1733767225543177700,4.248177734375,-0.2075087779700756,-2.400343231651187,-0.5908291731372475
1733767225553137700,4.2581376953125,-0.5020901285849512,-1.9573153867572546,-0.3010397329740226
1733767225563097600,4.26809765625,-0.7492927651703357,-1.2806278390705585,0.025872400142252443
1733767225573057500,4.2780576171875,-1.0931997260987758,-0.570568767657876,0.38043548738062377
1733767225583017500,4.288017578125,-1.697804618871212,0.10894435884356499,0.8643094296649098
1733767225592977400,4.297977294921875,-2.2458885829985142,0.5382505523771047,1.3236308222338558
1733767225602937300,4.307937255859375,-2.612084532624483,0.7491554025262593,1.6025778197348117
1733767225612897500,4.3178974609375,-2.91084536088109,0.7859037092089652,1.7469880442351102
1733767225622857500,4.327857421875,-3.4205542939066884,0.7807008798688649,2.040396990069747
1733767225632817400,4.3378173828125,-3.9594530810594555,0.845088304105401,2.1492542551517486
1733767225642777300,4.34777734375,-4.004661757573485,0.6098106447219849,1.7924904429987072
1733767225652737500,4.357737548828125,-3.5492356188774106,0.1788560994595289,1.44947794669196
1733767225662697500,4.367697509765625,-3.0099761817187067,-0.03423077090382576,1.0711550675511359
1733767225672657400,4.377657470703125,-2.5957979992121456,0.13833411945700644,0.5992293372139335
1733767225682618600,4.38761865234375,-2.3225715713150796,0.5026420633792877,-0.08891089398786425
1733767225692578600,4.39757861328125,-1.9755657675884664,0.9007569998353719,-0.7693466882921755
1733767225702538500,4.40753857421875,-1.5786309808276593,1.2870301073282957,-1.5145787798948585
1733767225712498700,4.417498779296875,-1.1387737287938595,1.2787924403369426,-2.204127416589856
1733767225722458600,4.427458740234375,-0.7181107143126427,1.5997843896239996,-2.6757255224078893
1733767225732418600,4.43741845703125,-1.2261819631338118,3.608686171233654,-3.102728115174174
1733767225742378500,4.44737841796875,-2.8371850813865658,6.473443150156736,-2.26820212161541
1733767225752338700,4.457338623046875,-2.9326281536221503,7.4672496050894255,-0.5453329118534922
1733767225762298600,4.467298583984375,-1.7264947067826986,6.296336524713039,-0.2660775790557265
1733767225772258600,4.477258544921875,-0.6079873748175799,4.27144163967967,-0.5195299236856401
1733767225782218500,4.487218505859375,0.26026786986365913,1.8520114302426576,-0.4153748449452221
1733767225792178700,4.4971787109375,1.4940017096817493,-0.5786170495569706,-0.46412470119744537
1733767225802138600,4.507138671875,2.3181921871870754,-2.378136660540104,-0.9646063716724514
1733767225812098600,4.5170986328125,2.822802920290828,-3.229640092384815,-1.8092426942266522
1733767225822058800,4.527058837890625,3.1642595654577015,-3.4099592501342295,-2.841834953019023
1733767225832018700,4.537018798828125,3.606661971929669,-3.3046021021276712,-3.8340129299670456
1733767225841978600,4.546978515625,4.11314025247097,-2.696539177855849,-5.017381002768873
1733767225851938600,4.5569384765625,4.830306817801296,-1.642743825906515,-6.156875447052717
1733767225861898800,4.566898681640625,5.33035448077321,-0.9005681992650032,-6.544438009834289
1733767225871858700,4.576858642578125,5.197606052494049,-0.5631494313120842,-5.947421380233764
1733767225881818600,4.586818603515625,5.121606516396999,-0.5319388850122689,-4.95545149307847
1733767225891778600,4.596778564453125,5.346214897727966,-0.20839958932995795,-4.025443264317512
1733767225901738800,4.60673876953125,5.731756183815002,0.11824644019603729,-2.908749557645619
1733767225911698700,4.61669873046875,6.021196226018667,0.34508477253615855,-1.7399787499949335
1733767225921658600,4.62665869140625,6.336932154473662,0.9392425055742263,-0.5402555355239659
1733767225931618600,4.63661865234375,6.423010601514577,1.4619693256050348,1.086555319648236
1733767225941578800,4.646578857421875,5.540538030910492,1.1212065079212188,2.35458919621408
1733767225951538700,4.65653857421875,4.501632789579034,0.469116225874424,3.3821813086315986
1733767225961498600,4.66649853515625,3.589599193447828,0.16862404378056525,4.16706678070873
1733767225971458600,4.67645849609375,2.8654852931976316,-0.018916297394037246,3.9313761566102503
1733767225981418500,4.68641845703125,1.9965052413731812,0.18057634738087652,3.9095696907326576
1733767225991378400,4.69637841796875,0.9607675241619348,0.5508657038003206,4.346044168460369
1733767226001338400,4.70633837890625,-0.10059506643759086,0.583530540561676,4.236120443190634
1733767226011298600,4.716298583984375,-1.1414612873774022,0.5344727874040603,3.8779488100662824
1733767226021258500,4.726258544921875,-2.0256080017387865,0.5714291838794946,3.4322815565794706
1733767226031218400,4.736218505859375,-2.7518600830614566,0.5564700996786356,2.7705028242111203
1733767226041178400,4.746178466796875,-3.358780851560831,0.5409212328910827,1.9725845598205922
1733767226051138600,4.756138671875,-3.7167280282795425,0.413984705761075,1.3780676380813122
1733767226061098500,4.766098388671875,-3.853502643334865,0.1314215635895729,0.9765911893028766
1733767226071058400,4.776058349609375,-3.8546027135312553,-0.06076689565181732,0.5360420094821602
1733767226081018400,4.786018310546875,-3.6828900560855864,0.03512508939504623,0.01687850795611739
1733767226090978600,4.795978515625,-3.4131671062648294,0.09239888223409652,-0.3790871415115893
1733767226100938500,4.8059384765625,-3.085769381588697,-0.017506430596113204,-0.5999959376722573
1733767226110898400,4.8158984375,-2.6703742245078086,-0.12429741079807281,-0.8156253321252763
1733767226120858600,4.825858642578125,-2.22724101954326,-0.11466799718737601,-0.8557036600135266
1733767226130818600,4.835818603515625,-1.7107319049835203,-0.040184710872173304,-0.6879264423206448
1733767226140778500,4.845778564453125,-1.1317559589862822,-0.004908814829587936,-0.5961611818149686
1733767226150739700,4.85573974609375,-0.6194320211566984,0.04431260445713996,-0.5112080124769359
1733767226160699600,4.86569970703125,-0.2294518758393824,0.016068506747484206,-0.3708956517495215
1733767226170659600,4.87565966796875,0.0117944826900959,-0.24421616812050342,-0.16636165180653334
1733767226180619500,4.88561962890625,0.1412906311750412,-0.3759551270961761,0.015943126802146435
1733767226190579700,4.895579833984375,0.18139833128824828,-0.24414018027484416,0.12070566991642116
1733767226200539600,4.90553955078125,0.2005377699136734,-0.15779051507711409,0.29358897857666016
1733767226210499600,4.91549951171875,0.08007730692997575,-0.02313771448135376,0.4179081628151238
1733767226220459500,4.92545947265625,-0.007444324656575917,0.15303952115774153,0.4052716763429344
1733767226230419700,4.935419677734375,0.18271438232287762,0.14878946249783037,0.33311369117014106
1733767226240379600,4.945379638671875,0.46637131108045576,0.06272504398226737,0.15767331843823193
1733767226250339600,4.955339599609375,0.6102969669342041,0.12298808176517485,-0.09562895019650458
1733767226260299500,4.965299560546875,0.3728852181315422,0.23812720359563827,-0.33662411044389007
1733767226270259700,4.975259765625,-0.23540771550387143,0.1797925035268068,-0.3907832053285092
1733767226280219600,4.9852197265625,-1.0646700894460082,0.050368251234292984,-0.31226730249635876
1733767226290179600,4.9951796875,-1.682752011168003,0.0026747721672058106,-0.3110141606301069
1733767226300139800,5.005139892578125,-2.2400375188827515,0.2503904728412628,-0.3193006351992488
1733767226310099700,5.015099609375,-2.862996398991346,0.638840924373269,-0.14047237359471618
1733767226320059600,5.0250595703125,-3.3021097007900475,0.9395143082529306,0.2633600271927193
1733767226330019600,5.03501953125,-3.2523619195416567,0.9447083697646855,0.9490334664221852
1733767226339979800,5.044979736328125,-2.785905268265307,0.6863555397421122,1.6043196949660776
1733767226349939700,5.054939697265625,-2.2644833933532236,0.5794190135896206,2.1273416985511777
1733767226359899600,5.064899658203125,-1.871352675050497,0.7746808889269828,2.506882867440581
1733767226369859600,5.074859619140625,-1.4698928120806813,1.184867955970764,2.663285727551579
1733767226379819500,5.084819580078125,-1.0441799668639897,1.610069052273035,2.699650295613706
1733767226389780200,5.0947802734375,-0.6784849524974823,1.861718000742793,2.7414126310661433
1733767226399740200,5.104740234375,-0.5503396340996026,2.1191864491462704,2.860085479980707
1733767226409700000,5.1147001953125,-0.9490402614891529,2.684163095885515,2.8791356328874826
1733767226419660300,5.124660400390625,-1.5258195742249487,3.16213599743247,2.7297891210287806
1733767226429620200,5.1346201171875,-1.868560706244409,2.7781869489729405,2.4242250424981115
1733767226439580200,5.144580078125,-2.3679127881675957,1.7362293343335389,2.1841391060501336
1733767226449540000,5.1545400390625,-3.3296935810253023,0.6528606818974018,1.9512059639662502
1733767226459500300,5.164500244140625,-4.434952285969257,-0.1398310800164938,1.689412053579092
1733767226469460200,5.174460205078125,-5.366794744420051,-0.5238362425774336,1.457768659044802
1733767226479420200,5.184420166015625,-6.064587623977661,0.33752105928361414,1.2655378219664095
1733767226489380000,5.194380126953125,-6.7351230787754055,2.387640401944518,1.4064222104281185
1733767226499340300,5.20434033203125,-7.33650374880433,3.470315811419487,1.6376163998901843
1733767226509300200,5.21430029296875,-8.40684866901636,3.333280499601364,0.8350836274415254
1733767226519260200,5.22426025390625,-9.114276807403565,2.1531524316340684,-0.5983177753269672
1733767226529220400,5.234220458984375,-8.256617191016673,1.5436176812440157,-1.8973072005182503
1733767226539180300,5.24418017578125,-6.081857907730341,1.6810943070888518,-2.5681609274849295
1733767226549140200,5.25414013671875,-3.6510756986737247,2.3656828371584413,-3.088418142531812
1733767226559100200,5.26410009765625,-1.5063959118306636,3.140280139455199,-3.956294909289479
1733767226569060400,5.274060302734375,0.3621265082299709,3.641362113910913,-4.35713050288111
1733767226579020300,5.284020263671875,2.2484768459260462,4.402957895815372,-4.681320079165697
1733767226588980200,5.293980224609375,3.921516441375017,4.964407537472248,-4.993709619802236
1733767226598940200,5.303940185546875,5.193934085983038,5.203354240757227,-4.914064420679211
1733767226608900400,5.313900390625,5.899499353107809,5.278014637205004,-4.54408661442697
1733767226618860300,5.3238603515625,5.986328910776972,4.631279160189628,-3.730682611612975
1733767226628820200,5.3338203125,5.930864213186502,3.2559096751511096,-3.0487746989294884
1733767226638781200,5.34378125,5.673937616574764,1.8465654397964477,-2.4003084525987504
1733767226648741000,5.3537412109375,6.4987804205089805,1.4889420882046223,-2.911780011382699
1733767226658701000,5.363701171875,5.7627586403220885,0.33543899231255053,-2.6936291356280444
1733767226668661000,5.373660888671875,5.382859744036197,-0.7243307578712701,-2.261098134829104
1733767226678621200,5.38362109375,5.179767613464594,-1.316828448742628,-1.8842729469001291
1733767226688581000,5.3935810546875,5.086963073039055,-1.6288602619826793,-1.6086036558955907
1733767226698541000,5.403541015625,5.280986931014061,-1.8230793502688407,-0.9904653278112411
1733767226708501200,5.413501220703125,5.1379322127759455,-2.118264073604345,0.013733341798186301
1733767226718461200,5.423461181640625,4.751257831005752,-2.4352806895196437,0.8201523810956627
1733767226728421000,5.433421142578125,4.230922582286596,-2.697048880943656,1.0977426302254198
1733767226738381000,5.443381103515625,3.526374967771768,-2.512282680657506,0.8835614618193358
1733767226748341200,5.45334130859375,3.163632373470068,-2.011290722572803,0.3961749083042145
1733767226758301200,5.46330126953125,3.0230636268287894,-1.484052562597394,-0.2199474037826061
1733767226768261000,5.47326123046875,2.809930286975205,-1.2302987508028744,-0.7490214008830487
1733767226778221000,5.483220947265625,2.2562328668802976,-1.1483318307340145,-1.2852867707923055
1733767226788181200,5.49318115234375,1.3775200872011482,-1.2587953619688748,-1.6317938312165439
1733767226798141200,5.50314111328125,0.4902651046261191,-1.5721663148581981,-1.8265518486849963
1733767226808101000,5.51310107421875,-0.18817615486010908,-1.8106728731602428,-1.9712072801180183
1733767226818061000,5.52306103515625,-0.8013501385353505,-1.9206810618430374,-1.9942692990146575
1733767226828021200,5.533021240234375,-1.3792844665251671,-1.8878963980942964,-2.1395975151427087
1733767226837981200,5.542981201171875,-1.6000893639199434,-1.949287563124299,-1.9881566613532602
1733767226847941000,5.552941162109375,-1.2898023485206067,-2.117605901956558,-1.737418105726689
1733767226857901300,5.5629013671875,-0.9133984547436237,-2.164206909611821,-1.4795330393463373
1733767226867861200,5.572861328125,-0.4948163381896913,-2.2910259478420016,-1.1827156002424657
1733767226877821200,5.5828212890625,0.021779431740194557,-2.35132464146018,-0.9661613460294902
1733767226887781000,5.592781005859375,0.3756863931573927,-2.30117441689074,-0.8275726672895253
1733767226897741300,5.6027412109375,0.5328842030383646,-2.2320897747486828,-0.6403660881139338
1733767226907701200,5.612701171875,0.5318238803304731,-2.0718021821588275,-0.401790263967961
1733767226917661200,5.6226611328125,0.3338631212979555,-1.7155325832635164,-0.09596183541268109
1733767226927621000,5.63262109375,-0.047133507096767426,-1.2821639625966548,0.20947452508509157
1733767226937581300,5.642581298828125,-0.6805173351079226,-0.7267676296293735,0.47399113843441004
1733767226947541200,5.652541259765625,-1.5065893885761499,-0.11781564756333827,0.6891828721225262
1733767226957501200,5.662501220703125,-2.544395728754997,0.6326596053898335,0.8888222318917512
1733767226967461000,5.672461181640625,-3.6964872042834758,1.333710609960556,1.159356790356338
1733767226977421300,5.68242138671875,-4.5276381684511895,1.7984154491335151,1.1662249225601553
1733767226987381200,5.69238134765625,-5.395134703719616,2.0072382323116065,1.1250837877459823
1733767226997341200,5.702341064453125,-6.179122934696078,1.8153700910657644,1.31671753571406
1733767227007301400,5.71230126953125,-6.636980684453248,1.568710621446371,1.5948614001385866
1733767227017261300,5.72226123046875,-6.777284642678499,1.6066472611308096,1.6234250851914285
1733767227027221200,5.73222119140625,-6.53117754624486,1.668831622365117,1.2446581155449152
1733767227037181200,5.74218115234375,-5.582283999750018,1.5938853947132825,0.5480089991949498
1733767227047141400,5.752141357421875,-4.061753764104843,1.3010071947544812,-0.14469006435498594
1733767227057101300,5.762101318359375,-2.301021856677532,1.3229507310152053,-0.8560206170082092
1733767227067061200,5.772061279296875,-0.8658708337627351,2.471321724715829,-1.5198698720403014
1733767227077021200,5.782021240234375,-0.06797989577054978,4.307909375855326,-1.512023980845511
1733767227086981400,5.7919814453125,-0.5853828904300927,6.605258681499958,-0.8274109008565544
1733767227096941300,5.80194140625,-1.299082948693633,7.316434774243831,-0.3429609122499823
1733767227106901200,5.8119013671875,-1.377971630360931,5.054032863339781,-0.8909734185762703
1733767227116862200,5.8218623046875,-0.7190425883352756,1.733787786400318,-0.8666106923446059
1733767227126821400,5.8318212890625,0.9037633420445025,-1.5393156001359223,-1.2310532224319874
1733767227136781300,5.84178125,1.6249780137218535,-3.919969796454906,-2.2187425096586346
1733767227146742300,5.8517421875,2.5605197650820015,-5.173667543023824,-3.0119410520508882
1733767227156702200,5.8617021484375,3.615944471798837,-4.571154069572687,-3.824361012263596
1733767227166662100,5.871662109375,5.013627787715197,-2.98253580160737,-4.792785773180425
1733767227176622000,5.8816220703125,6.574827887400985,-0.751629099163413,-5.8178176797211165
1733767227186582300,5.891582275390625,8.033241566351055,0.9250649271398782,-6.527816545379162
1733767227196542200,5.901542236328125,8.131005775010586,1.1250596762180327,-5.937701950252055
1733767227206502100,5.911502197265625,7.072564643082022,0.47356502197682854,-4.770523380228877
1733767227216462000,5.921462158203125,6.060535718238353,-0.33187808496057986,-3.8969232673883436
1733767227226422300,5.93142236328125,5.388137976700067,-1.1093670170456171,-3.0998700953945515
1733767227236382200,5.94138232421875,5.282431284603476,-1.3481833719491958,-2.2391367706507443
1733767227246342100,5.951342041015625,5.493485187834501,-0.8676309753030538,-1.4631193724229932
1733767227256302000,5.961302001953125,5.577779089546203,0.1738812336564064,-0.668750690272823
1733767227266262300,5.97126220703125,5.647012784770131,1.628323670887947,0.28066841446608304
1733767227276222200,5.98122216796875,5.041194424554705,1.970106479269266,1.3895347885131835
1733767227286182100,5.99118212890625,3.8862762011677026,1.6594541376888752,2.8268048494085667
1733767227296142300,6.001142333984375,2.64470903737545,1.5824954011708496,3.5396541360616682
1733767227306102300,6.011102294921875,1.6649492279738187,1.6622534130185842,3.4580610177412625
1733767227316062200,6.021062255859375,0.674768562322855,1.4337258124172687,3.0058772219672796
1733767227326022100,6.031022216796875,-0.4916436995029449,1.2168050629794598,3.0663974493816495
1733767227335982300,6.040982421875,-1.1748130104243755,0.7319196055650711,3.6124034381911154
1733767227345942300,6.0509423828125,-1.7232757447361946,0.19088439090549944,3.4405893661975857
1733767227355902200,6.060902099609375,-2.354023963546753,-0.19739888736605643,3.237161720061302
1733767227365862100,6.070862060546875,-2.7848610199093815,-0.45194881797432895,2.911315316480398
1733767227375822300,6.080822265625,-3.0589784052968025,-0.5737351227343082,2.4403999322295187
1733767227385782300,6.0907822265625,-3.2800913457274437,-0.6706985364049672,1.9620939993359148
1733767227395741400,6.100741455078125,-3.312479703634977,-0.6382371132612228,1.5373925231188534
1733767227405701600,6.11070166015625,-3.095708591800928,-0.6396510717123747,1.1935308626368641
1733767227415661600,6.12066162109375,-2.6733646384954453,-0.48619654001295565,0.9363482454374432
1733767227425621500,6.13062158203125,-2.4178829799950123,-0.1751578294634819,0.9346882032707333
1733767227435581400,6.14058154296875,-1.965348471087217,-0.07712590977847576,1.0296709645181894
1733767227445541600,6.150541748046875,-1.4949673398435115,-0.1453290929108858,1.0396654120489954
1733767227455501600,6.16050146484375,-0.9324948579449206,-0.361854121029377,1.0543675988793373
1733767227465461500,6.17046142578125,-0.3404676341295242,-0.49291854174435135,1.0543658453136682
1733767227475421700,6.180421630859375,0.2505471247076988,-0.40104689825475215,0.893807911349833
1733767227485381600,6.190381591796875,0.5599229435462504,-0.1330377666145563,0.6179826260659843
1733767227495341600,6.200341552734375,0.6974269688546657,-0.018299042278528212,0.43096039048135276
1733767227505301500,6.210301513671875,0.7086030273854732,-0.24749124426841734,0.21231793181747197
1733767227515261700,6.22026171875,0.6968681659281254,-0.5550158092170954,-0.02680968099236488
1733767227525221600,6.2302216796875,0.6834580647349358,-0.6350462082654237,-0.3567223110988736
1733767227535181600,6.240181640625,0.6789128225207328,-0.6727724200695753,-0.8147089479327201
1733767227545141500,6.2501416015625,0.6924701501648872,-0.6187187583208084,-1.1883482723671943
1733767227555101700,6.260101806640625,0.6647931117534637,-0.24315759897828101,-1.5627271631225943
1733767227565061600,6.2700615234375,0.46383916225433347,-0.015047347006201743,-1.7025553205296395
1733767227575021600,6.280021484375,0.011215952149778604,-0.09177870450913905,-1.5792808230385182
1733767227584981500,6.2899814453125,-0.6651169368803501,-0.15915362012386322,-1.2732803989171981
1733767227594941700,6.299941650390625,-1.2818366303384303,0.031958734318614006,-0.8231234327957033
1733767227604901600,6.309901611328125,-1.8320286726608872,0.7275041272103786,-0.3048904901180416
1733767227614861600,6.319861572265625,-2.2619280097819865,1.6962749250859022,0.262836953166686
1733767227624821800,6.32982177734375,-2.6444050859928128,2.370174303358793,0.9331564636588096
1733767227634781700,6.33978173828125,-2.9202640543505547,2.603714179164171,1.6726462122172117
1733767227644741600,6.34974169921875,-3.1459210679516194,2.400413958799839,2.3472443864092227
1733767227654701600,6.35970166015625,-3.4599615906655785,1.9363474175304174,2.8219708533808587
1733767227664661800,6.369661865234375,-3.809542797838151,1.567328811699152,3.1417008199080825
1733767227674621700,6.37962158203125,-4.034391709926724,1.461797476169467,3.3422426814749837
1733767227684582400,6.38958251953125,-4.202634937696159,1.5777286251604556,3.5659888930186625
1733767227694542600,6.39954248046875,-4.290158030587435,2.0094722749739886,4.075106582152843
1733767227704502500,6.40950244140625,-4.425781137520074,2.6078701297998426,4.786969488117099
1733767227714462500,6.41946240234375,-4.635932246692478,3.4601965684652325,5.502061292999983
1733767227724422400,6.42942236328125,-4.814403146226704,3.9655315241903066,6.03607347715497
1733767227734382600,6.439382568359375,-4.899635497832298,3.8896670126497743,6.216876034507155
1733767227744342500,6.449342529296875,-5.447145461463928,3.1441403220146893,5.9131666439324615
1733767227754302500,6.459302490234375,-6.940342869025469,1.850341451203823,5.132731721523403
1733767227764262700,6.4692626953125,-9.387968660855293,0.39722821674942965,4.213363252459466
1733767227774222600,6.47922265625,-11.767939551085233,-0.2898959692776203,3.2488457281142473
1733767227784182500,6.4891826171875,-12.191945884644985,0.004837503159046173,2.3169816423535345
1733767227794142500,6.499142578125,-10.09604211140871,0.9048661887198686,1.8078037474647164
1733767227804102700,6.5091025390625,-6.937089420187473,1.6830343352407215,1.5880720322594046
1733767227814062600,6.5190625,-3.9081250448822975,2.2018647323548795,1.4099267114177345
1733767227824022500,6.5290224609375,-1.2649486239016055,2.7392899398237467,1.176658346030116
1733767227833982500,6.538982421875,1.0545020389139652,3.4105975480377673,0.8709124811917542
1733767227843942700,6.548942626953125,2.8413877937734124,4.104047429955005,0.39950113011747596
1733767227853902600,6.558902587890625,4.216627514952421,4.910535662031173,-0.010557049849629402
1733767227863862500,6.568862548828125,6.329622708243131,6.030419396916032,-0.3986830917328596
1733767227873822500,6.578822509765625,8.085055340218544,7.289426940330863,-0.8251388642713428
1733767227883782700,6.58878271484375,8.724598275381327,7.631293335342407,-0.7910895874142646
1733767227893742600,6.59874267578125,9.389459776195883,7.0787594060689205,-0.6738105309456587
1733767227903702500,6.60870263671875,8.907470624744892,5.908374148958921,-0.874333395551145
1733767227913662700,6.618662841796875,7.425112006583809,3.534189440914988,-0.9116340754196047
1733767227923622700,6.62862255859375,6.467679764324426,1.2359668595671653,-0.8685290931865572
1733767227933582600,6.63858251953125,6.043073711305857,-0.4262058894306421,-0.9227738935932517
1733767227943542500,6.64854248046875,5.573119281041622,-1.737429942294955,-1.066262911595404
1733767227953502700,6.658502685546875,5.059250890249014,-2.630081961607933,-1.0487255013391374
1733767227963462700,6.668462646484375,4.625179382009804,-3.029144408047199,-0.8379691197499632
1733767227973422600,6.678422607421875,3.9811528716921805,-2.8961352830052376,-0.720024585109949
1733767227983382500,6.688382568359375,3.4727132279500363,-2.690972775900364,-0.8007903857607394
1733767227993342700,6.6983427734375,3.0751518337234853,-2.7187819893240928,-1.0247040628258137
1733767228003302700,6.708302734375,2.5828356417864557,-2.61048644977808,-1.1986997897073626
1733767228013262600,6.7182626953125,2.4436609798520803,-2.1733412331819535,-1.1111737742066383
1733767228023222500,6.728222412109375,2.4843571473777293,-1.4606167419523,-1.2339946827113628
1733767228033182700,6.7381826171875,2.1190651608541606,-1.1056833600968121,-1.4073214973554014
1733767228043142700,6.748142578125,1.200455985724926,-0.8628922563433646,-1.2526827243074774
1733767228053102600,6.7581025390625,0.2902240321882069,-0.8763158015400171,-1.0697872863292694
1733767228063062800,6.768062744140625,-0.11223112542927265,-1.2877724501281975,-1.1525361505560576
1733767228073022700,6.778022705078125,-0.038597441680729386,-1.743064148789644,-1.5425339776605367
1733767228082982700,6.787982666015625,0.5605979932636023,-1.9208014733523129,-1.8891230172798037
1733767228092942600,6.797942626953125,1.6190850101605057,-2.1705004567980763,-2.048400409913808
1733767228102902500,6.807902587890625,2.5582430523216724,-2.461615154215693,-2.0905650425568223
1733767228112862500,6.817862548828125,3.25643048415482,-2.6153344743311404,-1.9810469754785298
1733767228122822400,6.827822509765625,3.5202383647128936,-2.6588877848535772,-1.7833004437185822
1733767228132782300,6.8377822265625,3.3954663221403956,-2.8727216741919515,-1.5629960431918501
1733767228142742500,6.847742431640625,3.003868512493372,-3.109907213023305,-1.1985448914065957
1733767228152702500,6.857702392578125,2.4178595991194247,-3.097641021168232,-0.728792121194303
1733767228162662400,6.867662353515625,1.7488789725482463,-2.7350848893493414,-0.3094926501512527
1733767228172622300,6.877622314453125,1.0183443916007875,-2.103597834870219,0.01150938213840127
1733767228182582500,6.88758251953125,0.08545768479406833,-1.3142179739832878,0.4151499501481652
1733767228192542500,6.89754248046875,-0.9287851167067885,-0.5534674107313156,1.0684491695933043
1733767228202502400,6.90750244140625,-2.2308540954738856,0.2306312948822975,2.1772306418359277
1733767228212462600,6.917462646484375,-4.583167747971415,1.098822242155671,4.06759722943604
1733767228222423600,6.927423583984375,-6.519318766146898,2.1451737078398465,5.8095390961974855
1733767228232383500,6.937383544921875,-6.263309868901968,3.0283991426378485,5.1094876240581275
1733767228242343700,6.94734375,-4.884349958156049,3.06314195471704,3.0214035846620795
1733767228252303600,6.9573037109375,-3.520396477884054,2.567291451174021,1.7837635311856865
1733767228262263600,6.967263671875,-2.8004180700033903,2.2002432686328888,1.257795829537511
1733767228272223500,6.977223388671875,-2.7531244039088487,1.6490280207425354,0.9464224802061915
1733767228282183700,6.98718359375,-2.838295380716026,0.5355716885566711,0.7376764155261218
1733767228292143600,6.9971435546875,-2.4771572990015147,-0.5526379741698503,0.6087934305034578
1733767228302103600,7.007103515625,-1.6975167418405412,-1.1277519840419292,0.4916160808436572
1733767228312063500,7.0170634765625,-0.7080223048880696,-1.562401292169094,0.309685103983432
1733767228322023700,7.027023681640625,0.27652678461670877,-1.8298323316603897,-0.11076017609387635
1733767228331983600,7.036983642578125,1.2559390957549215,-0.6358183616816997,-1.090857693017274
1733767228341943600,7.046943603515625,2.014643686262518,2.8562650449097156,-2.6196575982272625
1733767228351903700,7.05690380859375,2.3501029907107354,6.421584952625632,-3.9263437154009937
1733767228361863700,7.06686376953125,1.2177480429179965,8.835101554104686,-4.178111029553413
1733767228371823600,7.07682373046875,-1.7660364435762166,8.488013040530682,-2.3810876193001866
1733767228381783600,7.086783447265625,-4.478287569826841,4.7461108235061165,-0.4800302724681794
1733767228391744300,7.096744140625,-2.7696318865954876,2.703514862087369,-1.4766430169932543
1733767228401704200,7.1067041015625,-0.18698855251073837,1.3553192151784896,-3.286301598544419
1733767228411664100,7.1166640625,0.7132261571414769,-0.8202958081543446,-4.587799499425292
1733767228421624000,7.1266240234375,1.7914181375920772,-2.4329344186544417,-5.1646448631346225
1733767228431584000,7.136583984375,2.9149121719285844,-3.3407202942132947,-5.6061617189437145
1733767228441544200,7.146544189453125,4.4906642363190645,-3.8741023637712,-5.8874523569613695
1733767228451504000,7.156504150390625,6.405491311436891,-3.9656601190060377,-5.565243433099985
1733767228461464000,7.166464111328125,7.797190584507584,-2.9538088888168335,-4.517257059690356
1733767228471424300,7.17642431640625,7.852877400416135,-1.8770640384346247,-3.4512934233024715
1733767228481384200,7.18638427734375,7.575658541882038,-0.9400988301426172,-2.495244159834087
1733767228491344100,7.19634423828125,7.286371644413471,-0.5526543407827615,-1.289951839993894
1733767228501304000,7.206303955078125,7.038996720001101,-0.3530640808522701,-0.044909985828399654
1733767228511264300,7.21626416015625,6.906189839532971,0.2775298241794109,1.5916902227565646
1733767228521224200,7.22622412109375,6.640605304691195,0.7623392937481402,2.8787378657415506
1733767228531184000,7.23618408203125,6.12497691848874,1.3339204533189535,3.935722369121015
1733767228541144000,7.24614404296875,5.533278853562474,1.8349276089727877,5.43251955474019
1733767228551104300,7.256104248046875,4.32366165626049,1.9557377621769905,6.022591479769349
1733767228561064200,7.266064208984375,2.912493712610006,2.135083106458187,5.668784471595287
1733767228571024100,7.276024169921875,1.5077917501032352,1.8318623761832713,4.674927747780084
1733767228580984000,7.285984130859375,0.28503742333054544,1.2203215466678141,3.7906969353318214
1733767228590944300,7.2959443359375,-0.8098685221642256,0.40325522195398805,3.240184867274761
1733767228600904200,7.305904296875,-1.6856524087846279,-0.3008528320997953,2.8429095965132114
1733767228610864000,7.315864013671875,-2.589813079583645,-0.3949193552851677,2.4818857888281345
1733767228620824300,7.32582421875,-3.4927708043336865,-0.2771767729580402,2.1242402254045007
1733767228630784300,7.3357841796875,-4.2435318884909154,-0.006353752940893173,1.6783549452528357
1733767228640744200,7.345744140625,-4.675321715533733,0.18702888452112673,1.017883203829825
1733767228650704100,7.3557041015625,-4.769925414335727,0.22517069138884543,0.49209232005327935
1733767228660664300,7.365664306640625,-4.618777406013011,0.25128479133248327,0.13346475985497236
1733767228670624300,7.375624267578125,-4.217425971853733,0.19834815091490746,-0.21045244847284628
1733767228680584200,7.385584228515625,-3.7709891952991486,0.03628711891174316,-0.3662944415643811
1733767228690544000,7.395544189453125,-3.0919173828244206,0.047722705161571496,-0.364666548101604
1733767228700504300,7.40550439453125,-2.337539277213812,-0.01227554420530796,-0.22097822640137746
1733767228710464300,7.41546435546875,-1.7238412696644663,-0.267643220937252,0.06942399363163858
1733767228720424200,7.425424072265625,-1.1122492214184254,-0.5752654010415077,0.15654228684799745
1733767228730384100,7.435384033203125,-0.5375006838578731,-0.5749497592210769,-0.024354122800100592
1733767228740344300,7.44534423828125,-0.08396781156249344,-0.5273036264270544,-0.09766573498742655
1733767228750304300,7.45530419921875,0.22031565257310867,-0.5369511602163315,-0.06142594408243894
1733767228760264200,7.46526416015625,0.4542634515922516,-0.5236000957340001,-0.012217987065482884
1733767228770224400,7.475224365234375,0.6591746873497962,-0.4569406349122524,-0.0009001637101173401
1733767228780184300,7.485184326171875,0.8077274184823036,-0.25346038180589675,0.018583704438805578
1733767228790144300,7.495144287109375,0.795883835953474,0.030500352203845976,-0.043182431383430954
1733767228800104200,7.505104248046875,0.7944376557331532,0.43420857862234113,-0.15790013119773938
1733767228810064400,7.515064453125,0.6614017157495021,0.8549602943003177,-0.2220151499673724
1733767228820024300,7.5250244140625,0.415618444442749,1.010574049860239,-0.08145312532782555
1733767228829985000,7.534985107421875,0.061078884210437535,1.0044406616717576,0.1694154864192009
1733767228839945200,7.5449453125,-0.3641759881056845,0.9308131154030561,0.4511731574267149
1733767228849905200,7.5549052734375,-0.8590507784843444,0.8476455873727798,0.7647399251490831
1733767228859865000,7.564864990234375,-1.2325064899802207,0.6483522645622491,1.1180790235504507
1733767228869825000,7.574824951171875,-1.554400356543064,0.3487041320770979,1.4874600329533219
1733767228879785200,7.58478515625,-1.915424456489086,0.0508206711769104,1.876710694952309
1733767228889745200,7.5947451171875,-2.269691483390331,-0.14840776970386504,2.2348133544936775
1733767228899705000,7.604705078125,-2.7642960785254833,-0.008446341305971146,2.589454475404322
1733767228909665000,7.6146650390625,-3.3946582206279037,0.46980070100724697,2.898985996261239
1733767228919625200,7.624625244140625,-3.906303382413089,0.928785993489623,3.1065418282434343
1733767228929585200,7.634585205078125,-4.176067541027069,1.1935013442814348,3.2409201958119866
1733767228939545000,7.644545166015625,-4.2940053536653515,1.2419564553707838,3.3237934170708057
1733767228949505300,7.65450537109375,-4.410684982936084,1.3543734587609768,3.484569669960439
1733767228959465200,7.66446533203125,-4.617084338359534,2.063541718813777,3.7091859423369167
1733767228969425200,7.674425048828125,-4.887477442526817,3.2901153116136785,3.870161809451878
1733767228979385000,7.684385009765625,-4.933254858839511,3.9260926632493733,3.84355349625051
1733767228989345300,7.69434521484375,-4.971910460448265,3.7627702330082653,3.7234140819147226
1733767228999305200,7.70430517578125,-5.21004467830658,2.819723074454069,3.550295649324357
1733767229009265200,7.71426513671875,-5.769109470653533,1.6379174286633729,3.1871655170097943
1733767229019225000,7.72422509765625,-6.530757859528064,0.9203215320050716,2.723800402007997
1733767229029185300,7.734185302734375,-6.9524763744115825,0.7366846280097961,2.3434642833486197
1733767229039145200,7.744145263671875,-6.550624589514732,0.8219219480514526,2.013592569774389
1733767229049105200,7.754105224609375,-5.206327119088173,1.1019289759993554,1.8121408998861908
1733767229059065300,7.7640654296875,-3.271054637312889,1.6124591622799633,1.7610042946279048
1733767229069025300,7.774025390625,-1.2648200290858744,1.8182488613724708,1.7144193613246081
1733767229078985200,7.783985107421875,0.519816485542059,1.932539841940999,1.2411480615973471
1733767229088945200,7.793945068359375,1.5334347254037857,2.5797704089969393,0.7395780113637447
1733767229098905300,7.8039052734375,3.2737744176656007,4.209050357696413,-0.04649288937197998
1733767229108865300,7.813865234375,5.415393063372373,5.927217965638637,-0.8457493983626365
1733767229118825200,7.8238251953125,6.801302647125721,7.124473109495639,-1.3329559922009706
1733767229128785200,7.83378515625,8.011258282601833,7.110258121660351,-1.7238070751339196
1733767229138745300,7.843745361328125,8.746930518698692,5.665656694963574,-1.9761238398626446
1733767229148705300,7.853705322265625,7.948685214310884,2.988977817353606,-1.8852400383666157
1733767229158665200,7.863665283203125,6.595339345031976,0.23360884938836096,-1.6827587331697345
1733767229168625200,7.873625244140625,5.661750335174799,-1.4027730402708052,-1.8124831374526023
1733767229178585300,7.88358544921875,5.054435598921776,-2.148570364540815,-1.9980039554983375
1733767229188545300,7.893545166015625,4.584886826848983,-2.5491040525764226,-2.038373375287652
1733767229198505200,7.903505126953125,4.237417789524794,-2.702044205012917,-1.921726479242742
1733767229208465400,7.91346533203125,3.7788597825437784,-2.543205642187595,-1.6105886922329664
1733767229218425300,7.92342529296875,3.208621854275465,-2.1994155856370923,-1.2254910582602023
1733767229228385300,7.93338525390625,2.758591437143087,-1.876395345392823,-0.7736854481488465
1733767229238345200,7.94334521484375,2.4435706712201237,-1.5435118827819823,-0.30749793267007913
1733767229248305400,7.953305419921875,2.2099112606883047,-1.0813748482704162,0.27220775237381456
1733767229258265300,7.963265380859375,2.2271537796512244,-0.821669434595108,0.6234630302384495
1733767229268225300,7.973225341796875,2.242070486015081,-0.8165525299727916,0.8137100000232458
1733767229278185200,7.983185302734375,2.203267877151072,-1.0140344194471835,1.0974062378779053
1733767229288145400,7.9931455078125,2.111129399418831,-1.199625964641571,1.4064204568624497
1733767229298105300,8.003105224609374,1.9382722481131553,-1.4129215093195437,1.5898992476865648
1733767229308065300,8.013065185546875,1.8149758310511708,-1.4742191508471965,1.6458239640042185
1733767229318025200,8.023025146484375,1.859908905494213,-1.2484276972115038,1.6866624626100062
1733767229327985400,8.0329853515625,1.8994225852370261,-0.8582815476775169,1.659719218365848
1733767229337945300,8.0429453125,1.8400199636757373,-0.524212090152502,1.763450810997188
1733767229347905300,8.0529052734375,1.700072271542251,-0.3773977271199226,1.8796935101553796
1733767229357865200,8.062865234375,1.5161109578981995,-0.4210995062023401,1.90782625644505
1733767229367825200,8.0728251953125,1.2883598946273327,-0.4972556941658258,1.7897458204656838
1733767229377785000,8.08278515625,0.8415916941612959,-0.4596645069181919,1.5895768838644027
1733767229387745000,8.0927451171875,0.4385797794438898,-0.5043453601658344,1.3203990007057784
1733767229397704400,8.102704345703126,0.19999679490476846,-0.5652104554951191,1.1721107657283545
1733767229407664400,8.112664306640625,-0.16136194382309912,-0.648311348029971,0.9579086275994777
1733767229417624300,8.122624267578125,-0.3761431970141828,-0.6372422570049763,0.7246192194238305
1733767229427584500,8.13258447265625,-0.6286065306067466,-0.39231004956960674,0.36670243784338236
1733767229437544400,8.14254443359375,-0.8350302898190916,-0.4207335954993963,0.07985856787906959
1733767229447504400,8.15250439453125,-0.664001669114828,-0.5142985989034176,-0.21279168680906294
1733767229457464600,8.162464599609375,-0.30631986533403394,-0.6584282528966665,-0.45436756955385205
1733767229467424500,8.172424560546874,0.20764774804934857,-0.7870423578500747,-0.4709818005505949
1733767229477384400,8.182384521484375,0.7900127519629895,-0.7787520838886499,-0.3104191904116422
1733767229487344400,8.192344482421875,1.2623732204556464,-0.5214999085843562,-0.19325258134156464
1733767229497304300,8.20230419921875,1.320006494256854,-0.09098083212971687,-0.13464549407213924
1733767229507264300,8.21226416015625,0.9822032570309936,0.5736895300269127,-0.23718341993950307
1733767229517224200,8.22222412109375,0.33317221642434597,1.320058516705036,-0.3367693641334772
1733767229527184100,8.23218408203125,-0.6527950693152844,1.8389567183583975,-0.06740465316586196
1733767229537145300,8.242145263671874,-1.5465231934271753,1.5721581315517426,0.5529259242657572
1733767229547105300,8.252105224609375,-2.10184368467927,0.6473036322921514,1.1013508838504553
1733767229557065200,8.262065185546875,-2.115726517950743,-0.41276773118674753,1.4636983413547278
1733767229567025400,8.272025390625,-1.3481808877311645,-1.701429823631048,2.018511321476102
1733767229576985300,8.2819853515625,-0.2279945166379213,-2.427859015086293,2.6731103714734314
1733767229586945300,8.2919453125,1.6313498868413268,-2.363027938735485,2.9663766939669847
1733767229596905500,8.301905517578126,4.161640079484879,-1.715932396236062,3.1623987400218843
1733767229606865400,8.311865478515625,6.638146221101284,-0.4948018712729215,3.077247052437067
1733767229616825300,8.321825439453125,8.755164094036816,1.8032336630702017,2.7767525322556494
1733767229626785300,8.331785400390626,10.12569607591629,4.653545937055349,2.1283403541997075
1733767229636745500,8.341745361328124,10.41055697363615,6.883038096526264,1.5325624726139009
1733767229646705400,8.351705322265625,10.19982864909768,8.266426637369394,1.0819839200794696
1733767229656665300,8.361665283203125,9.288656053709984,8.235105616432428,0.6317866950128227
1733767229666625300,8.371625244140626,7.125130112099647,5.1514241470336914,0.6936530763391405
1733767229676585500,8.38158544921875,5.591897631269693,1.4011241040199993,0.9446730061903595
1733767229686545400,8.39154541015625,4.379134244896472,-0.4284843557566404,0.8735535702850669
1733767229696505300,8.40150537109375,3.488894255161285,-1.359667473515868,0.729666858202219
1733767229706465300,8.41146533203125,2.842386741682887,-1.9231033205538988,0.7187307459071278
1733767229716425500,8.421425537109375,2.3368214843332766,-2.1194518220841885,0.9484379116818308
1733767229726385400,8.431385498046875,1.8605976184107362,-1.448201497015357,1.284841657373309
1733767229736345300,8.441345458984374,1.1724791606493294,-0.10818506490886211,1.6352718825906514
1733767229746305500,8.451305419921875,0.280017549341917,0.9243307676464319,1.9224913261353969
1733767229756265500,8.461265380859375,-0.5262982487767934,1.4472142395436762,2.0161492685198783
1733767229766225400,8.471225341796876,-1.0227174190532415,1.4356249240368604,1.8525149958506226
1733767229776185300,8.481185302734374,-1.317739572238177,0.9960609558612108,1.6958248432308434
1733767229786145500,8.4911455078125,-1.5153589704871178,0.2189589772671461,1.4417881228417158
1733767229796105500,8.50110546875,-1.5347650972247122,-0.5285679472744464,1.098108979319781
1733767229806065400,8.5110654296875,-1.4850176082372664,-0.8946376401722431,0.7849106065183877
1733767229816025300,8.521025390625,-1.376297705799341,-0.8843751893550157,0.4291407738387584
1733767229825985500,8.530985595703125,-1.202246376273036,-0.6936398515313863,0.2489230123708956
1733767229835945500,8.540945556640626,-1.097526357126236,-0.5043652339100837,0.2112764599405229
1733767229845905400,8.550905517578125,-1.1342523789118975,-0.36436814967691894,0.2868794344680384
1733767229855865300,8.560865234375,-1.185354205117747,-0.09998831444978713,0.4032729402737692
1733767229865825500,8.570825439453126,-1.1802420497357844,0.3289607362091541,0.4098410300850868
1733767229875785500,8.580785400390624,-1.2079969026237725,0.6470365057885646,0.3214230341807008
1733767229885745400,8.590745361328125,-1.2650187665283679,0.5877852753967047,0.21038097240552306
1733767229895705300,8.600705322265625,-1.3449410290271042,0.20408698682785034,0.17027341842278837
1733767229905665300,8.610665283203126,-1.4888579170525074,-0.09052958123087883,0.12251520355641841
1733767229915625200,8.620625244140625,-1.6216192048132418,-0.11877134085297583,0.07722000866956077
1733767229925585200,8.630585205078125,-1.698061808502674,0.06870061126053333,0.14082125096446835
1733767229935545300,8.64054541015625,-1.695217524987459,0.24972353336513042,0.40801242641843855
1733767229945505300,8.65050537109375,-1.629808356487751,0.16723521977066994,0.8046194425296038
1733767229955465200,8.66046533203125,-1.486919057944417,0.00677343965768814,1.163206159260869
1733767229965425200,8.670425048828125,-1.1038245804876088,-0.08153145126104354,1.5018717124044894
1733767229975385300,8.68038525390625,-0.6333049175560475,-0.11557108350694179,1.8106617672443388
1733767229985345300,8.69034521484375,-0.13482991072833536,-0.17681085736751556,2.121667306176573
1733767229995305200,8.70030517578125,0.3554939383476972,-0.21638240477740764,2.385740559672564
1733767230005265200,8.71026513671875,0.7841074003767222,-0.09137012370824814,2.6317849661335346
1733767230015225300,8.720225341796874,1.1970465426076202,0.1715279485285282,2.8961913971066475
1733767230025185300,8.730185302734375,1.6285428665965795,0.36725159615874287,3.2024139395460485
1733767230035145200,8.740145263671875,2.0371394495785236,0.41008769832253456,3.378587375792861
1733767230045105400,8.75010546875,2.6109657577276226,0.3146136464267969,3.4690222644776103
1733767230055065300,8.7600654296875,3.002277443909645,0.10511047976911067,3.4788451548337935
1733767230065025300,8.770025390625,3.068360566148162,-0.5130728565007447,3.3843265039667485
1733767230074985200,8.779985107421876,2.8452228418916463,-0.9201724789232015,2.956819761070609
1733767230084945400,8.7899453125,2.696110138788819,-0.9436544767975806,2.3810407114185392
1733767230094905300,8.7999052734375,2.455719081914425,-0.8557061442315578,1.8592258916661142
1733767230104865300,8.809865234375,2.215494613778591,-0.6588906097114086,1.3533148896187543
1733767230114825200,8.8198251953125,1.9075369181096553,-0.3763146080583334,0.8511600252345204
1733767230124785400,8.829785400390625,1.6089701511204242,0.045054362735152245,0.35236228925846513
1733767230134745300,8.839745361328125,1.3111398817121982,0.4784902034193277,-0.11679119988642632
1733767230144705300,8.849705322265624,1.076048684811592,0.8035685452371836,-0.5675606718830764
1733767230154665200,8.859665283203125,0.9360030852615833,0.9945768547832965,-0.9864886792652309
1733767230164625400,8.86962548828125,0.8003607621718197,1.0298977590113878,-1.3684158665083348
1733767230174585300,8.87958544921875,0.5163777432650327,0.8131880219757557,-1.6680065697178244
1733767230184545300,8.889545166015624,0.2712292444641702,0.2612187408477068,-1.7042524798363445
1733767230194505500,8.89950537109375,0.0393354005664587,-0.3492565052628517,-1.5966051750659942
1733767230204465400,8.90946533203125,-0.3167483203679323,-0.7279781744629145,-1.558497854989767
1733767230214425300,8.91942529296875,-0.6583645400106907,-0.6964233447700738,-1.5613674190767108
1733767230224385300,8.92938525390625,-0.9728501761436462,-0.42384792812764643,-1.4360333587072789
1733767230234345500,8.939345458984375,-1.331599316895008,0.09993629200160503,-1.0486559432342648
1733767230244305400,8.949305419921876,-1.7869044595599173,1.0782973405212164,-0.4220200185807422
1733767230254265300,8.959265380859375,-2.4187726223111152,2.035540197688341,0.22919380942508577
1733767230264225300,8.969225341796875,-2.8713001169562338,2.4564544104516504,1.168480592532456
1733767230274185500,8.979185546875,-3.225430365735292,2.201133495470881,2.0704241718038916
1733767230284145400,8.9891455078125,-3.724931208479404,1.4143518343836068,2.7969299356266855
1733767230294105300,8.999105224609375,-4.340402363181114,0.31831893068552014,3.2435856156289575
1733767230304065500,9.0090654296875,-5.155892232358456,-0.4807762685298919,3.19036285174638
1733767230314025500,9.019025390625,-6.556777266925573,-0.9248924931824207,2.592462717309594
1733767230323985400,9.0289853515625,-8.529992233604192,-0.8967062631398439,1.702920062188804
1733767230333945300,9.0389453125,-10.94808797956705,0.05599427442252636,1.217718378432095
1733767230343905500,9.048905517578126,-10.284287385982275,1.430841781413555,1.3054074755400418
1733767230353865500,9.058865478515624,-6.586674392539263,2.5620862837463614,2.0359552082300185
1733767230363825400,9.068825439453125,-4.066852548548579,3.378001684859395,2.442184477558732
1733767230373785300,9.078785400390625,-2.531206576836109,3.7215807290077207,2.5925480575054882
1733767230383745500,9.08874560546875,-1.238399639672041,3.294007058355212,2.7782348797678944
1733767230393705700,9.098705810546875,0.058412441480159755,2.5231559568494557,2.86845349535346
1733767230403665700,9.108665771484375,1.4362462708055972,1.666906791782379,2.7766850199773905
1733767230413625600,9.11862548828125,2.82484991594851,0.9911562326848506,2.70098534360975
1733767230423586600,9.128586669921875,4.263316785413027,0.5100350962400436,2.8631381455495952
1733767230433545500,9.13854541015625,5.2718444241374725,0.10859832188487052,2.364079201354086
1733767230443506700,9.148506591796876,6.067212711784244,0.1824690292596817,1.6948346631497144
1733767230453466600,9.158466552734374,6.813928904464841,0.4702081127643585,1.196744563986361
1733767230463426600,9.168426513671875,6.791434164062142,0.5225584777265787,0.6638663522973657
1733767230473386800,9.17838671875,6.210905143404006,0.3154465901196003,0.2397653261914849
1733767230483346700,9.1883466796875,5.516904641866684,-0.03180851219296455,0.07139854510761796
1733767230493306600,9.198306640625,4.844760582828521,-0.5654460178166627,0.14220051256157457
1733767230503266600,9.2082666015625,4.192718523837626,-1.085603279620409,0.2449512774620205
1733767230513226800,9.218226806640626,3.5174481494724747,-1.5055740740537642,0.3424562141308561
1733767230523186700,9.228186767578125,2.744908364227414,-1.653779014661908,0.40836894823852926
1733767230533146600,9.238146728515625,1.906995796970278,-1.745958701187372,0.48004883103817697
1733767230543106800,9.24810693359375,1.0975843709237874,-1.5193319657713173,0.5419271950632334
1733767230553066800,9.258066650390624,0.2526426356822252,-0.965049147003889,0.6171984168857335
1733767230563026700,9.268026611328125,-0.6889245134472847,-0.2716185543090105,0.5395853081122041
1733767230572986600,9.277986572265625,-1.7559341517567633,0.07480477335453033,0.5638061051225289
1733767230582946800,9.28794677734375,-3.6388042461216448,0.5590022485047579,0.5791045408129691
1733767230592906800,9.29790673828125,-7.534647317057847,0.7593307595819234,1.0247217446129768
1733767230602866700,9.30786669921875,-11.339271070933341,0.9900631767511368,0.9654315704502164
1733767230612826600,9.31782666015625,-9.29071181719601,0.6243757611691951,-0.28101269785910843
1733767230622786800,9.327786865234375,-4.619010630246996,-0.32328619770407674,-0.6220908651024103
1733767230632746800,9.337746826171875,-1.2792132960975169,-1.0523176806122063,-0.37875878634005783
1733767230642706700,9.347706787109376,0.8616444482393563,-1.50067694966197,-0.65788325929977
1733767230652666600,9.35766650390625,2.188341380045563,-1.639759841659665,-1.0331720314417034
1733767230662626800,9.367626708984375,3.1133389410376546,-1.7738105847090482,-1.0807056437719613
1733767230672586800,9.377586669921875,3.6156139246702192,-2.029922357806563,-0.9292819603130221
1733767230682546700,9.387546630859376,3.780672969445586,-2.3269278668284414,-0.6149556794602423
1733767230692507000,9.3975068359375,3.963736457467079,-2.420988544794917,-0.17599143074341117
1733767230702466800,9.407466796875,3.9021658442169427,-2.133992388612032,0.11340630668848753
1733767230712426800,9.4174267578125,3.5906653613746164,-1.6660083816379307,0.21603907123245297
1733767230722386700,9.42738671875,2.708181100332737,-1.2043652681231498,0.2237528604801744
1733767230732347000,9.437346923828125,1.1763789445668458,-0.7399158650159835,-0.10713263324648141
1733767230742306800,9.447306884765625,-0.9851274739146232,-0.22820845164954662,-0.6581748626574874
1733767230752266800,9.457266845703124,-3.8213241287857294,0.47901861120760436,-1.2480240848466753
1733767230762226700,9.467226806640625,-5.797086441859602,0.9916694429039955,-1.6074097699359058
1733767230772187000,9.477186767578125,-5.8170981332749125,0.9882377148896455,-1.4757855233810842
1733767230782146800,9.487146728515626,-4.519437910860777,0.7148211712479591,-0.891737534816563
1733767230792106800,9.497106689453124,-2.9253146157383916,0.3919558293044567,0.07883855891525746
1733767230802066700,9.507066650390625,-1.838395138952881,0.20001812995374202,0.8788355292759835
1733767230812026600,9.517026611328125,-1.3316472476899623,0.14625205297470092,1.2207856570482254
1733767230821986600,9.526986572265624,-1.3319425773747264,0.11378303104639052,1.4642914849422872
1733767230831946500,9.536946533203125,-1.694056518384069,0.13286591717898844,1.795967179198563
1733767230841906700,9.54690673828125,-2.113790143060684,0.27114567610025403,1.9665961330607533
1733767230851866600,9.55686669921875,-2.3914133446119723,0.38534839386343955,1.973340638884902
1733767230861826600,9.56682666015625,-2.278439291860908,0.25105682779550553,1.2001936815269292
1733767230871786500,9.576786376953125,-1.5253252148367464,-0.3232797679632902,0.3088413466356695
1733767230881746700,9.58674658203125,-0.3275543765425682,-0.12475918309092521,-0.5770321184530854
1733767230891706600,9.59670654296875,0.6355307769119739,2.054626590952277,-1.64036599085927
1733767230901666600,9.60666650390625,0.8999642420224845,5.015623345446587,-2.4581518620193004
1733767230911626500,9.61662646484375,-0.4142968404501676,7.130695929533243,-2.81387405616492
1733767230921586700,9.626586669921876,-2.913207998359203,7.30330641260147,-3.0375381423830983
1733767230931546600,9.636546630859375,-3.487805875402689,4.562607775023579,-3.158782595351338
1733767230941506600,9.646506591796875,-2.0148101288706064,1.3407049988925457,-3.8685137499839066
1733767230951466800,9.656466796875,-0.7079279046028852,-0.9238935452729463,-5.30252890073657
1733767230961426700,9.6664267578125,0.9441478863377124,-2.5936031195163727,-6.231678466841578
1733767230971386600,9.67638671875,2.43297475066483,-3.298891907787323,-6.856598417890072
1733767230981346600,9.6863466796875,3.7448569751769303,-2.9213275919288395,-7.2998133097887035
1733767230991306800,9.696306640625,5.475791710233688,-2.6467127784132956,-6.945369172754884
1733767231001266700,9.7062666015625,7.345659699684381,-1.8346634050786494,-5.796265773126483
1733767231011226600,9.7162265625,8.668915551126002,-0.6405068117588758,-4.464929491081834
1733767231021186600,9.7261865234375,8.667116392749547,-0.1022726259946823,-2.8841394325241443
1733767231031146800,9.736146728515624,8.56496710087359,-0.10483224734961986,-1.4049392783939838
1733767231041106700,9.746106689453125,8.444421736085415,-0.21586159577369687,0.1824035262754187
1733767231051066600,9.756066650390625,7.630969510215521,-0.4047036671966314,1.6635773550987243
1733767231061026600,9.766026611328124,6.543660595721006,-0.6566022065132856,2.8879055070593953
1733767231070986800,9.77598681640625,5.478522011980414,-1.044677394992113,3.5061081325516104
1733767231080946700,9.78594677734375,4.617264663362503,-0.8153133435666561,4.110312043307721
1733767231090906600,9.79590673828125,3.7591222318947315,0.14626315889060496,4.105833144327998
1733767231100866800,9.80586669921875,2.7713948046147823,1.0279062929332257,3.519638645254075
1733767231110826800,9.81582666015625,1.736663634097576,1.9632026912301777,3.767517427535355
1733767231120786700,9.82578662109375,0.7866039664328098,2.171495313054323,3.949461848399043
1733767231130746600,9.83574658203125,-0.2885328642308712,1.5685118840038776,4.049062332575023
1733767231140706800,9.845706787109375,-1.4924129791855811,0.7236071197718381,4.045936309508979
1733767231150666800,9.855666748046875,-2.5520120489776135,0.028154081338644027,3.8545471839517353
1733767231160626700,9.865626708984376,-3.4266637166976928,-0.06474047545790672,3.5432755414292214
1733767231170586600,9.875586669921875,-4.121019607543945,0.08764321213960648,3.009816022720933
1733767231180546800,9.885546875,-4.644288279366493,0.1983773770093918,2.2943805189669133
1733767231190506800,9.8955068359375,-5.040990426415204,0.35134909362792965,1.6656211358860133
1733767231200466700,9.905466796875,-5.180601141679286,0.11841712058782577,1.1667802183553575
1733767231210426600,9.915426513671875,-5.044949977695942,-0.10753098491430282,0.7064286059558391
1733767231220386800,9.92538671875,-4.781705868500471,-0.1462625743687153,0.5309884524196387
1733767231230346800,9.9353466796875,-4.301313046330213,-0.14671382526755333,0.5992261223435401
1733767231240306700,9.945306640625,-3.6619232559025288,0.1559253057271242,0.5276943793103098
1733767231250267000,9.955266845703125,-3.0470015517771243,0.24381810871362686,0.7964312407031655
1733767231260226800,9.965226806640626,-2.42358469876796,0.0192407070428133,1.1918442247241734
1733767231270186800,9.975186767578125,-1.8564907676137983,-0.19131226092875003,1.359121237809956
1733767231280146700,9.985146728515625,-1.3936451464414596,-0.28935704009532925,1.4795909070134161
1733767231290107000,9.99510693359375,-0.8083902663052082,-0.34014322448074813,1.2942673651054502
1733767231300066800,10.00506689453125,-0.21895590852722524,-0.2574392223089933,0.9184270965605974
1733767231310026800,10.01502685546875,0.4491489581227302,-0.14306874676346779,0.5060308290347456
1733767231319986700,10.024986572265625,0.9308779973328113,0.04120411704778671,0.09986264224350452
1733767231329947000,10.03494677734375,1.4604432850815354,0.1635842960476875,-0.26745931573770937
1733767231339906800,10.04490673828125,2.093764423120022,0.35730654072761536,-0.6598945260569453
1733767231349867500,10.054867431640625,2.7888439520657062,0.5427157150924206,-0.9702444506246596
1733767231359827700,10.06482763671875,3.346917395287752,0.519710102558136,-1.202869549672678
1733767231369787600,10.07478759765625,3.1878818485856053,0.9903630364805459,-1.1736205857694149
1733767231379747600,10.08474755859375,1.632424676465988,1.1750070716917513,-0.7689087352663279
1733767231389707500,10.09470751953125,-0.3016530425667763,0.9811877963781356,-0.31978520384579895
1733767231399667200,10.104667236328124,-1.7210662519931792,1.1637164468705654,0.07121727025657892
1733767231409627100,10.114627197265625,-2.9089433266520497,2.328155947318673,0.5210460273370147
1733767231419587300,10.12458740234375,-4.0951206116557115,3.7079572773247955,1.3187179157510398
1733767231429547300,10.13454736328125,-5.125589448553323,4.419649502897262,2.2850980190977452
1733767231439507200,10.144507080078125,-5.844192476427555,4.309268389248848,3.3114351630181074
1733767231449467400,10.15446728515625,-6.17964140561223,3.5054122592419383,4.307384475198388
1733767231459427300,10.16442724609375,-6.236787772679328,2.650505740955472,5.012403798878193
1733767231469387300,10.17438720703125,-6.334353828418254,2.5516665965408087,5.622922884130477
1733767231479347200,10.18434716796875,-6.838425632339716,3.3657144502162932,6.229822025319933
1733767231489307400,10.194307373046875,-7.284922030127048,4.031742072200775,6.776715318357944
1733767231499267300,10.204267333984374,-7.6928814842492335,4.111674271571636,6.88431586137712
1733767231509227300,10.214227294921875,-8.204932596486806,4.026965359318256,6.465761363482475
1733767231519187200,10.224187255859375,-9.138643771418929,3.386242858982086,5.512235481011867
1733767231529147400,10.2341474609375,-10.768663140308856,2.2756126901328564,4.320114192911983
1733767231539107300,10.244107421875,-13.344651108157635,1.6549001276463269,2.641557587607205
1733767231549067300,10.2540673828125,-13.403577928900718,1.989310361433029,1.1237401180520652
1733767231559027200,10.264027099609375,-9.976060810244082,2.7338123851954936,0.30222061332166195
1733767231568987400,10.2739873046875,-6.415234122294187,3.060318129467964,-0.03254356673555448
1733767231578947300,10.283947265625,-3.478468722736835,3.458787286189198,-0.3555661633336916
1733767231588907300,10.2939072265625,-1.574945131921768,3.943812444335222,-1.1518208418935536
1733767231598867500,10.303867431640626,0.864221459120512,4.834257893514633,-2.15225460601151
1733767231608827400,10.313827392578125,3.792987676617503,6.116316642171144,-3.2914977058827875
1733767231618787300,10.323787353515625,6.248471780732274,6.55762190105617,-4.045278137861192
1733767231628747300,10.333747314453126,7.944266228824853,7.046849187067151,-4.058064554198086
1733767231638707500,10.34370751953125,10.458632730019092,6.997232046461105,-3.2337703240573403
1733767231648667400,10.35366748046875,10.578924996829032,6.528349629342555,-2.579569333466887
1733767231658627300,10.36362744140625,9.405874319902061,5.678951645344496,-2.232037460039556
1733767231668587300,10.373587158203126,7.517071912878751,4.14120782456994,-2.1749685421228406
1733767231678547500,10.38354736328125,5.8473038864463565,2.36430511906445,-2.2807447923243043
1733767231688507400,10.39350732421875,5.200747273129225,0.892541544675827,-2.332857256877422
1733767231698467300,10.40346728515625,5.349755346813797,-0.2303343577623367,-1.9596277553528547
1733767231708427300,10.41342724609375,5.476899963736534,-1.0550175872206686,-1.4589111070781946
1733767231718387500,10.423387451171875,5.299602784156799,-1.857967708298564,-1.50162796677649
1733767231728347400,10.433347412109375,5.4309319932878015,-2.0365350539445877,-1.3237483111336827
1733767231738307300,10.443307373046874,5.495250443941354,-2.0089011970877646,-1.2328668477252125
1733767231748267500,10.453267578125,5.70369094980359,-1.609412634190917,-0.6142462160166353
1733767231758227500,10.4632275390625,5.699190131253004,-1.5654688630461693,0.1309570878829807
1733767231768187400,10.4731875,5.30663107535839,-1.7397195145368576,0.5345058859560639
1733767231778147300,10.483147216796874,4.895691436381638,-2.034861567774415,0.8736076385598629
1733767231788107500,10.493107421875,4.3704783524930475,-2.296070371749997,1.0572095443069933
1733767231798067500,10.5030673828125,4.116071922008693,-2.5197259824007747,0.9048356474511324
1733767231808027400,10.51302734375,3.917069983360171,-2.661926714158058,0.23974311435967682
1733767231817987300,10.5229873046875,3.4957547885805367,-2.4204630596160888,-0.11243483130782841
1733767231827947300,10.532947265625,2.872478513085842,-2.8363690888285635,-0.2813549354255199
1733767231837907200,10.5429072265625,2.4704826435431837,-3.7005209898442026,-0.3975279303483665
1733767231847867100,10.5528671875,2.3230714836612343,-4.299530254566669,-0.6599773820348084
1733767231857827300,10.562827392578125,2.578201552245021,-4.076994587856531,-1.0253519322752953
1733767231867787300,10.572787353515626,3.0361709456831214,-3.4865608437776565,-1.521803908842802
1733767231877747200,10.582747314453124,3.350087842017412,-3.0744150438815354,-1.9903470110043882
1733767231887707100,10.59270703125,3.315210589903593,-2.821263289633393,-2.312032495513558
1733767231897667300,10.602667236328125,2.9712521910488605,-2.6893250086933373,-2.679856630863249
1733767231907627300,10.612627197265626,2.4020474052205683,-2.4682465550541877,-2.966390137970447
1733767231917587200,10.622587158203125,1.620994350913167,-2.156198959723115,-2.9940640345767138
1733767231927547100,10.632547119140625,0.635929713101685,-1.69736038223505,-2.8260943630516526
1733767231937507300,10.64250732421875,-1.0509709421783686,-0.556112956804037,-2.8133365882873536
1733767231947467300,10.65246728515625,-3.5181446073040363,0.4653454751640558,-2.2559489353723823
1733767231957427200,10.66242724609375,-6.649104837489127,1.631108333170414,-0.5625443050257861
1733767231967387100,10.67238720703125,-9.759773098012804,2.9237071805417534,2.321817976468801
1733767231977347300,10.682347412109374,-10.521927098321914,4.1043975585669275,4.244555386319756
1733767231987307300,10.692307373046875,-8.251172369614244,4.525485958853364,4.380665984508395
1733767231997267200,10.70226708984375,-5.659181361469626,3.8276574234604834,3.9715810334876176
1733767232007227400,10.712227294921876,-3.5908652678608894,2.745905558571219,3.483921142923832
1733767232017187300,10.722187255859374,-1.9180010289788245,1.8368588692963121,3.188859461446106
1733767232027147300,10.732147216796875,-0.7070026064515114,0.9116822984755039,2.8991341725602746
1733767232037107200,10.742107177734376,-0.06449132300242781,-0.1660772819072008,1.891719025122374
1733767232047067400,10.7520673828125,0.21166122147440908,-1.3426228152126074,0.4215136399611831
1733767232057027300,10.76202734375,0.6036512453094125,-2.5541806251883505,-0.5049513632349669
1733767232066987300,10.7719873046875,1.0304130150571464,-3.587471533769369,-1.1001539291508495
1733767232076947200,10.781947265625,1.4283128474578262,-3.1693864069521425,-1.8901180196665226
1733767232086907400,10.791907470703125,2.187443408292532,0.08167465912401675,-2.8601120757266876
1733767232096867300,10.801867431640625,3.357022025194764,3.3396880285561084,-3.24202406540066
1733767232106827300,10.8118271484375,4.264751786652207,4.874663553661108,-3.094353962321579
1733767232116787200,10.821787109375,4.46641008502841,5.908476440289617,-2.724530177587271
1733767232126747400,10.831747314453125,3.5377883421897884,6.894563114625215,-1.8134078510820864
1733767232136707300,10.841707275390625,1.053652874738723,8.596325531211495,-0.9748265907831489
1733767232146667300,10.851667236328124,-2.3197535912849006,9.459483160492777,-2.331543397799879
1733767232156627500,10.86162744140625,-3.747978906589746,5.951620000967383,-3.994661172562837
1733767232166587400,10.87158740234375,-2.955394112181663,0.05475450349450111,-5.28281706905067
1733767232176547300,10.88154736328125,-0.6058767393391579,-3.7116327509671447,-5.93914922645092
1733767232186507300,10.89150732421875,1.0547200655788183,-5.538979695552587,-6.787582749330997
1733767232196467500,10.901467529296875,2.15840845246613,-6.4511670209407805,-7.488106515157222
1733767232206427400,10.911427490234376,3.595326923444867,-6.661420129182934,-6.993214627513289
1733767232216387300,10.92138720703125,5.303346062338352,-5.513507400643825,-5.6093643143773075
1733767232226347300,10.93134716796875,6.883155585426092,-3.317186858412623,-4.45794153189063
1733767232236307500,10.941307373046875,7.642557072156667,-1.0195663346111774,-3.5292262655496596
1733767232246267400,10.951267333984376,7.741414921271801,0.3905097221493721,-2.459181789588928
1733767232256227300,10.961227294921875,7.690524107468128,1.208572072163224,-1.2400447765305638
1733767232266187300,10.971187255859375,7.208598668903112,1.4666916779518127,0.04377396753579378
1733767232276148200,10.981148193359376,6.915443405568599,2.017459182074666,2.007635999457538
1733767232286108200,10.991108154296874,6.420553856012225,2.169830594712496,3.677413085979223
1733767232296068000,11.001068115234375,6.036413668894768,2.271665998333692,5.366913986885547
1733767232306028300,11.0110283203125,6.233324480482936,2.423530630493164,6.5391761437833305
1733767232315988200,11.02098828125,4.86872831839323,1.973463388481736,6.721541712668538
1733767232325948200,11.0309482421875,2.616495334804058,1.4654758724212646,6.300427593418956
1733767232335908400,11.040908447265625,0.5573474670350551,0.9399714043706655,5.767454689183831
1733767232345868300,11.050868408203126,-0.9261948079526424,0.5945429329633712,5.133747036045789
1733767232355828200,11.060828125,-2.0007330882012844,0.13570318643152712,4.468362680400908
1733767232365788200,11.0707880859375,-2.589294024145603,-0.005714285993576049,3.78136475110203
1733767232375748400,11.080748291015626,-2.9365666621148585,-0.05329904398918152,3.0874653718516227
1733767232385708300,11.090708251953124,-3.280399973285198,0.057853054031729696,2.6047888226583598
1733767232395668700,11.100668701171875,-3.8598692557573315,0.06864332811534404,2.0664608211308715
1733767232405629000,11.11062890625,-4.408717774516344,-0.028046529310941693,1.4540063839018345
1733767232415588900,11.1205888671875,-4.645497070634365,0.05613982037305831,1.0924594291254877
1733767232425548800,11.130548828125,-4.622800085657834,0.22866145611405372,0.8476298052817582
1733767232435508700,11.1405087890625,-4.301696492689848,0.24317513463497162,0.5094572963520885
1733767232445469000,11.150468994140626,-3.834102361816168,0.09349252268970012,0.1572854881644249
1733767232455428900,11.160428955078125,-3.4875475167274472,0.11591536689996719,-0.10622340944707392
1733767232465388800,11.170388916015625,-3.2401603173553943,0.004545826736092567,-0.34818566116094585
1733767232475348700,11.1803486328125,-2.894539830507338,-0.12970248471200466,-0.419054008382
1733767232485309000,11.190308837890624,-2.5118638707235452,-0.16400632085204123,-0.6864566620290279
1733767232495268900,11.200268798828125,-2.152250806619227,-0.10252338588535785,-0.9395736372247337
1733767232505228800,11.210228759765625,-1.7110056073583662,0.22963819219172,-1.106354975748062
1733767232515188700,11.220188720703124,-1.2323920698203146,0.9083803343206643,-1.2091864046692848
1733767232525149000,11.23014892578125,-0.8374933189317584,1.5362328316897154,-1.1963146481364966
1733767232535108900,11.24010888671875,-0.582562572312355,1.790719049412012,-1.0179480857595802
1733767232545068800,11.25006884765625,-0.4363499745652079,1.3021598719209433,-0.6736044869795441
1733767232555029000,11.260029052734374,-0.3954258435025811,0.18183073135614394,-0.14954817191064357
1733767232564989000,11.269989013671875,-0.6866054228499532,-0.9400596671760082,0.4121747337296605
1733767232574948900,11.279948974609376,-1.1202082906641064,-1.5035989745885132,1.0264549250811337
1733767232584908800,11.28990869140625,-1.6865633861497042,-0.8302168981879949,1.7526041305512188
1733767232594869000,11.299868896484375,-2.255501776126772,0.9375093981713056,2.532243518668413
1733767232604829000,11.309828857421875,-2.73470524238199,2.651874691221118,3.3305639341190454
1733767232614788900,11.319788818359376,-2.894541584073007,3.6798242387741804,4.153152237124741
1733767232624748800,11.329748779296875,-2.736972310531139,3.7276124103873967,4.947528883385658
1733767232634709000,11.339708984375,-2.4845406872510907,2.9612019216775893,5.48682806803286
1733767232644669000,11.3496689453125,-2.44393132122606,2.1365315517008305,5.803895537352561
1733767232654628900,11.35962890625,-2.7420784014984965,1.9734177957743406,5.88390723170042
1733767232664589000,11.369589111328125,-3.1595074024945498,2.4740450121998787,5.87668838636279
1733767232674549000,11.379549072265625,-3.6810958661451934,3.339397521176934,5.712717721346021
1733767232684509000,11.389509033203124,-4.07011534973681,4.218789076900482,5.361535800978541
1733767232694468900,11.39946875,-4.328637983368337,4.110936604946851,4.889904377412796
1733767232704428800,11.4094287109375,-4.85607488078624,2.934355415806174,4.3233609197482465
1733767232714388700,11.419388671875,-6.125676006668805,1.570748849275708,3.8422558576554056
1733767232724348700,11.4293486328125,-9.250417800730466,0.408184495049715,3.4351182413101196
1733767232734308600,11.43930859375,-14.955740735650062,-0.4304465957403183,3.9489740648820995
1733767232744268800,11.449268798828125,-16.97608219516277,-0.15626315937936305,4.562679671216011
1733767232754228700,11.459228759765624,-14.268019168251753,0.7004279042363166,3.613634149029851
1733767232764188700,11.469188720703125,-9.58683937433958,2.399897241449356,3.116446843925118
1733767232774148600,11.479148681640625,-5.142051923054456,3.748154847678542,2.8881714645192025
1733767232784108800,11.48910888671875,-2.109633023381233,4.15489849627018,2.073207372781634
1733767232794068700,11.49906884765625,-0.20834347522854804,3.8760634347110985,1.3518360492378472
1733767232804028700,11.509028564453125,1.0306044459760189,4.600144601735472,1.054082644458115
1733767232813988900,11.51898876953125,3.3194483736038207,6.226199743169546,1.0081149662703275
1733767232823948800,11.52894873046875,5.857382797390223,8.463633801555632,1.169308275528252
1733767232833908700,11.53890869140625,8.980034925696254,10.237884531247616,1.4055553644657135
1733767232843868700,11.54886865234375,12.185115161842107,11.856802075886726,2.2446651786834
1733767232853828900,11.558828857421876,12.504385694164037,11.847172662276028,2.5989284061923623
1733767232863788800,11.568788818359375,11.1701922691226,9.096708417487143,2.7628175304055214
1733767232873748700,11.578748779296875,9.759689511382579,5.454953504866361,2.1605752751111984
1733767232883708700,11.588708740234376,8.476075349977611,2.561893976044655,1.25998866340667
1733767232893668900,11.5986689453125,7.720732198727131,0.4532417803943157,0.7407216284409165
1733767232903628800,11.60862890625,7.506259426963329,-1.1511007109254598,0.21748421027315779
1733767232913588700,11.618588623046875,7.962720753926038,-2.7653105162650347,-0.05573945941124111
1733767232923548700,11.628548583984376,7.2558011495828625,-3.675409929463267,0.2514127650937065
1733767232933508900,11.6385087890625,6.193619662082195,-3.7055496316611767,0.4608408572211861
1733767232943468800,11.64846875,5.327601382672786,-3.3535072950720783,0.4693129174903035
1733767232953428700,11.6584287109375,4.901257253815233,-3.16189342084825,0.22512414883337914
1733767232963389000,11.668388916015624,4.781118716262281,-2.956511718034744,-0.2535423610009253
1733767232973348900,11.678348876953125,4.568486896190047,-2.6585294729351996,-0.6495937890559434
1733767232983308800,11.688308837890625,4.25923419227451,-2.3895991347968577,-0.889142696017772
1733767232993268700,11.698268798828124,3.821295779474079,-2.286847785374522,-1.3467754048474132
1733767233003229000,11.70822900390625,3.4522596379861232,-2.1943442737221717,-1.9061014784790575
1733767233013188900,11.71818896484375,2.8652453469619155,-2.025938841128349,-2.606023040628433
1733767233023148800,11.728148681640626,2.522381173084676,-2.1996260135173795,-3.406582759438455
1733767233033108700,11.738108642578124,2.4771280729070306,-2.413083470758796,-4.094342613020539
1733767233043069000,11.74806884765625,2.392278875400126,-2.4028537531673906,-4.4760669711679215
1733767233053028900,11.75802880859375,2.2264631670385597,-2.521235802441835,-4.660391857427358
1733767233062988800,11.76798876953125,2.2517095442369577,-2.6716455596178768,-4.594974505621194
1733767233072948700,11.77794873046875,2.3252339223921297,-2.6957997576653954,-4.1669411085024475
1733767233082909000,11.787908935546875,2.5217685941442847,-2.77697523509562,-3.528100476390123
1733767233092868900,11.797868896484376,2.9899834872648117,-2.5055688622325656,-2.9791964280515906
1733767233102828800,11.807828857421875,2.587080147488415,-1.7253846997141837,-2.437218525714427
1733767233112789000,11.8177890625,2.0269827972233294,-1.4049047916024922,-2.0878639669045804
1733767233122749000,11.8277490234375,1.7690172129526733,-1.4069757526576518,-1.967207396826893
1733767233132708900,11.837708984375,1.49623809043169,-1.2950263667792081,-1.8924743735343217
1733767233142668800,11.847668701171875,1.113247950132191,-0.9858949511557817,-1.8601811465643345
1733767233152629800,11.857629638671876,0.5056035435333848,-0.6484978105127811,-1.7682539734952152
1733767233162589700,11.867589599609374,-0.7228422728791832,-0.029327216771245,-1.314713648545742
1733767233172549600,11.877549560546875,-2.9745827967762946,1.0020096351325511,-0.0006447276443243027
1733767233182509800,11.887509765625,-4.823286709906161,2.3373078065454957,1.804190963795036
1733767233192469800,11.8974697265625,-5.380402998533845,3.525956450098753,2.7241815102800726
1733767233202429700,11.9074296875,-5.403878566667437,3.976530472588539,2.66122324206382
1733767233212389600,11.9173896484375,-5.168853420740366,3.623755145549774,3.147018507799506
1733767233222349800,11.927349853515626,-5.065619840759038,2.9605899272590874,4.339849113212526
1733767233232309800,11.937309814453124,-5.103783274936676,2.3498341106414795,5.349036384889483
1733767233242269700,11.947269775390625,-4.589125195071101,1.3824439534693955,5.285630372905731
1733767233252229600,11.957229736328125,-3.621904841507971,0.00539747512936592,3.945174380338192
1733767233262189800,11.96718994140625,-2.436952275993675,-1.2649801880836486,2.288286732136458
1733767233272149800,11.977149658203125,-1.1022329273819922,-2.4108231246113774,0.8944172754198312
1733767233282109700,11.987109619140625,0.37194852180331944,-3.408572764211893,-0.26725845940336584
1733767233292070000,11.99706982421875,1.678055962306261,-2.395795651349425,-1.55623575527668
1733767233302029800,12.00702978515625,1.8464836067318915,1.7151380309879778,-2.8049405158638954
1733767233311989800,12.01698974609375,0.6284358502149582,6.450128910064697,-3.4802678811132908
1733767233321949700,12.02694970703125,-3.0863211702525613,10.931427936667204,-2.3703934990674256
1733767233331910000,12.036909912109374,-4.090290122759342,11.801181310951709,-0.36548122548535467
1733767233341869800,12.046869873046875,-1.5211901608586311,7.479883461213111,0.2109977891296148
1733767233351829800,12.056829833984375,1.5128060711339115,3.0696237179517745,-1.1251501309804617
1733767233361789700,12.066789794921876,2.520548404699564,-0.6785171012014151,-2.1584970075324175
1733767233371750000,12.07675,3.0585604721456763,-2.964624881863594,-2.762302858881652
1733767233381709800,12.086709716796875,4.178029196488857,-3.2636195188760757,-3.7397523455142974
1733767233391669800,12.096669677734376,5.6165796525835985,-3.208759216919541,-4.5716859844923015
1733767233401629400,12.10662939453125,6.945401321458816,-3.2535201496660706,-4.401668148265779
1733767233411589400,12.11658935546875,7.389539757943153,-3.6616508687019347,-3.0369764168471094
1733767233421549600,12.126549560546875,7.317401573449373,-3.1199633276134726,-1.9547455362692474
1733767233431509500,12.136509521484374,7.825344081324339,-1.681293629053235,-1.4379612580299377
1733767233441469400,12.146469482421875,8.542209325620531,-0.2987275105088949,-0.7544974211413413
1733767233451429400,12.156429443359375,9.046643533113599,0.5470516984701156,0.3167617643713951
1733767233461389600,12.1663896484375,9.192751209181546,0.9517097729593514,1.0360945678249
1733767233471349500,12.176349609375,8.746886679556965,1.1157096640706061,1.6086542170390485
1733767233481309400,12.186309326171875,8.131213864803314,1.415302851498127,2.23829593591243
1733767233491269600,12.19626953125,7.262106971728802,1.5906255161345004,2.5140184184089303
1733767233501229600,12.2062294921875,6.002684417772293,1.5840893923640251,2.7029358931556344
1733767233511189500,12.216189453125,4.383765704089403,1.2117851889908313,3.0425305438429113
1733767233521149400,12.2261494140625,2.9563690946936605,0.567939003676176,2.780613591597974
1733767233531109600,12.236109619140626,1.6883464701741933,-0.09602174890637397,1.8559724428281188
1733767233541069600,12.246069580078125,0.6227578776437789,0.09557926583588122,1.22457248211056
1733767233551029500,12.256029541015625,-0.30990411702897397,0.6797568721294402,0.9078954734131693
1733767233560989400,12.265989501953126,-1.2355594478100538,0.9809925660669803,1.0774088672488926
1733767233570949600,12.27594970703125,-1.957221278733015,1.3374533036202192,1.3719845187753439
1733767233580909600,12.28590966796875,-2.6913047843337057,1.712942566770315,1.6968489255815744
1733767233590869500,12.295869384765625,-3.4278608175277707,1.8817665170371531,2.2560069491699335
1733767233600829400,12.305829345703126,-4.048858042174578,1.7994956455856561,2.754449515032768
1733767233610789600,12.31578955078125,-4.549404010057449,1.560517962640524,3.125567138969898
1733767233620749600,12.32574951171875,-4.9375791517794125,1.0535855085909367,3.3645053666874762
1733767233630709500,12.33570947265625,-4.968368257796764,0.13949381088614463,3.3552342649951576
1733767233640669700,12.345669677734374,-4.858568158906698,-0.8596171801954507,3.220404062005877
1733767233650629600,12.355629638671875,-4.622907637685537,-1.4152490754842757,2.9516201466009018
1733767233660589600,12.365589599609375,-4.008104299242794,-1.5570768822759389,2.5930548379838467
1733767233670549500,12.375549560546874,-3.236150497192144,-1.406791043740511,2.3099463368892668
1733767233680509400,12.385509521484375,-2.4753952577650544,-1.167652617275715,2.2865426649481058
1733767233690469400,12.395469482421875,-1.784879675734043,-0.9624515317261219,2.330809968958795
1733767233700429300,12.40542919921875,-1.2279729382038116,-0.8387637772589921,2.1664292618364094
1733767233710389200,12.41538916015625,-0.7262286273818462,-0.6883329772949218,1.8642109866023062
1733767233720349400,12.425349365234375,-0.20296938097476958,-0.4730664248049259,1.5262264014601707
1733767233730309400,12.435309326171875,0.30576698069162667,-0.3440291260033846,1.0514955505743622
1733767233740269300,12.445269287109374,1.013867173121497,-0.26185586970746516,0.46813481362164017
1733767233750229200,12.455229248046875,1.9734195493400095,-0.16391162830591202,-0.20486469320207834
1733767233760189400,12.465189453125,2.8180758917689324,-0.2676058115363121,-0.7289250999242067
1733767233770150400,12.475150390625,3.7492636857032773,-0.6913947029531001,-0.8802858742147683
1733767233780110300,12.4851103515625,4.895945995664596,-0.04816811084151268,-1.472338159406185
1733767233790070500,12.495070556640625,5.0473266436994075,0.48198155266642567,-1.7222157142892478
1733767233800030500,12.505030517578126,4.867671502816677,0.9666162501901387,-1.859974371945858
1733767233809990400,12.514990478515625,3.9820273164391513,1.4106921428322792,-1.9465204364985227
1733767233819950600,12.52495068359375,1.494846928334236,1.4272750288426874,-1.624839920425415
1733767233829910500,12.53491064453125,-0.4926933546863496,0.8936556433975696,-1.11130119997859
1733767233839870500,12.544870361328124,-1.6510032663382588,0.6477630664974451,-0.7592939347028732
1733767233849830400,12.554830322265625,-2.5477649129271507,0.860938784188032,-0.5521703566581011
1733767233859790600,12.56479052734375,-3.4730534196898337,1.4871341619998215,-0.21042671124339102
1733767233869750500,12.57475048828125,-4.049477050855756,2.0540940915107724,0.35676932857837523
1733767233879710500,12.58471044921875,-4.442739286583662,2.2810662793636323,1.0646341413497924
1733767233889670400,12.59467041015625,-4.680347142480313,2.032675455906987,1.8545742664679883
1733767233899630600,12.604630615234376,-5.017666833972931,1.4559943428486586,2.7305840707987543
