time,seconds_elapsed,z,y,x
1733767635511554800,0.036554931640625,0.028315704315900803,0.1088704913854599,-0.05127698928117752
1733767635521514800,0.0465146484375,0.017549261450767517,0.0690058097243309,-0.05864742398262024
1733767635531474700,0.056474609375,0.018266450613737106,0.031489335000514984,-0.057422101497650146
1733767635541434600,0.0664345703125,0.017978623509407043,0.01313309371471405,-0.06115144118666649
1733767635551394800,0.076394775390625,0.010572903789579868,-0.0002607423812150955,-0.06699201464653015
1733767635561354800,0.086354736328125,0.004061795771121979,-0.05880877003073692,-0.07504604011774063
1733767635571314700,0.096314697265625,-0.000822708010673523,-0.13247206807136536,-0.0777621939778328
1733767635581275600,0.106275634765625,0.009064286947250366,-0.16749338805675507,-0.0970696285367012
1733767635591235600,0.116235595703125,0.04667451232671738,-0.11272681504487991,-0.1458646059036255
1733767635601195500,0.126195556640625,0.10713235288858414,0.07439421862363815,-0.21843566000461578
1733767635611155500,0.136155517578125,0.19964736700057983,0.301697701215744,-0.37790971994400024
1733767635621115600,0.14611572265625,0.40489494800567627,0.4262470304965973,-0.6436452865600586
1733767635631075600,0.15607568359375,0.7351687550544739,0.38243430852890015,-0.6779888868331909
1733767635641035500,0.166035400390625,0.8142847418785095,-0.03880481421947479,-0.2726437747478485
1733767635650995500,0.175995361328125,0.4813174307346344,-0.4473142623901367,0.3563604950904846
1733767635660955600,0.18595556640625,-0.07802893221378326,-0.5243381261825562,0.8046998977661133
1733767635670915600,0.19591552734375,-0.573114275932312,-0.27924633026123047,0.7464192509651184
1733767635680875500,0.20587548828125,-0.8615422248840332,-0.21932227909564972,0.5884535908699036
1733767635690836700,0.215836669921875,-0.9439800977706909,-0.39962440729141235,0.4576212763786316
1733767635700796700,0.225796630859375,-0.8432724475860596,-0.6859719753265381,0.19425921142101288
1733767635710756600,0.235756591796875,-0.6703494191169739,-0.9798123836517334,-0.2238655984401703
1733767635720716800,0.245716796875,-0.4977150559425354,-1.3388785123825073,-0.5715764164924622
1733767635730676700,0.2556767578125,-0.3910410702228546,-1.5094270706176758,-0.7025949358940125
1733767635740636700,0.26563671875,-0.38042306900024414,-1.3570321798324585,-0.8223795294761658
1733767635750596600,0.2755966796875,-0.4201025664806366,-0.8945968151092529,-0.9271640181541443
1733767635760556800,0.285556884765625,-0.43316084146499634,-0.1967439502477646,-0.987247884273529
1733767635770516700,0.295516845703125,-0.37522563338279724,0.5512894988059998,-1.0032708644866943
1733767635780476700,0.3054765625,-0.2775267958641052,0.9979804754257202,-1.1131277084350586
1733767635790436600,0.3154365234375,-0.20047222077846527,1.0870178937911987,-1.2765909433364868
1733767635800397800,0.325397705078125,-0.217947855591774,0.9736157059669495,-1.4022642374038696
1733767635810357800,0.335357666015625,-0.2646394670009613,0.861426591873169,-1.4968371391296387
1733767635820317700,0.345317626953125,-0.30996957421302795,0.8129495978355408,-1.6011000871658325
1733767635830278000,0.35527783203125,-0.39645305275917053,0.7599635720252991,-1.7390270233154297
1733767635840237800,0.36523779296875,-0.49691757559776306,0.6831187605857849,-1.892457127571106
1733767635850197800,0.37519775390625,-0.5636481642723083,0.6176758408546448,-1.9820287227630615
1733767635860158000,0.385157958984375,-0.5755233764648438,0.5379937291145325,-1.9737814664840698
1733767635870118000,0.395117919921875,-0.5609766244888306,0.38297775387763977,-1.922134280204773
1733767635880077800,0.405077880859375,-0.5177001953125,0.15079183876514435,-1.8967468738555908
1733767635890037800,0.415037841796875,-0.4832913875579834,-0.12129293382167816,-1.8958845138549805
1733767635899998000,0.424998046875,-0.5060743689537048,-0.3300395905971527,-1.8834869861602783
1733767635909959000,0.434958984375,-0.5880241394042969,-0.42500150203704834,-1.8453994989395142
1733767635919918800,0.4449189453125,-0.6641629934310913,-0.46759501099586487,-1.8421506881713867
1733767635929879000,0.454879150390625,-0.7025700807571411,-0.5041452646255493,-1.8749160766601562
1733767635939839000,0.4648388671875,-0.688815176486969,-0.5615227222442627,-1.891090750694275
1733767635949799000,0.474798828125,-0.6411738991737366,-0.6214020252227783,-1.868789792060852
1733767635959758800,0.4847587890625,-0.613747239112854,-0.6619386672973633,-1.8343138694763184
1733767635969719000,0.494718994140625,-0.5541233420372009,-0.7415517568588257,-1.7804887294769287
1733767635979679000,0.504678955078125,-0.4741663336753845,-0.8270102143287659,-1.7373957633972168
1733767635989639000,0.514638916015625,-0.3941929340362549,-0.8648534417152405,-1.6907097101211548
1733767635999598800,0.524598876953125,-0.3441803753376007,-0.8262414932250977,-1.6616268157958984
1733767636009559000,0.53455908203125,-0.3362122178077698,-0.69845050573349,-1.639702558517456
1733767636019519700,0.544519775390625,-0.35532283782958984,-0.5661400556564331,-1.6397284269332886
1733767636029479700,0.554479736328125,-0.3882855772972107,-0.4612531065940857,-1.6633317470550537
1733767636039440000,0.56443994140625,-0.41585877537727356,-0.37363311648368835,-1.6798770427703857
1733767636049399800,0.57439990234375,-0.46203771233558655,-0.2881688177585602,-1.6611063480377197
1733767636059359700,0.58435986328125,-0.5446568131446838,-0.18043318390846252,-1.6245896816253662
1733767636069320000,0.59431982421875,-0.6120387315750122,-0.011667870916426182,-1.577552318572998
1733767636079279900,0.60427978515625,-0.6074643731117249,0.09724779427051544,-1.5953038930892944
1733767636089239800,0.61423974609375,-0.5595554709434509,0.1068817749619484,-1.6849814653396606
1733767636099199700,0.62419970703125,-0.5222163796424866,0.04942625015974045,-1.7906336784362793
1733767636109160000,0.634159912109375,-0.5360645651817322,-0.09576023370027542,-1.8702150583267212
1733767636119120000,0.644119873046875,-0.5563945174217224,-0.3289046585559845,-1.9094923734664917
1733767636129080800,0.654080810546875,-0.5343978404998779,-0.6014286279678345,-1.9015356302261353
1733767636139041000,0.664041015625,-0.49398282170295715,-0.7476317286491394,-1.8741995096206665
1733767636149001000,0.6740009765625,-0.4471801519393921,-0.8394114375114441,-1.8211113214492798
1733767636158961000,0.6839609375,-0.30655720829963684,-0.914431095123291,-1.7775764465332031
1733767636168920800,0.6939208984375,-0.13909576833248138,-0.938939094543457,-1.7837493419647217
1733767636178881000,0.703881103515625,0.03030683659017086,-0.8648409247398376,-1.8336896896362305
1733767636188841000,0.713841064453125,0.28071776032447815,-0.7831718921661377,-1.9067306518554688
1733767636198801000,0.72380078125,0.5103595852851868,-0.6853204369544983,-2.00020432472229
1733767636208760800,0.7337607421875,0.6676642298698425,-0.55832839012146,-2.0754058361053467
1733767636218721000,0.743720947265625,0.7670468091964722,-0.4838516116142273,-2.108426094055176
1733767636228681700,0.753681640625,0.8359345197677612,-0.5139232277870178,-2.0835835933685303
1733767636238641700,0.7636416015625,0.89454185962677,-0.6113307476043701,-1.987714171409607
1733767636248601900,0.773601806640625,0.93503737449646,-0.9185945391654968,-1.6979646682739258
1733767636258561800,0.783561767578125,0.83793044090271,-1.630433201789856,-0.788605272769928
1733767636268521700,0.793521728515625,0.6573833227157593,-3.1643240451812744,0.7086172103881836
1733767636278482000,0.80348193359375,0.8573359251022339,-3.2378926277160645,1.2581506967544556
1733767636288441900,0.81344189453125,1.3102387189865112,-1.3664206266403198,0.9224393367767334
1733767636298401800,0.82340185546875,1.603572964668274,1.5659770965576172,0.3946051597595215
1733767636308361700,0.83336181640625,1.5843675136566162,4.537449359893799,-0.07957679778337479
1733767636318322000,0.843322021484375,1.3153979778289795,6.120750427246094,-0.35672295093536377
1733767636328281900,0.85328173828125,1.08247709274292,5.825693130493164,-0.2292073369026184
1733767636338242800,0.863242919921875,0.8986114859580994,4.545470237731934,0.1747654378414154
1733767636348203000,0.873203125,0.5075891017913818,3.2936112880706787,0.5317392349243164
1733767636358163000,0.883162841796875,-0.053269535303115845,1.8009555339813232,0.7099789381027222
1733767636368123000,0.893122802734375,-0.45415517687797546,-0.5870437026023865,0.4676850736141205
1733767636378082800,0.903082763671875,-0.6392805576324463,-3.179438829421997,-0.26686859130859375
1733767636388043000,0.91304296875,-0.6460822224617004,-3.838550090789795,-0.739524245262146
1733767636398003000,0.9230029296875,-0.5034389495849609,-2.313431978225708,-0.37273314595222473
1733767636407963000,0.932962890625,-0.3035966753959656,-0.604405403137207,0.25805652141571045
1733767636417923000,0.942923095703125,-0.16333535313606262,0.3156694173812866,0.7102941274642944
1733767636427883000,0.952883056640625,-0.07417858392000198,0.7663945555686951,0.9253621697425842
1733767636437843000,0.962843017578125,-0.02179035358130932,0.7124049663543701,0.7979112863540649
1733767636447804000,0.972803955078125,0.14747031033039093,0.38952091336250305,0.3200232684612274
1733767636457763800,0.982763916015625,0.40462779998779297,0.18125392496585846,-0.46296226978302
1733767636467723800,0.992723876953125,0.560936450958252,0.3488754332065582,-1.4517526626586914
1733767636477683700,1.00268359375,0.6867318153381348,0.8840618133544922,-2.2726657390594482
1733767636487644000,1.012643798828125,0.8362855911254883,1.7214874029159546,-2.6238937377929688
1733767636497603800,1.022603759765625,0.8590270280838013,2.4434244632720947,-2.67794132232666
1733767636507563800,1.032563720703125,0.6757839322090149,2.775008201599121,-2.657355308532715
1733767636517523700,1.042523681640625,0.42413267493247986,2.7898683547973633,-2.5216338634490967
1733767636527484000,1.05248388671875,0.21872809529304504,2.8140969276428223,-2.2245473861694336
1733767636537443800,1.06244384765625,0.14777405560016632,2.732586145401001,-1.8439825773239136
1733767636547404800,1.07240478515625,0.15115174651145935,2.3273203372955322,-1.4566510915756226
1733767636557365000,1.082364990234375,0.16019971668720245,1.7742403745651245,-1.163327693939209
1733767636567325000,1.092324951171875,0.072964146733284,1.2473996877670288,-1.0710891485214233
1733767636577284900,1.102284912109375,-0.048308271914720535,1.0060864686965942,-1.1438409090042114
1733767636587244800,1.112244873046875,-0.05063055083155632,0.8898123502731323,-1.2653700113296509
1733767636597205000,1.122205078125,0.06010536849498749,0.9459756016731262,-1.3150160312652588
1733767636607165000,1.1321650390625,0.16262002289295197,1.1891193389892578,-1.287153959274292
1733767636617124900,1.142124755859375,0.22328950464725494,1.3980406522750854,-1.2561380863189697
1733767636627085000,1.1520849609375,0.2462928146123886,1.5004844665527344,-1.2589964866638184
1733767636637045000,1.162044921875,0.24726377427577972,1.503798484802246,-1.2916654348373413
1733767636647005700,1.172005615234375,0.27648475766181946,1.437330722808838,-1.3455009460449219
1733767636656966000,1.1819658203125,0.34265467524528503,1.322446346282959,-1.3966492414474487
1733767636666925800,1.19192578125,0.4000455439090729,1.1863518953323364,-1.4340267181396484
1733767636676885800,1.2018857421875,0.3974038362503052,1.0390137434005737,-1.4802684783935547
1733767636686845700,1.211845703125,0.380424827337265,0.9177269339561462,-1.5027620792388916
1733767636696806000,1.221805908203125,0.3672686219215393,0.9384102821350098,-1.429612398147583
1733767636706765800,1.231765869140625,0.3676188290119171,1.145827293395996,-1.2909131050109863
1733767636716725800,1.241725830078125,0.3396376967430115,1.212857961654663,-1.2160823345184326
1733767636726685700,1.251685791015625,0.3391777575016022,1.0063819885253906,-1.1721832752227783
1733767636736647000,1.26164697265625,0.42992305755615234,0.6899017691612244,-1.1171599626541138
1733767636746606800,1.27160693359375,0.5888951420783997,0.2508589029312134,-1.0171477794647217
1733767636756566800,1.28156689453125,0.7869157791137695,-0.12185230106115341,-0.9022327065467834
1733767636766527000,1.29152685546875,0.9287142157554626,-0.33678698539733887,-0.7118188142776489
1733767636776487000,1.30148681640625,0.9053053259849548,-0.21915529668331146,-0.4874478280544281
1733767636786446800,1.31144677734375,0.8264355659484863,-0.11201979964971542,-0.3507520258426666
1733767636796406800,1.32140673828125,0.7042000889778137,-0.11289707571268082,-0.2904624044895172
1733767636806366500,1.331366455078125,0.5173646807670593,-0.18072938919067383,-0.2149849534034729
1733767636816326400,1.341326416015625,0.10695875436067581,-0.19338059425354004,-0.06362193822860718
1733767636826286300,1.351286376953125,-0.01045789010822773,0.26562798023223877,-0.11415381729602814
1733767636836247600,1.36124755859375,0.16049979627132416,0.6382302045822144,-0.16313879191875458
1733767636846207500,1.37120751953125,0.20070847868919373,0.8201712369918823,-0.1770479530096054
1733767636856167400,1.38116748046875,0.1342281997203827,0.836129367351532,-0.23615753650665283
1733767636866127600,1.391127685546875,0.1151176169514656,0.7109789252281189,-0.34039393067359924
1733767636876087600,1.401087646484375,0.08743271976709366,0.35723114013671875,-0.47488510608673096
1733767636886047500,1.411047607421875,0.035428375005722046,-0.16569064557552338,-0.6046529412269592
1733767636896007400,1.42100732421875,-0.05232692509889603,-0.7138448357582092,-0.7541548013687134
1733767636905967400,1.43096728515625,-0.1172979325056076,-1.066359519958496,-0.8492778539657593
1733767636915927300,1.44092724609375,-0.1442892849445343,-1.1941442489624023,-0.8628065586090088
1733767636925888300,1.45088818359375,-0.15374882519245148,-1.1459159851074219,-0.8424283266067505
1733767636935848400,1.460848388671875,-0.18114644289016724,-0.9603773951530457,-0.8142508268356323
1733767636945808400,1.470808349609375,-0.19654910266399384,-0.7029900550842285,-0.8111056685447693
1733767636955768300,1.480768310546875,-0.2215341031551361,-0.38634800910949707,-0.8316566944122314
1733767636965728300,1.490728271484375,-0.24088117480278015,-0.06632152944803238,-0.8649739623069763
1733767636975688400,1.5006884765625,-0.25269466638565063,0.2406340092420578,-0.9116442799568176
1733767636985648400,1.5106484375,-0.23947526514530182,0.5061144232749939,-1.0893869400024414
1733767636995608300,1.5206083984375,-0.18598927557468414,0.7574994564056396,-1.4234651327133179
1733767637005568500,1.530568603515625,-0.11682992428541183,1.034199833869934,-1.7030880451202393
1733767637015528400,1.540528564453125,-0.06762814521789551,1.2845714092254639,-1.8169658184051514
1733767637025489400,1.550489501953125,-0.05272695794701576,1.4598827362060547,-1.8437777757644653
1733767637035449600,1.56044970703125,-0.026213854551315308,1.5768669843673706,-1.8301371335983276
1733767637045409500,1.570409423828125,0.023671943694353104,1.5437690019607544,-1.7910315990447998
1733767637055369500,1.580369384765625,0.05299606919288635,1.4366461038589478,-1.7398808002471924
1733767637065329400,1.590329345703125,0.009194526821374893,1.4048216342926025,-1.6108120679855347
1733767637075289600,1.60028955078125,-0.12494752556085587,1.4682633876800537,-1.400521993637085
1733767637085249500,1.61024951171875,-0.28185299038887024,1.5745797157287598,-1.0402919054031372
1733767637095209500,1.62020947265625,-0.4197145998477936,1.816868543624878,-0.38372310996055603
1733767637105169400,1.63016943359375,-0.46294915676116943,2.172668695449829,1.004712700843811
1733767637115130400,1.64013037109375,-0.443252831697464,1.7275999784469604,2.158191442489624
1733767637125090300,1.65009033203125,-0.34968215227127075,0.8364904522895813,2.48390531539917
1733767637135050200,1.66005029296875,-0.1987956017255783,0.15598207712173462,2.5768675804138184
1733767637145010400,1.670010498046875,-0.15850543975830078,-0.1596781462430954,2.697425127029419
1733767637154970400,1.679970458984375,-0.21231700479984283,-0.214594766497612,2.784773588180542
1733767637164930300,1.689930419921875,-0.2623732388019562,-0.179514542222023,2.8413965702056885
1733767637174890200,1.69989013671875,-0.3199140727519989,-0.10510727763175964,2.9038889408111572
1733767637184850400,1.709850341796875,-0.3230286240577698,-0.15121111273765564,2.9484055042266846
1733767637194810400,1.719810302734375,-0.20798178017139435,-0.35384026169776917,2.945697784423828
1733767637204771300,1.729771240234375,-0.06934162229299545,-0.536798894405365,2.9205892086029053
1733767637214731500,1.7397314453125,0.01465706154704094,-0.6271512508392334,2.916505813598633
1733767637224691500,1.74969140625,0.06611146032810211,-0.627846360206604,2.890373706817627
1733767637234651400,1.7596513671875,0.09668941050767899,-0.5981992483139038,2.7970681190490723
1733767637244611600,1.769611572265625,0.172816663980484,-0.6842443943023682,2.64658522605896
1733767637254571500,1.779571533203125,0.2812197506427765,-0.8905457854270935,2.4198954105377197
1733767637264531500,1.789531494140625,0.3983570337295532,-1.11017644405365,2.1852149963378906
1733767637274491400,1.799491455078125,0.476921021938324,-1.2494287490844727,1.984502911567688
1733767637284452400,1.809452392578125,0.5102659463882446,-1.2978698015213013,1.8189011812210083
1733767637294412300,1.819412353515625,0.5253569483757019,-1.269951343536377,1.6601446866989136
1733767637304372200,1.829372314453125,0.5390381813049316,-1.2012906074523926,1.4781855344772339
1733767637314332400,1.83933251953125,0.5528936982154846,-1.0317975282669067,1.2902512550354004
1733767637324292400,1.849292236328125,0.5944560766220093,-0.7871418595314026,1.1042193174362183
1733767637334252300,1.859252197265625,0.6299320459365845,-0.5219590067863464,0.9304559230804443
1733767637344212200,1.869212158203125,0.6358267068862915,-0.2653823792934418,0.7884804010391235
1733767637354172400,1.87917236328125,0.6414379477500916,-0.02212168648838997,0.6809612512588501
1733767637364132400,1.88913232421875,0.666950523853302,0.18320830166339874,0.6201357245445251
1733767637374093300,1.89909326171875,0.6681293249130249,0.37250620126724243,0.610889196395874
1733767637384053500,1.909053466796875,0.6380348205566406,0.4472678005695343,0.6219184398651123
1733767637394013400,1.919013427734375,0.5694403052330017,0.37337180972099304,0.6552289724349976
1733767637403973400,1.928973388671875,0.4990803897380829,0.17898474633693695,0.6973972320556641
1733767637413933600,1.93893359375,0.4497114419937134,-0.024125801399350166,0.7439523339271545
1733767637423893500,1.9488935546875,0.3641155958175659,-0.15894193947315216,0.7448159456253052
1733767637433853400,1.958853515625,0.2806481719017029,-0.3062608540058136,0.6983650326728821
1733767637443813400,1.9688134765625,0.2045976221561432,-0.44861850142478943,0.6298077702522278
1733767637453774300,1.9787744140625,0.14055368304252625,-0.5899743437767029,0.5365899205207825
1733767637463734300,1.988734375,0.09609939157962799,-0.6602253317832947,0.4236513674259186
1733767637473694200,1.998694091796875,0.08156590908765793,-0.7743549346923828,0.3672167658805847
1733767637483654400,2.008654296875,0.09032797813415527,-0.9847907423973083,0.33370035886764526
1733767637493614300,2.0186142578125,0.09383539855480194,-1.1599888801574707,0.3305688798427582
1733767637503574300,2.02857421875,0.06978225708007812,-1.391005516052246,0.31913328170776367
1733767637513534200,2.0385341796875,0.01712830178439617,-1.6373900175094604,0.29571253061294556
1733767637523494400,2.048494384765625,0.022500962018966675,-1.8406301736831665,0.23011673986911774
1733767637533455400,2.058455322265625,0.06572212278842926,-1.8845367431640625,0.11538762599229813
1733767637543415300,2.068415283203125,0.15829572081565857,-1.9134714603424072,-0.04718716815114021
1733767637553375500,2.07837548828125,0.2624259293079376,-1.9705519676208496,-0.18009817600250244
1733767637563335400,2.08833544921875,0.35183489322662354,-1.972542405128479,-0.25232312083244324
1733767637573295400,2.09829541015625,0.4324985146522522,-1.734958291053772,-0.23888462781906128
1733767637583255300,2.10825537109375,0.48597636818885803,-1.2115302085876465,-0.13493399322032928
1733767637593215500,2.118215576171875,0.5130400061607361,-0.647620677947998,-0.10232873260974884
1733767637603175400,2.128175537109375,0.5268242359161377,-0.40673136711120605,-0.27098432183265686
1733767637613136400,2.138136474609375,0.5385951399803162,-0.5048789978027344,-0.43279823660850525
1733767637623096600,2.1480966796875,0.527466356754303,-0.8344363570213318,-0.4088990390300751
1733767637633056500,2.158056396484375,0.49061596393585205,-1.2870110273361206,-0.2424030900001526
1733767637643016400,2.168016357421875,0.45113405585289,-1.7847851514816284,-0.03589784726500511
1733767637652976600,2.1779765625,0.4070547819137573,-2.1931324005126953,0.05396939069032669
1733767637662936600,2.1879365234375,0.39818936586380005,-2.3600077629089355,0.009107910096645355
1733767637672896500,2.197896484375,0.46881499886512756,-2.157951593399048,-0.07342223078012466
1733767637682856400,2.2078564453125,0.6038234233856201,-1.7936928272247314,-0.40285179018974304
1733767637692817400,2.2178173828125,0.7179518342018127,-1.4396557807922363,-0.8475796580314636
1733767637702777300,2.22777734375,0.6500169634819031,-0.8176427483558655,-1.2699311971664429
1733767637712737300,2.2377373046875,0.4192667305469513,0.2784345746040344,-1.5873842239379883
1733767637722697500,2.247697509765625,0.0867777168750763,1.9183855056762695,-1.1760268211364746
1733767637732657400,2.257657470703125,-0.2829509675502777,3.5481038093566895,-0.7457972764968872
1733767637742617300,2.267617431640625,-0.3215356469154358,3.414095163345337,-0.8252766728401184
1733767637752577300,2.277577392578125,0.2433827668428421,1.6640597581863403,-1.0961005687713623
1733767637762537500,2.287537353515625,0.6348954439163208,1.5236924886703491,-1.1059646606445312
1733767637772498400,2.29749853515625,0.5362666845321655,2.2117679119110107,-0.34965774416923523
1733767637782458400,2.307458251953125,0.14414632320404053,2.6250524520874023,0.49397948384284973
1733767637792418600,2.31741845703125,-0.37396007776260376,2.164283514022827,1.0538371801376343
1733767637802378000,2.3273779296875,-0.9437566995620728,0.7709056735038757,1.2190728187561035
1733767637812338000,2.337337890625,-1.3906726837158203,-1.2522730827331543,1.0082340240478516
1733767637822297900,2.3472978515625,-1.6875003576278687,-3.3377761840820312,0.5794880390167236
1733767637832257800,2.3572578125,-1.7881247997283936,-4.970337867736816,0.10314351320266724
1733767637842218000,2.367218017578125,-1.7091727256774902,-5.761687278747559,-0.25486019253730774
1733767637852178700,2.3771787109375,-1.5508323907852173,-5.938689708709717,-0.3734022378921509
1733767637862138600,2.387138671875,-1.148499846458435,-5.723633289337158,-0.4639323949813843
1733767637872098800,2.397098876953125,-0.30436962842941284,-5.235649585723877,-0.9350067973136902
1733767637882058800,2.407058837890625,0.139609694480896,-3.0620415210723877,-2.156949520111084
1733767637892018700,2.417018798828125,0.17335344851016998,-0.15478754043579102,-3.1525166034698486
1733767637901979000,2.426978759765625,0.21897846460342407,1.6831855773925781,-3.2636616230010986
1733767637911938800,2.436938720703125,0.4313511252403259,2.5399010181427,-2.7594614028930664
1733767637921898800,2.446898681640625,0.667967677116394,2.8552064895629883,-2.097323417663574
1733767637931860000,2.45685986328125,0.8155096173286438,3.094254493713379,-1.6465967893600464
1733767637941820000,2.46681982421875,0.9224011898040771,3.3430538177490234,-1.5533907413482666
1733767637951779800,2.47677978515625,1.0251137018203735,3.4384403228759766,-1.8033703565597534
1733767637961739800,2.48673974609375,1.0466104745864868,3.1087591648101807,-2.1488630771636963
1733767637971700000,2.496699951171875,0.956432580947876,2.3809475898742676,-2.320016622543335
1733767637981660000,2.506659912109375,0.8383818864822388,1.5955052375793457,-2.213029146194458
1733767637991619800,2.516619873046875,0.7354065179824829,0.6985647678375244,-1.8430060148239136
1733767638001581000,2.5265810546875,0.6775288581848145,-0.2657833993434906,-1.399154782295227
1733767638011541000,2.536541015625,0.6023933291435242,-1.4464694261550903,-1.1331838369369507
1733767638021501000,2.5465009765625,0.5174014568328857,-2.7697527408599854,-0.9910902976989746
1733767638031460900,2.5564609375,0.5024736523628235,-3.698512077331543,-0.7390080690383911
1733767638041421000,2.566421142578125,0.4976429343223572,-3.971735715866089,-0.348835289478302
1733767638051381000,2.576381103515625,0.49533694982528687,-3.5209896564483643,0.06908419728279114
1733767638061341000,2.5863408203125,0.5661940574645996,-2.7897696495056152,0.27676254510879517
1733767638071300900,2.59630078125,0.5894813537597656,-2.0943143367767334,0.22092628479003906
1733767638081261800,2.60626171875,0.5651885271072388,-1.5147544145584106,0.024361301213502884
1733767638091221800,2.6162216796875,0.45903652906417847,-0.8595824241638184,-0.16860844194889069
1733767638101181700,2.626181640625,0.31139087677001953,-0.07355864346027374,-0.2529294490814209
1733767638111142000,2.636141845703125,0.25111156702041626,0.7402234077453613,-0.2308020293712616
1733767638121101800,2.646101806640625,0.12912467122077942,1.2263667583465576,-0.32414954900741577
1733767638131061800,2.656061767578125,-0.061440978199243546,1.296592354774475,-0.48794546723365784
1733767638141022000,2.66602197265625,-0.20373128354549408,1.1230038404464722,-0.6087642908096313
1733767638150983000,2.67598291015625,-0.2366793006658554,0.8051769137382507,-0.6506879329681396
1733767638160942800,2.68594287109375,-0.16835670173168182,0.40060651302337646,-0.6477861404418945
1733767638170903000,2.695903076171875,-0.06221575289964676,-0.07025196403265,-0.6208232045173645
1733767638180863000,2.705863037109375,-0.0087200365960598,-0.4739523231983185,-0.5688052773475647
1733767638190823000,2.715822998046875,-0.02367652766406536,-0.6583807468414307,-0.5690837502479553
1733767638200782800,2.725782958984375,-0.07720446586608887,-0.7419129014015198,-0.6372985243797302
1733767638210743000,2.735742919921875,-0.12455860525369644,-0.7192941308021545,-0.727239727973938
1733767638220703700,2.745703857421875,-0.14801838994026184,-0.4684014618396759,-0.7866225838661194
1733767638230663700,2.75566357421875,-0.14547941088676453,-0.07012438029050827,-0.8170098662376404
1733767638240623900,2.765623779296875,-0.21091169118881226,0.24563170969486237,-0.9382372498512268
1733767638250583800,2.775583740234375,-0.3143690824508667,0.411704957485199,-1.1432908773422241
1733767638260543700,2.785543701171875,-0.39612945914268494,0.46834081411361694,-1.3160163164138794
1733767638270503700,2.795503662109375,-0.44841867685317993,0.47713151574134827,-1.413269281387329
1733767638280464000,2.8054638671875,-0.4757877290248871,0.5152636766433716,-1.4837144613265991
1733767638290423800,2.815423828125,-0.47311946749687195,0.5863951444625854,-1.6092816591262817
1733767638300384800,2.825384765625,-0.4488849639892578,0.6433658003807068,-1.8679838180541992
1733767638310345000,2.835344970703125,-0.4186651110649109,0.7134785056114197,-2.223910331726074
1733767638320305000,2.845304931640625,-0.3675062954425812,0.7860075831413269,-2.4765942096710205
1733767638330264800,2.855264892578125,-0.31087175011634827,0.9001908898353577,-2.485837459564209
1733767638340224800,2.865224853515625,-0.08301142603158951,2.226810932159424,-0.5673099756240845
1733767638350185000,2.87518505859375,0.2883550524711609,3.033355474472046,3.7002196311950684
1733767638360145000,2.885144775390625,0.4028235673904419,1.062936782836914,4.444385528564453
1733767638370105900,2.89510595703125,0.6327875852584839,-0.15369661152362823,4.323019027709961
1733767638380065800,2.905065673828125,0.9254077076911926,-0.3769952058792114,4.370229721069336
1733767638390025700,2.915025634765625,1.0214897394180298,-0.15495015680789948,4.840396404266357
1733767638399985700,2.924985595703125,0.7956796884536743,0.1278434544801712,5.38478422164917
1733767638409945900,2.93494580078125,0.3845992088317871,0.0582122839987278,5.64709997177124
1733767638419905800,2.94490576171875,0.07224529981613159,0.13141405582427979,5.297048568725586
1733767638429865700,2.95486572265625,-0.05390653759241104,0.2503010332584381,4.220617294311523
1733767638439827000,2.964826904296875,-0.07504138350486755,0.8513489961624146,2.6439502239227295
1733767638449787000,2.974786865234375,0.02661990374326706,0.8708839416503906,1.2979698181152344
1733767638459746800,2.984746826171875,0.09201674908399582,0.888107180595398,0.4699522852897644
1733767638469706800,2.994706787109375,0.05087500065565109,0.4235563278198242,0.37472838163375854
1733767638479667000,3.0046669921875,-0.08814413100481033,-0.5720097422599792,0.691576361656189
1733767638489627000,3.014626953125,-0.21645572781562805,-1.5505304336547852,1.1273882389068604
1733767638499586800,3.0245869140625,-0.295134037733078,-2.2669546604156494,1.5068436861038208
1733767638509548000,3.034548095703125,-0.3653155565261841,-2.708794355392456,1.7523325681686401
1733767638519508000,3.044508056640625,-0.41616517305374146,-2.873338460922241,1.7958239316940308
1733767638529468000,3.054468017578125,-0.3911617398262024,-2.7214834690093994,1.6579644680023193
1733767638539427800,3.064427734375,-0.28057581186294556,-2.3720076084136963,1.4072576761245728
1733767638549388000,3.074387939453125,-0.11506757140159607,-1.951117753982544,1.1467618942260742
1733767638559348000,3.084347900390625,0.039736926555633545,-1.6539963483810425,0.932342529296875
1733767638569308000,3.094307861328125,0.16282148659229279,-1.4857995510101318,0.7667068243026733
1733767638579268900,3.104268798828125,0.2390558123588562,-1.4030063152313232,0.6791164875030518
1733767638589228800,3.114228759765625,0.3307892978191376,-1.3279708623886108,0.6714240312576294
1733767638599188700,3.124188720703125,0.4666898846626282,-1.2376006841659546,0.7380499243736267
1733767638609148700,3.134148681640625,0.5925542712211609,-1.1644083261489868,0.8047339916229248
1733767638619108900,3.14410888671875,0.6542975306510925,-1.1173700094223022,0.8397231698036194
1733767638629068800,3.15406884765625,0.654914915561676,-1.136564016342163,0.7972511649131775
1733767638639028700,3.16402880859375,0.6776372194290161,-1.2413619756698608,0.6516926288604736
1733767638648990000,3.173989990234375,0.7449191212654114,-1.530324101448059,0.38769713044166565
1733767638658950000,3.183949951171875,0.8371968865394592,-1.9221776723861694,0.035946279764175415
1733767638668909800,3.193909912109375,0.8406975269317627,-2.232017755508423,-0.23284697532653809
1733767638678870000,3.2038701171875,0.8164012432098389,-2.498257875442505,-0.3106456398963928
1733767638688830000,3.213829833984375,0.7747359275817871,-2.7567851543426514,-0.2534118890762329
1733767638698790000,3.223789794921875,0.7321850061416626,-3.0234129428863525,-0.11286754906177521
1733767638708749800,3.233749755859375,0.7112640142440796,-3.3629438877105713,0.04323234781622887
1733767638718710800,3.243710693359375,0.6900010704994202,-3.799706220626831,0.16175313293933868
1733767638728670700,3.253670654296875,0.6765702366828918,-4.325194835662842,0.23068608343601227
1733767638738630700,3.263630615234375,0.7051608562469482,-4.839465618133545,0.22834782302379608
1733767638748590800,3.2735908203125,0.7732937932014465,-5.357306957244873,0.1360158920288086
1733767638758550800,3.28355078125,0.8878139853477478,-5.800025463104248,-0.028754420578479767
1733767638768510700,3.2935107421875,0.9742608666419983,-6.138381004333496,-0.27729228138923645
1733767638778470700,3.303470703125,1.0053678750991821,-6.3155670166015625,-0.5277977585792542
1733767638788432000,3.313431884765625,1.0087628364562988,-6.215460300445557,-0.6875976920127869
1733767638798391800,3.323391845703125,0.9715976119041443,-5.786123275756836,-0.7063913941383362
1733767638808353300,3.333353271484375,0.9394422769546509,-5.167309284210205,-0.5463578104972839
1733767638818313200,3.343313232421875,0.8767240643501282,-4.557191371917725,-0.19718247652053833
1733767638828273200,3.353273193359375,0.7901599407196045,-4.173372745513916,0.22083190083503723
1733767638838233000,3.363233154296875,0.6648454070091248,-4.018387794494629,0.5301891565322876
1733767638848194000,3.373194091796875,0.5147175788879395,-4.093663692474365,0.6515669226646423
1733767638858154000,3.383154052734375,0.37571871280670166,-4.252585411071777,0.5756253004074097
1733767638868114000,3.393114013671875,0.2557324469089508,-4.03706693649292,0.3609885573387146
1733767638878074000,3.40307421875,0.1647130399942398,-3.091681957244873,0.09120260179042816
1733767638888034000,3.413033935546875,0.34066101908683777,-1.9853456020355225,-0.02182858996093273
1733767638897994000,3.422993896484375,0.7820733189582825,-1.1682342290878296,-0.06235204637050629
1733767638907954200,3.4329541015625,1.1310155391693115,-0.6500375270843506,-0.3392094075679779
1733767638917915100,3.4429150390625,1.3343346118927002,-0.4565620422363281,-0.8210937976837158
1733767638927875000,3.452875,1.3712698221206665,-0.1928206980228424,-1.2433422803878784
1733767638937835300,3.462835205078125,1.325562596321106,0.316012442111969,-1.384584665298462
1733767638947795200,3.472795166015625,1.2687262296676636,0.7212873101234436,-1.3204015493392944
1733767638957755100,3.482755126953125,1.162521243095398,0.7049344182014465,-1.259905457496643
1733767638967715000,3.492715087890625,0.9866355657577515,0.10239558666944504,-1.2563060522079468
1733767638977675300,3.50267529296875,0.7471407055854797,-0.9805559515953064,-1.3456873893737793
1733767638987636000,3.512635986328125,0.544296145439148,-2.2332825660705566,-1.4912738800048828
1733767638997596000,3.522595947265625,0.38781729340553284,-3.0948846340179443,-1.6295225620269775
1733767639007556000,3.53255615234375,0.15930721163749695,-3.390782594680786,-1.981782078742981
1733767639017516000,3.54251611328125,-0.08821471035480499,-3.395921230316162,-2.887460947036743
1733767639027476000,3.55247607421875,-0.13634394109249115,-2.8154048919677734,-3.944196939468384
1733767639037436000,3.562435791015625,-0.2177644968032837,-0.03863590210676193,-1.670120358467102
1733767639047396000,3.57239599609375,-0.0817839652299881,0.32329410314559937,0.8434715867042542
1733767639057357000,3.582357177734375,0.3200063407421112,-1.3432598114013672,0.7484904527664185
1733767639067317000,3.59231689453125,0.331258624792099,-1.9294068813323975,1.3084224462509155
1733767639077277200,3.602277099609375,0.0014508804306387901,-2.103193521499634,1.9093735218048096
1733767639087237000,3.612237060546875,-0.30624040961265564,-2.273759365081787,2.332838296890259
1733767639097197000,3.622197021484375,-0.3026140034198761,-2.560929298400879,2.4922335147857666
1733767639107157000,3.632156982421875,-0.09908691048622131,-2.9527170658111572,2.388662576675415
1733767639117118200,3.6421181640625,0.10655412822961807,-3.195653200149536,2.084932804107666
1733767639127078100,3.652078125,0.14732782542705536,-3.33137845993042,1.588012456893921
1733767639137038000,3.6620380859375,0.10163544118404388,-3.2986643314361572,1.0371719598770142
1733767639146998300,3.671998291015625,0.1049107238650322,-3.266155481338501,0.5465737581253052
1733767639156958200,3.681958251953125,0.23300638794898987,-3.1022729873657227,0.09184620529413223
1733767639166918100,3.691918212890625,0.30229896306991577,-2.6500425338745117,-0.38600754737854004
1733767639176878300,3.70187841796875,0.30386969447135925,-2.08262300491333,-0.660744845867157
1733767639186839000,3.711839111328125,0.21669727563858032,-1.3694517612457275,-0.6498386859893799
1733767639196799000,3.721799072265625,0.13970208168029785,-0.5645338892936707,-0.4433062970638275
1733767639206759200,3.73175927734375,0.07286733388900757,-0.0009733699262142181,-0.31589895486831665
1733767639216719000,3.741718994140625,0.01834896020591259,0.06178508698940277,-0.3188433349132538
1733767639226679000,3.751678955078125,0.011779539287090302,-0.23018306493759155,-0.3111498951911926
1733767639236639000,3.761638916015625,0.06481852382421494,-0.6263236999511719,-0.29302600026130676
1733767639246600200,3.77160009765625,0.1603853404521942,-1.0148557424545288,-0.25215011835098267
1733767639256560000,3.78156005859375,0.2739100456237793,-1.2945729494094849,-0.17323985695838928
1733767639266520000,3.79152001953125,0.23846398293972015,-1.5861542224884033,-0.12965364754199982
1733767639276480300,3.801480224609375,0.10181105881929398,-1.943992257118225,-0.17812424898147583
1733767639286440200,3.811440185546875,0.06909532099962234,-2.2367568016052246,-0.3210800588130951
1733767639296400100,3.821400146484375,0.11097832769155502,-2.7515549659729004,-0.6794717907905579
1733767639306360000,3.831360107421875,0.08292188495397568,-3.2995104789733887,-1.056688666343689
1733767639316321000,3.841321044921875,-0.030564460903406143,-3.4965720176696777,-1.218285322189331
1733767639326281000,3.851281005859375,-0.18410345911979675,-3.3781373500823975,-1.1193337440490723
1733767639336241000,3.861240966796875,-0.36334988474845886,-3.2020230293273926,-0.8995726108551025
1733767639346201000,3.871201171875,-0.4950290024280548,-3.1323795318603516,-0.7347925901412964
1733767639356161000,3.8811611328125,-0.5717999935150146,-3.073345184326172,-0.6815214157104492
1733767639366121000,3.891120849609375,-0.6062856912612915,-2.93939208984375,-0.6831626296043396
1733767639376082200,3.901082275390625,-0.6320555210113525,-2.6988987922668457,-0.6901022791862488
1733767639386042000,3.9110419921875,-0.6792559027671814,-2.3762104511260986,-0.6571431756019592
1733767639396002000,3.921001953125,-0.7342227697372437,-2.031942367553711,-0.5574405193328857
1733767639405962000,3.9309619140625,-0.781843364238739,-1.7364120483398438,-0.4025503396987915
1733767639415922200,3.940922119140625,-0.7804076671600342,-1.4737029075622559,-0.23160123825073242
1733767639425882000,3.950882080078125,-0.7328991293907166,-1.2355254888534546,-0.02486949786543846
1733767639435843000,3.960843017578125,-0.6843310594558716,-1.0012264251708984,0.1963217407464981
1733767639445803300,3.97080322265625,-0.6204891204833984,-0.757849395275116,0.4251680076122284
1733767639455763200,3.98076318359375,-0.583987295627594,-0.47317102551460266,0.6210688352584839
1733767639465723100,3.99072314453125,-0.5872151255607605,-0.17434871196746826,0.7472957968711853
1733767639475683300,4.000683349609375,-0.5797712802886963,0.0792531967163086,0.7759231925010681
1733767639485643300,4.010643310546875,-0.5331906080245972,0.22571267187595367,0.7305538654327393
1733767639495603200,4.020603271484375,-0.44528284668922424,0.20134635269641876,0.6589587926864624
1733767639505564200,4.030564208984375,-0.3329164981842041,-0.040295690298080444,0.5986691117286682
1733767639515524000,4.040524169921875,-0.22776105999946594,-0.5356239676475525,0.5764703154563904
1733767639525484000,4.050484130859375,-0.15922044217586517,-1.246094822883606,0.6409978270530701
1733767639535444000,4.06044384765625,-0.09021100401878357,-2.118417263031006,0.7417782545089722
1733767639545404200,4.070404052734375,0.04834550619125366,-2.965585708618164,0.7899208068847656
1733767639555364000,4.080364013671875,0.1816769242286682,-3.642465829849243,0.7911837100982666
1733767639565325000,4.090324951171875,0.25590747594833374,-4.077424049377441,0.8296269178390503
1733767639575285200,4.10028515625,0.29034748673439026,-4.2302470207214355,0.9421963691711426
1733767639585245200,4.1102451171875,0.23097772896289825,-4.233973026275635,1.0439890623092651
1733767639595205000,4.120205078125,0.06946712732315063,-4.180851936340332,1.0728853940963745
1733767639605165000,4.1301650390625,-0.0841759592294693,-3.7915163040161133,1.0482828617095947
1733767639615125200,4.140125244140625,-0.1633477509021759,-2.8226561546325684,0.9765203595161438
1733767639625085200,4.150085205078125,-0.3168548345565796,-1.5590028762817383,0.855730414390564
1733767639635046000,4.1600458984375,-0.545449435710907,-0.33250853419303894,0.7313586473464966
1733767639645006000,4.170006103515625,-0.7170640826225281,0.5852020978927612,0.6940211653709412
1733767639654966000,4.179966064453125,-0.7862340807914734,1.0635114908218384,0.7884616255760193
1733767639664926000,4.189926025390625,-0.7860432267189026,1.143897533416748,1.0191353559494019
1733767639674886000,4.199885986328125,-0.7617504000663757,0.8650799989700317,1.3253543376922607
1733767639684847000,4.20984716796875,-0.7305580973625183,0.302632212638855,1.605242133140564
1733767639694807000,4.21980712890625,-0.6810038685798645,-0.428737610578537,1.7962472438812256
1733767639704767000,4.22976708984375,-0.5995326638221741,-1.1759308576583862,1.8619722127914429
1733767639714727200,4.23972705078125,-0.5152031183242798,-1.8586641550064087,1.7829599380493164
1733767639724687000,4.24968701171875,-0.4603315591812134,-2.298111915588379,1.6025856733322144
1733767639734647000,4.25964697265625,-0.3562144935131073,-2.260977029800415,1.3605509996414185
1733767639744607200,4.269607177734375,-0.19847626984119415,-1.8157235383987427,1.142410159111023
1733767639754568200,4.279568115234375,-0.06281377375125885,-1.098402976989746,0.965777575969696
1733767639764528000,4.289528076171875,-0.021683234721422195,-0.2079562544822693,0.8155941963195801
1733767639774488300,4.29948828125,-0.06672368198633194,0.6861119270324707,0.6402151584625244
1733767639784448300,4.3094482421875,-0.1272190362215042,1.3691061735153198,0.376343697309494
1733767639794408200,4.319408203125,-0.05271817371249199,1.779423713684082,0.07880523800849915
1733767639804366800,4.329366943359375,0.21350176632404327,1.8394848108291626,-0.2175709754228592
1733767639814328000,4.339328125,0.5521511435508728,1.5738369226455688,-0.5241895318031311
1733767639824288000,4.3492880859375,0.8514704704284668,1.2295407056808472,-0.8028063774108887
1733767639834248000,4.359248046875,1.1311417818069458,0.700082540512085,-1.0782885551452637
1733767639844207900,4.369207763671875,1.3269460201263428,0.25318196415901184,-1.2891535758972168
1733767639854168000,4.37916796875,1.4159512519836426,0.11809153854846954,-1.2037107944488525
1733767639864128000,4.3891279296875,1.4016799926757812,0.0769222304224968,-0.9967198371887207
1733767639874088700,4.399088623046875,1.4318040609359741,-0.1595315784215927,-0.5555003881454468
1733767639884049000,4.409048828125,1.456703543663025,-1.108870267868042,0.022253492847085
1733767639894008800,4.4190087890625,1.3907171487808228,-2.333735466003418,0.5299795866012573
1733767639903968800,4.42896875,1.2330498695373535,-2.978231430053711,0.8648014068603516
1733767639913928700,4.4389287109375,1.0321044921875,-2.884626865386963,0.9580711722373962
1733767639923889000,4.448888916015625,0.8226915001869202,-2.372514247894287,0.8175346255302429
1733767639933848800,4.458848876953125,0.6616328358650208,-1.846121072769165,0.5690691471099854
1733767639943809800,4.468809814453125,0.529959499835968,-1.331667423248291,0.3399145007133484
1733767639953770000,4.47877001953125,0.36947160959243774,-0.854516863822937,0.15605199337005615
1733767639963730000,4.48872998046875,0.17475195229053497,-0.5728256702423096,0.04572010040283203
1733767639973689900,4.49868994140625,0.02145080454647541,-0.5399409532546997,0.05824121832847595
1733767639983650000,4.508650146484375,-0.012395333498716354,-0.5576952695846558,0.12987177073955536
1733767639993610000,4.51860986328125,0.03571067377924919,-0.6484190225601196,0.16789399087429047
1733767640003570700,4.52857080078125,0.13417844474315643,-0.8298332095146179,0.17751775681972504
1733767640013531000,4.53853076171875,0.2503460645675659,-1.1646082401275635,0.17104201018810272
1733767640023490800,4.54849072265625,0.35163915157318115,-1.5030784606933594,0.18841508030891418
1733767640033450800,4.55845068359375,0.4051596522331238,-1.703074336051941,0.21122372150421143
1733767640043410700,4.56841064453125,0.476002037525177,-1.743173360824585,0.21075595915317535
1733767640053371000,4.578370849609375,0.5693293213844299,-1.5829964876174927,0.18567538261413574
1733767640063331800,4.588331787109375,0.6300977468490601,-1.2673813104629517,0.15815511345863342
1733767640073291800,4.598291748046875,0.6182863712310791,-1.0084490776062012,0.14564543962478638
1733767640083252000,4.608251953125,0.56187903881073,-0.8500641584396362,0.2122417837381363
1733767640093212000,4.6182119140625,0.48078465461730957,-0.7657615542411804,0.3547837436199188
1733767640103171800,4.628171875,0.463623970746994,-0.8058760762214661,0.4958108365535736
1733767640113131800,4.6381318359375,0.49543115496635437,-0.9245143532752991,0.586538553237915
1733767640123093000,4.648093017578125,0.5162925124168396,-0.9803212285041809,0.6066988110542297
1733767640133053000,4.658052978515625,0.4935775697231293,-0.9085348844528198,0.5811143517494202
1733767640143012900,4.668012939453125,0.503044605255127,-0.6163592338562012,0.5642066597938538
1733767640152973000,4.67797314453125,0.6918792724609375,0.45404189825057983,1.0639735460281372
1733767640162933000,4.68793310546875,0.9770426154136658,1.5429567098617554,1.9765604734420776
1733767640172893000,4.697892822265625,0.53582364320755,-0.5191592574119568,0.737271785736084
1733767640182854000,4.70785400390625,0.22500845789909363,-1.3811235427856445,-0.24086105823516846
1733767640192813800,4.717813720703125,0.2971010208129883,-0.4635641574859619,0.38535621762275696
1733767640202773800,4.727773681640625,0.31477418541908264,0.7053334712982178,1.5510390996932983
1733767640212733700,4.737733642578125,0.05840950459241867,1.0865330696105957,1.9373713731765747
1733767640222694000,4.74769384765625,-0.27498939633369446,1.1509720087051392,1.6902908086776733
1733767640232653800,4.75765380859375,-0.48750510811805725,1.2040458917617798,1.218194603919983
1733767640242613800,4.76761376953125,-0.34719809889793396,0.992294192314148,0.5350946187973022
1733767640252575000,4.777574951171875,0.02263801544904709,0.3882844150066376,-0.7708308696746826
1733767640262535000,4.787534912109375,-0.16044063866138458,0.5191417336463928,-2.0160861015319824
1733767640272494800,4.797494873046875,-0.5679727792739868,1.3965200185775757,-2.377354145050049
1733767640282455000,4.807455078125,-0.84116530418396,2.1754608154296875,-2.1587181091308594
1733767640292415000,4.8174150390625,-1.0007294416427612,2.402540683746338,-1.878237247467041
1733767640302375000,4.827375,-1.1333820819854736,2.116819381713867,-1.717846393585205
1733767640312336000,4.8373359375,-1.2157230377197266,1.3818615674972534,-1.71648371219635
1733767640322295800,4.8472958984375,-1.2489137649536133,0.5971776843070984,-1.7787472009658813
1733767640332255700,4.857255859375,-1.326884150505066,-0.06158050149679184,-1.9106193780899048
1733767640342215700,4.867215576171875,-1.4450699090957642,-0.6805018186569214,-2.132408857345581
1733767640352175900,4.87717578125,-1.5392273664474487,-1.0107479095458984,-2.4200708866119385
1733767640362135800,4.8871357421875,-1.5805041790008545,-0.8683621883392334,-2.741729736328125
1733767640372096800,4.8970966796875,-1.4217404127120972,-0.20519806444644928,-2.967919111251831
1733767640382057000,4.907056884765625,-0.9591410756111145,0.7553651928901672,-2.912719249725342
1733767640392017000,4.917016845703125,-0.4577533006668091,1.5372272729873657,-2.6255292892456055
1733767640401976800,4.926976806640625,-0.2530279755592346,1.8481956720352173,-2.1188721656799316
1733767640411936800,4.936936767578125,-0.26901891827583313,1.7330150604248047,-1.581160068511963
1733767640421897000,4.94689697265625,-0.10404873639345169,1.305742621421814,-1.228625774383545
1733767640431858000,4.95685791015625,0.23019929230213165,0.8571845889091492,-0.9723817706108093
1733767640441817900,4.96681787109375,0.46513983607292175,0.5344328880310059,-0.7604134678840637
1733767640451778000,4.976778076171875,0.5291603803634644,0.2566409409046173,-0.582577645778656
1733767640461738000,4.986738037109375,0.5483666658401489,-0.06528769433498383,-0.5006096959114075
1733767640471698000,4.996697998046875,0.5302028059959412,-0.5154721736907959,-0.4648624062538147
1733767640481657900,5.006657958984375,0.43955937027931213,-0.9146153330802917,-0.39993488788604736
1733767640491618800,5.016618896484375,0.29830050468444824,-1.1537383794784546,-0.313806414604187
1733767640501578800,5.026578857421875,0.19614751636981964,-1.2950332164764404,-0.27285975217819214
1733767640511538700,5.03653857421875,0.19448277354240417,-1.3693383932113647,-0.300103098154068
1733767640521499000,5.046498779296875,0.26952290534973145,-1.4509268999099731,-0.35287463665008545
1733767640531458800,5.056458740234375,0.37468579411506653,-1.4629281759262085,-0.36222952604293823
1733767640541418800,5.066418701171875,0.4584994316101074,-1.3232501745224,-0.3212953507900238
1733767640551380000,5.0763798828125,0.4527376890182495,-1.0296430587768555,-0.23984789848327637
1733767640561340000,5.08633984375,0.413873553276062,-0.5931869745254517,-0.18800733983516693
1733767640571299800,5.0962998046875,0.41043487191200256,-0.1054048091173172,-0.18415455520153046
1733767640581260000,5.106260009765625,0.40207695960998535,0.3728710412979126,-0.22508099675178528
1733767640591220000,5.116219970703125,0.36587581038475037,0.8003808259963989,-0.3152681589126587
1733767640601180000,5.126179931640625,0.3416872024536133,1.1034685373306274,-0.44220468401908875
1733767640611140900,5.136140869140625,0.31464171409606934,1.2245017290115356,-0.5550636053085327
1733767640621100800,5.146100830078125,0.2480780929327011,1.2020502090454102,-0.6567535996437073
1733767640631060700,5.156060791015625,0.15939536690711975,1.0619205236434937,-0.7396734952926636
1733767640641020700,5.166020751953125,0.081266388297081,0.8457618355751038,-0.7982392311096191
1733767640650980900,5.17598095703125,0.01588844135403633,0.619205117225647,-0.8418620824813843
1733767640660940800,5.18594091796875,-0.045441433787345886,0.46748805046081543,-0.8886147141456604
1733767640670901800,5.19590185546875,-0.10842280089855194,0.4107651114463806,-0.9516794681549072
1733767640680862000,5.205862060546875,-0.14990083873271942,0.42964935302734375,-1.0220961570739746
1733767640690822000,5.21582177734375,-0.15718431770801544,0.4511738121509552,-1.162750482559204
1733767640700781800,5.22578173828125,-0.1629193276166916,0.3686346709728241,-1.480850100517273
1733767640710741800,5.23574169921875,-0.2143777310848236,0.331807404756546,-1.757279634475708
1733767640720702000,5.245701904296875,-0.29530560970306396,0.48737215995788574,-1.7159353494644165
1733767640730663000,5.255662841796875,-0.3069002032279968,0.7208640575408936,-1.3774772882461548
1733767640740622800,5.265622802734375,-0.24108266830444336,0.9150563478469849,-0.9490920305252075
1733767640750583000,5.2755830078125,-0.15446974337100983,1.00545334815979,-0.5924409627914429
1733767640760543000,5.28554296875,-0.06826614588499069,0.9683877229690552,-0.3935398757457733
1733767640770503000,5.2955029296875,0.04059961810708046,0.8785287141799927,-0.3222009837627411
1733767640780462800,5.305462890625,0.14976243674755096,0.7947636246681213,-0.2601655125617981
1733767640790423000,5.315423095703125,0.21029874682426453,0.767438530921936,-0.2015237808227539
1733767640800383700,5.3253837890625,0.2448950856924057,0.7798182368278503,-0.14910317957401276
1733767640810344000,5.335343994140625,0.2854449152946472,0.8529504537582397,-0.06722616404294968
1733767640820304000,5.345303955078125,0.3594551682472229,1.002912163734436,0.07212705165147781
1733767640830264000,5.35526416015625,0.4415407180786133,1.0439099073410034,0.19700241088867188
1733767640840224000,5.36522412109375,0.5901414752006531,0.9102141261100769,0.19177277386188507
1733767640850184000,5.375183837890625,0.8221132159233093,0.6968626976013184,0.06523346900939941
1733767640860145200,5.385145263671875,1.0078872442245483,0.6090531945228577,-0.0358116440474987
1733767640870105000,5.39510498046875,1.0491756200790405,0.5074794292449951,-0.06480148434638977
1733767640880065000,5.40506494140625,0.9411371350288391,0.061589565128088,0.22238169610500336
1733767640890025000,5.41502490234375,0.4433499574661255,-0.3740884065628052,1.8818851709365845
1733767640899985200,5.424985107421875,0.1367121934890747,-0.18380674719810486,3.583369255065918
1733767640909945000,5.434945068359375,0.24498353898525238,0.3647056221961975,4.339603424072266
1733767640919905800,5.44490576171875,0.3205128610134125,1.0838783979415894,4.715810298919678
1733767640929866000,5.454865966796875,0.1440289169549942,1.637403130531311,4.867701053619385
1733767640939826000,5.464825927734375,-0.19892458617687225,2.2554051876068115,4.8436079025268555
1733767640949785900,5.474785888671875,-0.5120022892951965,3.052135467529297,4.662543773651123
1733767640959745800,5.484745849609375,-0.7033893465995789,3.4177379608154297,4.17545747756958
1733767640969707000,5.49470703125,-0.6136677265167236,3.1521642208099365,3.264483690261841
1733767640979667000,5.5046669921875,-0.14803917706012726,2.181410312652588,2.2029380798339844
1733767640989627000,5.514626953125,0.3058934509754181,0.6805694699287415,1.2224892377853394
1733767640999587000,5.524587158203125,0.42371585965156555,-0.8111839890480042,0.5916903614997864
1733767641009547000,5.534547119140625,0.5466135740280151,-1.9501303434371948,0.4581325948238373
1733767641019507000,5.5445068359375,0.773737370967865,-2.121690273284912,0.6427103281021118
1733767641029468200,5.55446826171875,0.7682283520698547,-1.7387213706970215,0.9487983584403992
1733767641039428000,5.564427978515625,0.588195264339447,-1.182840347290039,1.1681662797927856
1733767641049388000,5.574387939453125,0.46364155411720276,-0.7069661021232605,1.225616216659546
1733767641059348000,5.584347900390625,0.4303745925426483,-0.38650739192962646,1.1092286109924316
1733767641069308200,5.59430810546875,0.4804215133190155,-0.11785142868757248,0.8603430986404419
1733767641079268000,5.60426806640625,0.5468705892562866,0.32611408829689026,0.5272803902626038
1733767641089228000,5.61422802734375,0.554541289806366,0.8673238158226013,-0.08302796632051468
1733767641099189000,5.62418896484375,0.6925011873245239,1.7547098398208618,-0.7390632629394531
1733767641109149000,5.63414892578125,0.9767525792121887,2.779524326324463,-1.1043040752410889
1733767641119108900,5.64410888671875,1.2129724025726318,3.636002779006958,-1.2742198705673218
1733767641129069000,5.654069091796875,1.3258017301559448,3.966884136199951,-1.3725054264068604
1733767641139029000,5.664029052734375,1.2706042528152466,3.6788036823272705,-1.3939785957336426
1733767641148989000,5.673989013671875,1.0844175815582275,2.7897682189941406,-1.235477328300476
1733767641158950100,5.6839501953125,0.8359792232513428,1.8312036991119385,-0.5458352565765381
1733767641168910000,5.69391015625,0.529467761516571,0.5111034512519836,0.2727685570716858
1733767641178870000,5.7038701171875,0.25508472323417664,-0.8224115371704102,0.800518810749054
1733767641188830000,5.713829833984375,0.07124271988868713,-1.4347363710403442,1.0117666721343994
1733767641198790100,5.7237900390625,-0.05333394929766655,-1.3734517097473145,0.9723057150840759
1733767641208750000,5.73375,-0.1739615648984909,-1.0272815227508545,0.7544575333595276
1733767641218710800,5.743710693359375,-0.27783316373825073,-0.7527143955230713,0.4227476418018341
1733767641228671000,5.7536708984375,-0.3000867962837219,-0.5967029333114624,0.06963805109262466
1733767641238631000,5.763630859375,-0.26279979944229126,-0.52208411693573,-0.16080139577388763
1733767641248590800,5.7735908203125,-0.24399150907993317,-0.47314849495887756,-0.3101232647895813
1733767641258550800,5.78355078125,-0.3046136796474457,-0.3957095742225647,-0.39098116755485535
1733767641268511000,5.793510986328125,-0.3962485194206238,-0.31898364424705505,-0.40204286575317383
1733767641278472000,5.803471923828125,-0.4160591959953308,-0.2740457057952881,-0.23531179130077362
1733767641288431900,5.813431884765625,-0.40115293860435486,-0.39521926641464233,0.03811122477054596
1733767641298392000,5.82339208984375,-0.34234294295310974,-0.429401695728302,0.28673285245895386
1733767641308352000,5.83335205078125,-0.1790861040353775,-0.3400760889053345,0.42541617155075073
1733767641318312000,5.84331201171875,0.00026835035532712936,-0.28643500804901123,0.357149213552475
1733767641328272000,5.85327197265625,0.11614861339330673,-0.2693484425544739,0.13578994572162628
1733767641338233000,5.863233154296875,0.17881274223327637,-0.3302890956401825,-0.06244926527142525
1733767641348193000,5.873193115234375,0.25071224570274353,-0.40384215116500854,-0.05862390622496605
1733767641358153000,5.883153076171875,0.3449731469154358,-0.34876853227615356,0.1327429711818695
1733767641368113200,5.893113037109375,0.45352572202682495,-0.24071688950061798,0.37027430534362793
1733767641378073000,5.903072998046875,0.5886465907096863,-0.15367081761360168,0.5183875560760498
1733767641388033000,5.913032958984375,0.7460132837295532,-0.0653553381562233,0.5003856420516968
1733767641397994000,5.922993896484375,0.8768232464790344,0.07377129048109055,0.30926594138145447
1733767641407954000,5.932953857421875,0.8954326510429382,0.36463430523872375,0.05697006732225418
1733767641417913900,5.942913818359375,0.694361686706543,0.9078614711761475,0.050413668155670166
1733767641427874000,5.9528740234375,0.6308532953262329,2.1157355308532715,0.778683602809906
1733767641437834000,5.962833984375,0.4019351899623871,1.7341328859329224,0.46990641951560974
1733767641447794000,5.9727939453125,-0.357074499130249,0.7130787968635559,-0.5744308829307556
1733767641457755100,5.982755126953125,-1.0241097211837769,0.6162747740745544,-1.0968148708343506
1733767641467715000,5.992715087890625,-0.9573114514350891,1.74777090549469,-0.2881351411342621
1733767641477675000,6.002675048828125,-0.3833891451358795,2.662088394165039,1.1747885942459106
1733767641487635000,6.012635009765625,-0.016512613743543625,2.421722412109375,1.9385547637939453
1733767641497595100,6.02259521484375,-0.05753970146179199,1.5559371709823608,1.8241136074066162
1733767641507555800,6.032555908203125,-0.24772721529006958,0.4357602596282959,1.130812168121338
1733767641517515800,6.042515869140625,-0.39074039459228516,-0.737169623374939,0.1388794630765915
1733767641527476000,6.05247607421875,-0.5624663829803467,-1.4292722940444946,-0.5553123354911804
1733767641537436000,6.062435791015625,-0.7210200428962708,-1.6616466045379639,-0.8493918776512146
1733767641547395800,6.072395751953125,-0.8818081617355347,-1.709519863128662,-0.8768184185028076
1733767641557355800,6.082355712890625,-1.0048624277114868,-1.7051115036010742,-0.7908276319503784
1733767641567317000,6.09231689453125,-1.0965665578842163,-1.7927817106246948,-0.7507970929145813
1733767641577277000,6.10227685546875,-1.1262506246566772,-2.0270023345947266,-0.886684238910675
1733767641587236900,6.11223681640625,-1.0647648572921753,-2.264301300048828,-1.0855729579925537
1733767641597197000,6.122197021484375,-0.91749107837677,-2.1852636337280273,-1.3155382871627808
1733767641607157000,6.132156982421875,-0.7641595602035522,-1.497793197631836,-1.8843812942504883
1733767641617117000,6.142116943359375,-0.5714775323867798,0.23657114803791046,-3.1032776832580566
1733767641627078100,6.152078125,-0.320069283246994,2.2565362453460693,-3.9438490867614746
1733767641637038000,6.1620380859375,-0.13426823914051056,3.8219635486602783,-4.067078113555908
1733767641646998000,6.171998046875,-0.10531595349311829,4.567398548126221,-3.711892604827881
1733767641656958000,6.1819580078125,-0.012681534513831139,4.854686737060547,-3.347774028778076
1733767641666918100,6.191918212890625,-0.041234616190195084,4.729054927825928,-3.001157760620117
1733767641676878000,6.201878173828125,-0.17084643244743347,4.226417541503906,-2.6593704223632812
1733767641686838800,6.2118388671875,-0.25761330127716064,3.8641693592071533,-2.5287513732910156
1733767641696799000,6.221799072265625,-0.21111606061458588,3.7005462646484375,-2.6252872943878174
1733767641706759000,6.231759033203125,-0.16923119127750397,3.631136894226074,-2.7350709438323975
1733767641716718800,6.24171875,-0.02747681364417076,3.2276484966278076,-2.7204012870788574
1733767641726679000,6.251678955078125,0.18149158358573914,2.589489459991455,-2.5986127853393555
1733767641736639000,6.261638916015625,0.4113875925540924,2.2274041175842285,-2.459463119506836
1733767641746600000,6.271599853515625,0.5281358361244202,2.0669143199920654,-2.3355727195739746
1733767641756560100,6.28156005859375,0.5245295166969299,1.9449410438537598,-2.071751117706299
1733767641766520000,6.29152001953125,0.4258023500442505,1.8013296127319336,-1.674202799797058
1733767641776480000,6.30147998046875,0.3324298858642578,1.6292630434036255,-1.2157227993011475
1733767641786440000,6.31143994140625,0.3510134220123291,1.2960920333862305,-0.7151208519935608
1733767641796400000,6.321400146484375,0.372717022895813,0.7739618420600891,-0.16534914076328278
1733767641806361000,6.331361083984375,0.35174089670181274,0.15361548960208893,0.3526013493537903
1733767641816321000,6.341321044921875,0.3134956359863281,-0.4201279282569885,0.7987465858459473
1733767641826281000,6.351281005859375,0.2850954234600067,-0.863310694694519,1.1083468198776245
1733767641836241000,6.361240966796875,0.28117072582244873,-1.1290576457977295,1.2643156051635742
1733767641846201000,6.371201171875,0.2811736464500427,-1.2226022481918335,1.3508931398391724
1733767641856161000,6.3811611328125,0.21900799870491028,-1.1937854290008545,1.4732351303100586
1733767641866122000,6.3911220703125,0.09736013412475586,-1.1016517877578735,1.5967599153518677
1733767641876082200,6.401082275390625,-0.03641384840011597,-0.9146419167518616,1.5501214265823364
1733767641886042000,6.4110419921875,-0.13293346762657166,-0.6763710379600525,1.1879889965057373
1733767641896002000,6.421001953125,-0.19544348120689392,-0.45711445808410645,0.5360185503959656
1733767641905962000,6.4309619140625,-0.18829874694347382,-0.24078932404518127,-0.14072158932685852
1733767641915922200,6.440922119140625,-0.16655433177947998,-0.06192052364349365,-0.6588776111602783
1733767641925883100,6.450883056640625,-0.20344576239585876,0.043542250990867615,-0.9881340265274048
1733767641935843000,6.460843017578125,-0.2689552307128906,0.17184309661388397,-1.0664368867874146
1733767641945803300,6.47080322265625,-0.32471969723701477,0.2960861921310425,-0.9687846899032593
1733767641955763200,6.48076318359375,-0.3554185926914215,0.3143446147441864,-0.8307860493659973
1733767641965723100,6.49072314453125,-0.4064546227455139,0.24503692984580994,-0.7776724696159363
1733767641975683300,6.500683349609375,-0.5355820655822754,0.36015790700912476,-1.017490267753601
1733767641985644000,6.51064404296875,-0.6271311044692993,0.8274393081665039,-1.5911180973052979
1733767641995604000,6.52060400390625,-0.49367621541023254,1.4138131141662598,-2.055899143218994
1733767642005564200,6.530564208984375,-0.13851703703403473,1.7617204189300537,-2.066758394241333
1733767642015524000,6.540524169921875,0.24096956849098206,1.9634473323822021,-1.9017702341079712
1733767642025484000,6.550484130859375,0.421416312456131,2.760474681854248,-1.9486913681030273
1733767642035444000,6.56044384765625,0.4847944378852844,5.957816123962402,-1.5069833993911743
1733767642045405200,6.5704052734375,0.6101592779159546,9.53779125213623,0.5975351929664612
1733767642055365000,6.580365234375,1.3803274631500244,8.959175109863281,2.27005934715271
1733767642065325000,6.590324951171875,2.446707010269165,5.029038906097412,3.040417194366455
1733767642075285200,6.60028515625,2.7717628479003906,0.9448568820953369,3.7548394203186035
1733767642085245200,6.6102451171875,2.6026339530944824,-2.0895867347717285,4.518816947937012
1733767642095205000,6.620205078125,2.1005470752716064,-3.675748586654663,5.104851245880127
1733767642105166000,6.630166015625,1.4285309314727783,-4.123575210571289,5.359367370605469
1733767642115126000,6.6401259765625,0.8466774821281433,-4.218906879425049,5.358448505401611
1733767642125086000,6.6500859375,0.653113067150116,-3.6956307888031006,5.4245476722717285
1733767642135046000,6.6600458984375,0.7266534566879272,-2.799316167831421,5.358266353607178
1733767642145006000,6.670006103515625,0.7467594742774963,-2.0120644569396973,4.692594528198242
1733767642154967000,6.679967041015625,0.49328678846359253,-1.5573383569717407,3.369358539581299
1733767642164927000,6.689927001953125,0.12870429456233978,-0.803275465965271,2.108247995376587
1733767642174887200,6.69988720703125,0.0222715362906456,-0.07694729417562485,1.437376856803894
1733767642184847000,6.70984716796875,0.10300979018211365,0.6535071730613708,1.4126819372177124
1733767642194807000,6.71980712890625,0.2260032743215561,1.3119505643844604,1.5183684825897217
1733767642204767000,6.72976708984375,0.24181152880191803,1.555525779724121,1.366807222366333
1733767642214728200,6.739728271484375,0.25242260098457336,1.4874054193496704,0.8449385762214661
1733767642224688000,6.749688232421875,0.4460112154483795,1.1375057697296143,0.009741399437189102
1733767642234648000,6.75964794921875,0.6491095423698425,0.9120895266532898,-0.5497182011604309
1733767642244608300,6.769608154296875,0.7575627565383911,1.1023619174957275,-0.720295786857605
1733767642254568200,6.779568115234375,0.8049150109291077,1.6646102666854858,-0.5515918135643005
1733767642264528100,6.789528076171875,0.8519088625907898,2.192530632019043,-0.12014557421207428
1733767642274489000,6.799489013671875,0.8722746968269348,1.7397326231002808,0.32894861698150635
1733767642284449000,6.809448974609375,0.8298055529594421,0.6354967951774597,0.7356737852096558
1733767642294409000,6.819408935546875,0.6689736247062683,-0.45462289452552795,1.0681852102279663
1733767642304369200,6.829369140625,0.4940550625324249,-1.0806070566177368,1.290283441543579
1733767642314329000,6.8393291015625,0.4155476689338684,-1.3198864459991455,1.289935827255249
1733767642324289000,6.8492890625,0.41512876749038696,-1.3649979829788208,1.0817760229110718
1733767642334250200,6.859250244140625,0.4540611803531647,-1.1810461282730103,0.7489837408065796
1733767642344210200,6.869210205078125,0.49491646885871887,-0.8062443137168884,0.36397504806518555
1733767642354170000,6.879170166015625,0.5172141790390015,-0.4457055330276489,-0.009132933802902699
1733767642364130000,6.889130126953125,0.4757775068283081,-0.12769347429275513,-0.3068503737449646
1733767642374090200,6.89909033203125,0.36880049109458923,0.11933466047048569,-0.531335711479187
1733767642384050200,6.90905029296875,0.2351185828447342,0.22114650905132294,-0.7309929132461548
1733767642394011100,6.91901123046875,0.09102533012628555,0.19519342482089996,-0.9119477868080139
1733767642403971000,6.92897119140625,-0.10379023104906082,0.06797155737876892,-1.1026556491851807
1733767642413931000,6.938930908203125,-0.22956880927085876,-0.050043877214193344,-1.2462599277496338
1733767642423891000,6.948890869140625,-0.2772873342037201,-0.06514346599578857,-1.3759721517562866
1733767642433851000,6.958850830078125,-0.34391120076179504,-0.009942561388015747,-1.510560393333435
1733767642443811000,6.96881103515625,-0.4700486361980438,-0.12705348432064056,-1.4567837715148926
1733767642453772000,6.97877197265625,-0.6147967576980591,-0.25711169838905334,-1.0545734167099
1733767642463732000,6.98873193359375,-0.767288327217102,-0.7905250191688538,-0.45182865858078003
1733767642473692200,6.998692138671875,-0.7531875967979431,-1.451361894607544,0.03934994339942932
1733767642483652000,7.008652099609375,-0.47749581933021545,-1.434775710105896,0.3150438368320465
1733767642493612000,7.018612060546875,-0.07135683298110962,-0.8727359771728516,0.2495601773262024
1733767642503572000,7.028572021484375,0.31711822748184204,-0.20785413682460785,-0.02894655428826809
1733767642513533200,7.038533203125,0.7290030717849731,-0.035310350358486176,-0.2688050866127014
1733767642523493000,7.0484931640625,1.076777458190918,-0.41867396235466003,-0.1810869425535202
1733767642533453000,7.058453125,1.2228869199752808,-0.9007043838500977,0.15752048790454865
1733767642543413200,7.068413330078125,1.1560213565826416,-1.2504363059997559,0.5528555512428284
1733767642553373200,7.078373291015625,0.9461304545402527,-1.4311531782150269,0.7558167576789856
1733767642563333000,7.0883330078125,0.6979020237922668,-1.2797828912734985,0.7000997066497803
1733767642573294000,7.098294189453125,0.3438655734062195,-0.7001549601554871,0.49691635370254517
1733767642583254000,7.10825390625,-0.09570540487766266,0.10213884711265564,0.24004994332790375
1733767642593214000,7.1182138671875,-0.3080574870109558,1.0839139223098755,0.15386980772018433
1733767642603174100,7.128174072265625,-0.17465204000473022,2.2199621200561523,0.45519956946372986
1733767642613134000,7.138134033203125,-0.39829573035240173,2.1114275455474854,-0.04579361900687218
1733767642623095000,7.148094970703125,-0.6631050109863281,1.7056161165237427,-0.783623456954956
1733767642633055200,7.15805517578125,-0.5976653695106506,2.133737564086914,-1.0282071828842163
1733767642643015200,7.16801513671875,0.08250833302736282,3.5244219303131104,-0.026106489822268486
1733767642652975000,7.17797509765625,0.8630256652832031,4.135776519775391,1.0863964557647705
1733767642662935000,7.18793505859375,0.9906725883483887,3.3276891708374023,1.334492802619934
1733767642672895200,7.197895263671875,0.5414172410964966,1.8938874006271362,0.8567736744880676
1733767642682856200,7.207856201171875,-0.2957450747489929,0.8498545289039612,0.19330251216888428
1733767642692816100,7.217816162109375,-1.0622843503952026,0.10949891805648804,-0.31665170192718506
1733767642702776300,7.2277763671875,-1.4772058725357056,-0.5411611199378967,-0.6393826007843018
1733767642712736300,7.237736328125,-1.7289764881134033,-0.7751644253730774,-0.792565643787384
1733767642722696200,7.2476962890625,-1.8239405155181885,-0.8470138907432556,-0.7765212059020996
1733767642732656000,7.25765625,-1.7812347412109375,-1.1283397674560547,-0.69830721616745
1733767642742617000,7.2676171875,-1.611688256263733,-1.670030951499939,-0.7494683861732483
1733767642752577000,7.277576904296875,-1.4797743558883667,-2.224705457687378,-0.9464302659034729
1733767642762537000,7.287536865234375,-1.3188989162445068,-2.767406463623047,-1.2224063873291016
1733767642772497200,7.2974970703125,-1.119665265083313,-3.094850778579712,-1.465291142463684
1733767642782457000,7.30745703125,-0.8894504308700562,-3.1335349082946777,-1.7390859127044678
1733767642792417000,7.3174169921875,-0.6964386105537415,-2.5829038619995117,-2.2386090755462646
1733767642802378200,7.327378173828125,-0.7952275276184082,-0.45714864134788513,-3.424666166305542
1733767642812337700,7.337337646484375,-0.9392370581626892,2.1113224029541016,-4.1925482749938965
1733767642822297600,7.347297607421875,-0.8281552791595459,4.009871959686279,-4.364075183868408
1733767642832257800,7.3572578125,-0.6268969774246216,4.55237340927124,-3.889166831970215
1733767642842217700,7.3672177734375,-0.4221550524234772,3.968837261199951,-3.14629864692688
1733767642852177700,7.377177734375,-0.38414254784584045,3.178809404373169,-2.6062915325164795
1733767642862138600,7.387138671875,-0.2965450584888458,2.85666561126709,-2.6166622638702393
1733767642872098600,7.3970986328125,-0.08171836286783218,2.6991865634918213,-2.8469762802124023
1733767642882058500,7.40705859375,0.20209524035453796,2.732111692428589,-2.996695041656494
1733767642892018400,7.417018310546875,0.5725215673446655,2.8449416160583496,-3.083383321762085
1733767642901978600,7.426978515625,0.8298643827438354,2.925708055496216,-3.112266778945923
1733767642911938600,7.4369384765625,0.9148699641227722,2.799081802368164,-2.9998326301574707
1733767642921899500,7.4468994140625,0.7991830110549927,2.563004732131958,-2.6884772777557373
1733767642931859700,7.456859619140625,0.6164895296096802,2.2683186531066895,-2.331596612930298
1733767642941819600,7.466819580078125,0.49366316199302673,1.9999054670333862,-1.9649454355239868
1733767642951779600,7.476779541015625,0.48020055890083313,1.7549760341644287,-1.5477501153945923
1733767642961739500,7.486739501953125,0.5279009938240051,1.4941459894180298,-1.108648657798767
1733767642971700700,7.49670068359375,0.664813756942749,1.1712614297866821,-0.6285253167152405
1733767642981660700,7.50666064453125,0.6697403192520142,1.011730670928955,-0.05744427442550659
1733767642991620600,7.51662060546875,0.6017194390296936,0.784446120262146,0.3995954394340515
1733767643001580800,7.526580810546875,0.560218870639801,0.5388376712799072,0.7504274845123291
1733767643011540700,7.536540771484375,0.4955262243747711,0.3056678771972656,1.0109565258026123
1733767643021500700,7.546500732421875,0.3799023926258087,0.10506102442741394,1.1892893314361572
1733767643031461600,7.556461669921875,0.16279201209545135,-0.0699339210987091,1.1906217336654663
1733767643041421600,7.566421630859375,-0.031125254929065704,-0.02340104430913925,0.9689316153526306
1733767643051381500,7.576381591796875,-0.199249729514122,0.1547774225473404,0.6883988976478577
1733767643061341700,7.586341796875,-0.4442030191421509,0.2787579596042633,0.5058610439300537
1733767643071301600,7.596301513671875,-0.6404904127120972,0.4768948554992676,0.3670022785663605
1733767643081261600,7.606261474609375,-0.6716448664665222,0.4826081395149231,0.14022719860076904
1733767643091222800,7.616222900390625,-0.5770121216773987,0.26544123888015747,-0.1323707103729248
1733767643101182700,7.6261826171875,-0.4419824182987213,-0.17275018990039825,-0.43884116411209106
1733767643111142700,7.636142578125,-0.24524538218975067,-0.683284342288971,-0.673240065574646
1733767643121102600,7.6461025390625,-0.08040450513362885,-1.1284867525100708,-0.7710167169570923
1733767643131062800,7.656062744140625,0.017600620165467262,-1.3337045907974243,-0.7779510021209717
1733767643141022700,7.666022705078125,0.01782352663576603,-1.2290070056915283,-0.7255722284317017
1733767643150983700,7.675983642578125,-0.002767177764326334,-0.9393805861473083,-0.6764847040176392
1733767643160943900,7.68594384765625,0.037922460585832596,-0.6209205985069275,-0.6374805569648743
1733767643170903800,7.69590380859375,0.17362985014915466,-0.3305574357509613,-0.5723391771316528
1733767643180863700,7.70586376953125,0.36741581559181213,-0.11256092041730881,-0.47042667865753174
1733767643190823700,7.71582373046875,0.572070837020874,0.04497320577502251,-0.3446056544780731
1733767643200784600,7.72578466796875,0.6744558215141296,0.2026243507862091,-0.2802770137786865
1733767643210744600,7.73574462890625,0.6393151879310608,0.4820297360420227,-0.4482269287109375
1733767643220704500,7.74570458984375,0.6504453420639038,0.8046954274177551,-0.7788013219833374
1733767643230664700,7.755664794921875,0.6159935593605042,1.5148345232009888,0.4474506676197052
1733767643240624600,7.765624755859375,0.6181195974349976,1.8524136543273926,3.185295581817627
1733767643250584600,7.77558447265625,1.0026518106460571,1.399562120437622,4.433465957641602
1733767643260545800,7.7855458984375,1.399338960647583,0.5283172130584717,5.166518688201904
1733767643270505700,7.795505615234375,1.5299277305603027,-0.34327641129493713,5.769937038421631
1733767643280465700,7.805465576171875,1.5843565464019775,-0.469184547662735,6.040360927581787
1733767643290425600,7.815425537109375,1.4333423376083374,-0.46367791295051575,5.8838629722595215
1733767643300385800,7.8253857421875,1.1121230125427246,-0.8899397253990173,5.230960369110107
1733767643310345700,7.835345703125,0.7581794857978821,-1.6523195505142212,4.053061008453369
1733767643320306400,7.845306396484375,0.7253775596618652,-2.576896905899048,2.525578260421753
1733767643330266600,7.8552666015625,0.893571674823761,-3.464916229248047,1.4050873517990112
1733767643340226600,7.8652265625,1.0043617486953735,-3.30106258392334,1.3975740671157837
1733767643350186500,7.8751865234375,0.992826521396637,-2.4883785247802734,2.15583872795105
1733767643360146700,7.885146728515625,0.7043933868408203,-1.6539419889450073,2.665687084197998
1733767643370106600,7.895106689453125,0.20081491768360138,-1.1212619543075562,2.634432554244995
1733767643380067600,7.905067626953125,-0.25164735317230225,-0.4288713037967682,2.1317086219787598
1733767643390027800,7.91502783203125,-0.2797341048717499,0.14378966391086578,1.126484990119934
1733767643399987700,7.92498779296875,-0.009174535050988197,0.8022029399871826,0.49452701210975647
1733767643409947600,7.93494775390625,0.2630847692489624,1.5729894638061523,0.326371967792511
1733767643419907600,7.944907470703125,0.4890121519565582,1.8304873704910278,0.408414363861084
1733767643429868800,7.954868896484375,0.6813257932662964,1.3382163047790527,0.5124380588531494
1733767643439828700,7.964828857421875,0.8927397727966309,0.4983879327774048,0.5491862297058105
1733767643449788700,7.97478857421875,1.065413475036621,-0.3043416738510132,0.6366841793060303
1733767643459748900,7.984748779296875,1.0233174562454224,-0.7949188351631165,0.7835085391998291
1733767643469708800,7.994708740234375,0.9020220637321472,-0.9093737602233887,0.9561696648597717
1733767643479668700,8.004668701171875,0.8556857109069824,-0.8539957404136658,1.1067821979522705
1733767643489629700,8.014629638671876,0.8159070014953613,-0.8255636692047119,1.1571555137634277
1733767643499589600,8.024589599609374,0.7798933386802673,-0.8517239093780518,1.1091669797897339
1733767643509549600,8.034549560546875,0.7169637680053711,-0.8753411769866943,1.048099160194397
1733767643519509500,8.044509521484375,0.5728012919425964,-0.8497985601425171,0.9828788042068481
1733767643529469700,8.0544697265625,0.4041634202003479,-0.7488647699356079,0.847966194152832
1733767643539429600,8.0644296875,0.23777258396148682,-0.7162924408912659,0.634501039981842
1733767643549390600,8.074390625,0.07080690562725067,-0.8078164458274841,0.3782101571559906
1733767643559350800,8.084350830078124,-0.09783697128295898,-0.9466725587844849,0.1594029664993286
1733767643569310700,8.094310791015625,-0.22673675417900085,-1.108202338218689,-0.04564233869314194
1733767643579270700,8.104270751953125,-0.2923213541507721,-1.1781727075576782,-0.26504847407341003
1733767643589230600,8.114230712890626,-0.32169458270072937,-1.1386075019836426,-0.4671572744846344
1733767643599190800,8.124190673828124,-0.30066385865211487,-1.1765830516815186,-0.6385596990585327
1733767643609151500,8.1341513671875,-0.26205891370773315,-1.3204056024551392,-0.77586829662323
1733767643619111400,8.144111328125,-0.19780990481376648,-1.312967300415039,-0.7780888676643372
1733767643629071600,8.154071533203124,-0.028146687895059586,-1.0192259550094604,-0.5598471164703369
1733767643639031600,8.164031494140625,0.2034417986869812,-0.8055232763290405,-0.29673877358436584
1733767643648991500,8.173991455078125,0.30153563618659973,-1.034124493598938,-0.31249168515205383
1733767643658952700,8.18395263671875,0.20699287950992584,-1.2317800521850586,-0.3874721825122833
1733767643668912600,8.19391259765625,0.10078531503677368,-1.3269298076629639,-0.3055141270160675
1733767643678872600,8.20387255859375,0.08720798790454865,-1.382989525794983,-0.1511642187833786
1733767643688832800,8.213832763671874,0.11364883184432983,-1.3511072397232056,-0.019755158573389053
1733767643698792700,8.223792724609375,0.13350695371627808,-1.2116460800170898,-0.009611444547772408
1733767643708752600,8.233752685546875,0.18508681654930115,-0.8289142847061157,-0.07955943048000336
1733767643718713900,8.2437138671875,0.3451603949069977,0.26248449087142944,0.19485348463058472
1733767643728673800,8.253673828125,0.37981483340263367,0.9086761474609375,-0.09619231522083282
1733767643738633700,8.2636337890625,-0.12619350850582123,1.3217402696609497,-0.6694382429122925
1733767643748593700,8.27359375,-0.8227546811103821,2.3181755542755127,-0.898821234703064
1733767643758553900,8.283553955078125,-0.9514588713645935,3.691631555557251,-0.38573983311653137
1733767643768513800,8.293513671875,-0.5243504643440247,4.4126200675964355,0.6071357727050781
1733767643778474500,8.303474609375,-0.07384856790304184,4.093652725219727,0.9768107533454895
1733767643788434700,8.3134345703125,0.06769769638776779,2.978729724884033,0.27989763021469116
1733767643798394600,8.32339453125,-0.029274653643369675,2.1194353103637695,-1.0036683082580566
1733767643808355000,8.33335498046875,-0.5119351148605347,1.9094327688217163,-1.8948866128921509
1733767643818315000,8.34331494140625,-1.2123416662216187,2.0817148685455322,-1.826343059539795
1733767643828275000,8.35327490234375,-1.7931305170059204,2.188626289367676,-1.242051362991333
1733767643838236200,8.363236083984376,-2.039067506790161,1.983077883720398,-0.7622919678688049
1733767643848196000,8.373196044921874,-1.9951401948928833,1.4479985237121582,-0.5303672552108765
1733767643858156000,8.383156005859375,-1.7864229679107666,0.49893850088119507,-0.5343835353851318
1733767643868116000,8.393115966796875,-1.5574994087219238,-0.5702797174453735,-0.6478836536407471
1733767643878076200,8.403076171875,-1.4252225160598755,-1.6604939699172974,-0.8655014634132385
1733767643888036000,8.4130361328125,-1.4037013053894043,-2.5675673484802246,-1.0534543991088867
1733767643897996800,8.422996826171875,-1.512137770652771,-3.2392420768737793,-1.141305923461914
1733767643907957000,8.43295703125,-1.688629388809204,-3.750549554824829,-1.153870701789856
1733767643917917000,8.4429169921875,-1.8780927658081055,-3.8722822666168213,-1.1787142753601074
1733767643927876900,8.452876953125,-1.8419950008392334,-3.6198480129241943,-1.2674869298934937
1733767643937836800,8.4628369140625,-1.548401951789856,-2.347738265991211,-2.02664852142334
1733767643947798000,8.472798095703125,-1.0095611810684204,-0.07333534210920334,-2.965803861618042
1733767643957758000,8.482758056640625,-0.5234706997871399,1.7728790044784546,-3.311624526977539
1733767643967718000,8.4927177734375,-0.41608721017837524,2.879359245300293,-3.1812233924865723
1733767643977678000,8.502677978515624,-0.4155023992061615,3.2286574840545654,-2.810263156890869
1733767643987638000,8.512637939453125,-0.22562472522258759,3.11214280128479,-2.353956937789917
1733767643997598000,8.522597900390625,0.13575157523155212,2.826388359069824,-2.033747434616089
1733767644007559200,8.53255908203125,0.4037744402885437,2.463205337524414,-1.8919622898101807
1733767644017519000,8.54251904296875,0.44247177243232727,1.9758639335632324,-1.832168459892273
1733767644027479000,8.55247900390625,0.3722885549068451,1.333817958831787,-1.7520179748535156
1733767644037439000,8.56243896484375,0.3775688111782074,0.585455596446991,-1.6035739183425903
1733767644047399200,8.572399169921875,0.44580888748168945,-0.22317634522914886,-1.3906707763671875
1733767644057360000,8.58235986328125,0.5002124905586243,-0.8719878792762756,-1.1588460206985474
1733767644067319800,8.59231982421875,0.5708566904067993,-1.2883788347244263,-0.9986961483955383
1733767644077280000,8.602280029296875,0.6180340647697449,-1.4649624824523926,-0.9146877527236938
1733767644087240000,8.612239990234375,0.6192620396614075,-1.394309639930725,-0.864630401134491
1733767644097199900,8.622199951171876,0.5939838290214539,-1.0542795658111572,-0.7558245658874512
1733767644107160000,8.63216015625,0.5060786604881287,-0.5026949048042297,-0.5181018710136414
1733767644117121000,8.64212109375,0.4244368076324463,0.18096140027046204,-0.1465248167514801
1733767644127081000,8.6520810546875,0.3246329724788666,0.866833508014679,0.23664113879203796
1733767644137041200,8.662041259765624,0.2587016522884369,1.4383491277694702,0.4260576665401459
1733767644147001000,8.6720009765625,0.21242502331733704,1.8210794925689697,0.2582904100418091
1733767644156961000,8.6819609375,0.18156617879867554,1.880858063697815,-0.23809193074703217
1733767644166921000,8.6919208984375,0.10134351253509521,1.7774688005447388,-0.8246377110481262
1733767644176882000,8.7018818359375,-0.03258472681045532,1.5405234098434448,-1.3782048225402832
1733767644186841900,8.711841796875,-0.08575074374675751,1.317561149597168,-1.7517518997192383
1733767644196801800,8.7218017578125,-0.056363027542829514,1.1432855129241943,-1.9870880842208862
1733767644206762000,8.731761962890625,-0.0883520245552063,0.9827778935432434,-2.1643950939178467
1733767644216722000,8.741721923828125,-0.2864249050617218,0.9642431139945984,-2.0410757064819336
1733767644226683000,8.751682861328124,-0.6163626313209534,1.04997718334198,-1.5315886735916138
1733767644236643000,8.76164306640625,-0.8463343381881714,1.0589224100112915,-0.8237844109535217
1733767644246603000,8.77160302734375,-0.8814414739608765,0.8357383012771606,-0.1859210878610611
1733767644256563000,8.78156298828125,-0.7783713340759277,0.3097195029258728,0.13748307526111603
1733767644266523000,8.79152294921875,-0.6158298850059509,-0.35976654291152954,0.13784678280353546
1733767644276483000,8.801483154296875,-0.43683457374572754,-0.9335286617279053,0.0727442130446434
1733767644286444000,8.811444091796876,-0.2316100150346756,-1.320981502532959,0.12931522727012634
1733767644296404000,8.821404052734374,-0.016633249819278717,-1.549777626991272,0.3481711447238922
1733767644306364200,8.8313642578125,0.07792432606220245,-1.7594561576843262,0.6171455383300781
1733767644316324000,8.841323974609375,-0.05943593010306358,-1.97368323802948,0.7869617342948914
1733767644326284000,8.851283935546874,-0.2201368659734726,-2.1078720092773438,0.8115300536155701
1733767644336244000,8.861243896484375,-0.13262832164764404,-2.0713050365448,0.6655517816543579
1733767644346205000,8.871204833984375,0.08518771082162857,-1.5052433013916016,0.7046766877174377
1733767644356164900,8.881164794921874,0.15101999044418335,-0.42758023738861084,1.3698680400848389
1733767644366124800,8.891124755859375,0.11261368542909622,0.42958614230155945,2.3499162197113037
1733767644376085000,8.9010849609375,0.15454994142055511,0.7272615432739258,3.170811176300049
1733767644386045000,8.911044921875,0.2305416762828827,0.5738739371299744,3.8075788021087646
1733767644396004900,8.9210048828125,0.3233688473701477,0.06177176535129547,4.292059421539307
1733767644405966000,8.930966064453125,0.41191503405570984,-0.719716489315033,4.589389324188232
1733767644415926000,8.940926025390626,0.4886670708656311,-1.6201964616775513,4.681665420532227
1733767644425886000,8.950885986328124,0.5638924837112427,-2.4910199642181396,4.588613033294678
1733767644435846100,8.96084619140625,0.5793138146400452,-3.2566399574279785,4.28662633895874
1733767644445806000,8.97080615234375,0.6181237101554871,-3.777959108352661,3.7660253047943115
1733767644455767000,8.98076708984375,0.5761626958847046,-3.7718868255615234,3.1769142150878906
1733767644465727000,8.99072705078125,0.49352842569351196,-3.4352800846099854,2.473625659942627
1733767644475687000,9.00068701171875,0.5677781701087952,-3.1596741676330566,1.7507009506225586
1733767644485646800,9.010646728515624,0.5722277164459229,-2.859614849090576,1.4577293395996094
1733767644495606800,9.020606689453125,0.5080646872520447,-2.687185049057007,1.4652529954910278
1733767644505567000,9.03056689453125,0.4595167636871338,-2.370191812515259,1.620788812637329
1733767644515528000,9.04052783203125,0.39505520462989807,-2.0186121463775635,1.719632863998413
1733767644525487900,9.05048779296875,0.2645840048789978,-1.5346707105636597,1.389176368713379
1733767644535448000,9.060447998046875,0.2957850694656372,-0.7767117023468018,0.6803281903266907
1733767644545408000,9.070407958984376,0.5840266346931458,0.028567126020789146,0.21773913502693176
1733767644555368000,9.080367919921875,0.9064280986785889,0.5176180601119995,0.17102009057998657
1733767644565329200,9.0903291015625,1.138814091682434,0.5462773442268372,0.26601848006248474
1733767644575289000,9.1002890625,1.2183738946914673,0.08029308170080185,0.33901357650756836
1733767644585249000,9.1102490234375,1.1420267820358276,-0.7613804340362549,0.4357312023639679
1733767644595209000,9.120208984375,0.9115787148475647,-1.6661843061447144,0.5394306778907776
1733767644605169200,9.130169189453126,0.6966282725334167,-2.452134847640991,0.6421633362770081
1733767644615129000,9.140129150390624,0.6145401000976562,-2.969630241394043,0.7503395676612854
1733767644625089800,9.15008984375,0.5836251974105835,-3.1755614280700684,0.806483805179596
1733767644635050000,9.160050048828126,0.5598133206367493,-3.256354331970215,0.7584222555160522
1733767644645010000,9.170010009765624,0.5121068358421326,-3.1558520793914795,0.6056950092315674
1733767644654969900,9.179969970703125,0.4381239116191864,-3.013683557510376,0.39668208360671997
1733767644664929800,9.1899296875,0.3279998004436493,-3.0712037086486816,0.18651314079761505
1733767644674890000,9.199889892578126,0.21412518620491028,-3.3021469116210938,0.013783453032374382
1733767644684851000,9.209850830078125,0.0779372900724411,-3.6595816612243652,-0.15898197889328003
1733767644694811000,9.219810791015625,-0.14212290942668915,-4.11947774887085,-0.33172526955604553
1733767644704771000,9.22977099609375,-0.38117411732673645,-4.65781831741333,-0.48009875416755676
1733767644714731000,9.23973095703125,-0.50296950340271,-5.144873142242432,-0.6603971719741821
1733767644724691000,9.24969091796875,-0.4503454566001892,-5.391110897064209,-0.9358111619949341
1733767644734652200,9.259652099609376,-0.24796384572982788,-5.501051425933838,-1.321220874786377
1733767644744612000,9.269612060546875,0.11374194920063019,-5.987604141235352,-1.7163879871368408
1733767644754572000,9.279572021484375,0.4365426301956177,-5.977463245391846,-1.5291630029678345
1733767644764532000,9.289531982421876,0.3316047489643097,-4.641129016876221,0.30834972858428955
1733767644774492000,9.299491943359374,-0.3299359083175659,-4.157533168792725,0.7184773087501526
1733767644784451800,9.309451904296875,-0.6173816919326782,-2.6323299407958984,0.2475692182779312
1733767644794413000,9.3194130859375,-0.25266632437705994,0.08164722472429276,0.5747843980789185
1733767644804373000,9.329373046875,0.5117672681808472,2.6680328845977783,1.8692461252212524
1733767644814333700,9.339333740234375,1.0604979991912842,3.333216428756714,2.829901933670044
1733767644824293600,9.349293701171876,0.9986982941627502,1.6072267293930054,2.7180328369140625
1733767644834253800,9.35925390625,0.47069650888442993,-0.9000999927520752,1.712080955505371
1733767644844214800,9.36921484375,-0.13134035468101501,-2.1472160816192627,0.24403749406337738
1733767644854174700,9.3791748046875,-0.34526488184928894,-1.5530602931976318,-0.9288991093635559
1733767644864135000,9.389135009765624,-0.05478516221046448,-1.161279559135437,-1.504900574684143
1733767644874094800,9.3990947265625,0.09753672778606415,-1.5210524797439575,-1.7052302360534668
1733767644884054800,9.4090546875,-0.1489984542131424,-1.9334619045257568,-1.6022770404815674
1733767644894014700,9.4190146484375,-0.4333699643611908,-2.4127840995788574,-1.13180673122406
1733767644903975700,9.4289755859375,-0.4743962585926056,-2.8825905323028564,-0.563984215259552
1733767644913935600,9.438935546875,-0.2069009393453598,-3.3407585620880127,-0.17096391320228577
1733767644923895800,9.448895751953126,0.21853432059288025,-3.7627902030944824,-0.004467453807592392
1733767644933855700,9.458855712890625,0.5870508551597595,-4.339515209197998,-0.2081683725118637
1733767644943815700,9.468815673828125,0.892102837562561,-4.9678754806518555,-0.76227205991745
1733767644953775600,9.478775634765626,1.1772783994674683,-5.356638431549072,-1.3365737199783325
1733767644963736800,9.48873681640625,1.3031972646713257,-5.279701232910156,-1.605467438697815
1733767644973696800,9.49869677734375,1.079634189605713,-4.927436351776123,-1.4935755729675293
1733767644983656700,9.50865673828125,0.6012792587280273,-4.4461822509765625,-1.1784225702285767
1733767644993617000,9.518616943359374,0.3458339273929596,-3.73781418800354,-0.7956984043121338
1733767645003576800,9.528576904296875,0.5211631059646606,-2.8800814151763916,-0.40386635065078735
1733767645013537500,9.53853759765625,0.7773714065551758,-2.1745405197143555,-0.12446080893278122
1733767645023497700,9.548497802734374,0.8527995347976685,-1.8573658466339111,0.028061749413609505
1733767645033457700,9.558457763671875,0.7165783047676086,-1.7085856199264526,0.11838126182556152
1733767645043417600,9.56841748046875,0.5057941675186157,-1.562727451324463,0.18204545974731445
1733767645053377500,9.57837744140625,0.28840672969818115,-1.386685848236084,0.2394496202468872
1733767645063337700,9.588337646484375,0.1228492483496666,-1.2163952589035034,0.2550625503063202
1733767645073298700,9.598298583984375,0.0018930016085505486,-1.0253161191940308,0.22458107769489288
1733767645083258600,9.608258544921876,-0.025226857513189316,-0.8335424661636353,0.15210838615894318
1733767645093218800,9.61821875,-0.021259546279907227,-0.6875343918800354,0.053857721388339996
1733767645103178800,9.6281787109375,-0.030697757378220558,-0.7122974991798401,-0.06124602258205414
1733767645113138700,9.638138671875,-0.02197111025452614,-0.9766378402709961,-0.21990224719047546
1733767645123100000,9.648099853515625,0.0066004046238958836,-1.5566258430480957,-0.39731308817863464
1733767645133059800,9.658059814453125,0.028372809290885925,-2.338557720184326,-0.5417342185974121
1733767645143019800,9.668019775390626,0.011118192225694656,-3.0824148654937744,-0.6016504764556885
1733767645152979700,9.677979736328124,-0.03638115152716637,-3.6284966468811035,-0.5618767142295837
1733767645162940000,9.68793994140625,-0.0515468493103981,-3.943394660949707,-0.4489910900592804
1733767645172899800,9.69789990234375,-0.016357434913516045,-4.088192462921143,-0.34187421202659607
1733767645182860500,9.707860595703124,0.08024696260690689,-3.9879817962646484,-0.2868167459964752
1733767645192820700,9.71782080078125,0.16673152148723602,-3.678572654724121,-0.33254748582839966
1733767645202780700,9.72778076171875,0.18463146686553955,-3.2835798263549805,-0.4517216384410858
1733767645212740600,9.73774072265625,0.17973072826862335,-2.8965811729431152,-0.5848930478096008
1733767645222700800,9.74770068359375,0.12975771725177765,-2.6382627487182617,-0.7364513874053955
1733767645232661800,9.757661865234375,0.018359296023845673,-2.372147798538208,-0.8315662145614624
1733767645242621700,9.76762158203125,-0.1056189239025116,-1.989709734916687,-0.8029506206512451
1733767645252582000,9.777581787109375,-0.22299829125404358,-1.577643871307373,-0.6899455189704895
1733767645262541800,9.787541748046875,-0.2884889841079712,-1.1877027750015259,-0.5211262106895447
1733767645272501800,9.797501708984376,-0.30361732840538025,-0.899880588054657,-0.3639024496078491
1733767645282461700,9.807461669921874,-0.27692803740501404,-0.7390621304512024,-0.27062374353408813
1733767645292422700,9.817422607421875,-0.24516957998275757,-0.7090376615524292,-0.26665323972702026
1733767645302382600,9.827382568359376,-0.245104119181633,-0.7650248408317566,-0.3215264678001404
1733767645312342500,9.837342529296874,-0.2863953709602356,-0.9854016900062561,-0.4317491352558136
1733767645322302700,9.847302734375,-0.36553478240966797,-1.3818378448486328,-0.5621417760848999
1733767645332262700,9.8572626953125,-0.4809580445289612,-1.7496485710144043,-0.6591016054153442
1733767645342223600,9.8672236328125,-0.5874943137168884,-1.9290337562561035,-0.6975675225257874
1733767645352183800,9.877183837890625,-0.6419575810432434,-1.8803298473358154,-0.7001550793647766
1733767645362143700,9.887143798828125,-0.6021456718444824,-1.6496549844741821,-0.6692692041397095
1733767645372103700,9.897103759765624,-0.48513567447662354,-1.316726803779602,-0.6201735734939575
1733767645382063600,9.907063720703125,-0.36530253291130066,-1.047808051109314,-0.57265704870224
1733767645392024800,9.91702490234375,-0.29775679111480713,-0.9497672319412231,-0.5694891810417175
1733767645401984800,9.92698486328125,-0.26199135184288025,-1.0133227109909058,-0.6153743863105774
1733767645411944700,9.93694482421875,-0.2673986256122589,-1.2295246124267578,-0.6639323234558105
1733767645421905000,9.94690478515625,-0.32924726605415344,-1.3838859796524048,-0.6968941688537598
1733767645431864800,9.95686474609375,-0.43996500968933105,-1.452026128768921,-0.6939985156059265
1733767645441824800,9.96682470703125,-0.5465720295906067,-1.5038411617279053,-0.6230811476707458
1733767645451785700,9.97678564453125,-0.6474107503890991,-1.5953454971313477,-0.47573456168174744
1733767645461745700,9.98674560546875,-0.6101068258285522,-1.816135287284851,-0.3448869585990906
1733767645471705600,9.99670556640625,-0.47412851452827454,-2.2814126014709473,-0.21824084222316742
1733767645481665800,10.006665771484375,-0.4569896459579468,-2.800668239593506,-0.11550026386976242
1733767645491625700,10.016625732421875,-0.47689172625541687,-3.1836302280426025,-0.043324604630470276
1733767645501586700,10.026586669921874,-0.47782981395721436,-3.429795026779175,0.04958399757742882
1733767645511546600,10.036546630859375,-0.5205274820327759,-3.617067813873291,0.1815526783466339
1733767645521506800,10.0465068359375,-0.662760853767395,-4.068882465362549,0.24709592759609222
1733767645531466800,10.056466796875,-0.816077709197998,-4.469112873077393,0.3899846374988556
1733767645541426700,10.0664267578125,-0.9605724811553955,-4.328240871429443,0.6798924207687378
1733767645551388000,10.076387939453125,-0.9944567084312439,-3.7161097526550293,0.9966357350349426
1733767645561347800,10.086347900390624,-0.8783159852027893,-2.926940679550171,1.2901674509048462
1733767645571307800,10.096307861328125,-0.7665050029754639,-2.134331703186035,1.6254703998565674
1733767645581267700,10.106267822265625,-0.7250022888183594,-1.4194620847702026,1.9327291250228882
1733767645591227600,10.1162275390625,-0.6729065775871277,-0.8837307095527649,2.208237409591675
1733767645601187600,10.1261875,-0.5575222969055176,-0.6136519312858582,2.4704835414886475
1733767645611148800,10.136148681640625,-0.3612912595272064,-0.7247398495674133,2.7227942943573
1733767645621108700,10.146108642578126,-0.12759853899478912,-1.2468571662902832,2.893038034439087
1733767645631068700,10.156068603515624,-0.01124182716012001,-1.6637990474700928,3.0016074180603027
1733767645641028600,10.166028564453125,-0.003851939458400011,-1.6107020378112793,3.1353261470794678
1733767645650988800,10.17598876953125,-0.20152001082897186,-1.1497772932052612,3.180396795272827
1733767645660948700,10.18594873046875,-0.3617505729198456,-0.6908304691314697,3.11373233795166
1733767645670909700,10.19590966796875,-0.28715941309928894,-0.41305050253868103,2.931256055831909
1733767645680870000,10.205869873046876,-0.016208533197641373,-0.2552568316459656,2.7014033794403076
1733767645690829800,10.215829833984374,0.37642449140548706,-0.3840313255786896,2.396268844604492
1733767645700789800,10.225789794921875,0.617385983467102,-0.7430647611618042,2.0424013137817383
1733767645710749700,10.235749755859375,0.8710494041442871,-1.3053070306777954,1.6142939329147339
1733767645720710700,10.245710693359374,1.1325026750564575,-1.555364966392517,1.1912413835525513
1733767645730670600,10.255670654296875,1.294822096824646,-1.3368866443634033,0.7734512686729431
1733767645740630500,10.265630615234375,1.3756674528121948,-0.5911983847618103,0.4670863747596741
1733767645750590700,10.2755908203125,1.5824397802352905,0.4372235834598541,0.4464053213596344
1733767645760550700,10.285550537109375,1.9119242429733276,1.4063290357589722,0.6235740780830383
1733767645770511600,10.29551171875,2.0883829593658447,1.6553962230682373,0.8571165204048157
1733767645780471800,10.305471923828126,1.8690482378005981,0.8046995997428894,0.8815954923629761
1733767645790431700,10.315431640625,1.5972708463668823,-0.3191724419593811,1.0317999124526978
1733767645800391700,10.3253916015625,1.4375282526016235,-1.2180312871932983,1.3708536624908447
1733767645810350800,10.335350830078125,1.3055177927017212,-1.9364343881607056,1.6476143598556519
1733767645820311800,10.345311767578124,1.1721651554107666,-2.391812801361084,1.7150598764419556
1733767645830272000,10.35527197265625,0.937833845615387,-2.571251392364502,1.5691263675689697
1733767645840232000,10.36523193359375,0.6501163244247437,-2.538715124130249,1.3415080308914185
1733767645850192000,10.37519189453125,0.40979158878326416,-2.45013689994812,1.1780530214309692
1733767645860151800,10.38515185546875,0.26618123054504395,-2.395998477935791,1.0939860343933105
1733767645870112000,10.395112060546875,0.15102827548980713,-2.341881275177002,1.0055032968521118
1733767645880073000,10.405072998046874,0.06533820182085037,-2.217933177947998,0.888213038444519
1733767645890033000,10.415032958984375,-0.0020946378353983164,-2.0555217266082764,0.7215292453765869
1733767645899992800,10.424992919921875,-0.08732309937477112,-1.941322922706604,0.47463396191596985
1733767645909952800,10.434952880859376,-0.191431924700737,-1.8573323488235474,0.1688055843114853
1733767645919912700,10.44491259765625,-0.2563624978065491,-1.6974492073059082,-0.13647091388702393
1733767645929874000,10.4548740234375,-0.21050924062728882,-1.3645318746566772,-0.41177067160606384
1733767645939833900,10.464833740234376,-0.07078593969345093,-0.9326130151748657,-0.6471843123435974
1733767645949793800,10.474793701171874,0.11480975896120071,-0.6612776517868042,-0.8315999507904053
1733767645959753700,10.484753662109375,0.3702670931816101,-0.6807128190994263,-0.8204671144485474
1733767645969714000,10.4947138671875,0.6144397854804993,-0.8240108489990234,-0.6095964312553406
1733767645979675000,10.5046748046875,0.7271245121955872,-0.8889527320861816,-0.30004066228866577
1733767645989634800,10.514634765625,0.752982497215271,-0.9894857406616211,0.06695224344730377
1733767645999595000,10.524594970703125,0.7695233821868896,-0.9690835475921631,0.6222923994064331
1733767646009555000,10.534554931640624,1.0508633852005005,-0.1932429075241089,1.8301485776901245
1733767646019515000,10.544514892578125,0.7869720458984375,-1.6407281160354614,0.8609832525253296
1733767646029475000,10.55447509765625,-0.0030104988254606724,-2.8589441776275635,-0.8248464465141296
1733767646039435800,10.564435791015624,-0.9863754510879517,-2.227926254272461,-1.3933677673339844
1733767646049395700,10.574395751953125,-1.6985931396484375,-0.5999292731285095,-0.7382937669754028
1733767646059356000,10.58435595703125,-1.44986891746521,1.322694182395935,1.1942050457000732
1733767646069315800,10.59431591796875,-0.5272021293640137,1.6413321495056152,2.4850192070007324
1733767646079275800,10.60427587890625,0.2057320922613144,0.9619173407554626,2.5369772911071777
1733767646089237000,10.614237060546875,0.6776809692382812,0.600259006023407,1.8552390336990356
1733767646099197000,10.624197021484376,1.274947166442871,-0.15775252878665924,-0.317617267370224
1733767646109156900,10.634156982421874,1.5158567428588867,-0.43728509545326233,-2.625434637069702
1733767646119116800,10.64411669921875,0.755171537399292,0.6295241117477417,-3.3108339309692383
1733767646129077000,10.654076904296875,-0.19737723469734192,2.155200958251953,-2.726198673248291
1733767646139038000,10.664037841796874,-0.9667521119117737,2.9223110675811768,-1.9289522171020508
1733767646148998000,10.673997802734375,-1.4022012948989868,2.5437755584716797,-1.5526692867279053
1733767646158958000,10.6839580078125,-1.5060325860977173,1.5184426307678223,-1.6695044040679932
1733767646168918000,10.69391796875,-1.5129762887954712,0.5558405518531799,-2.011887550354004
1733767646178878000,10.7038779296875,-1.4877749681472778,-0.06098471209406853,-2.239637851715088
1733767646188838000,10.713837890625,-1.413852572441101,-0.3705718517303467,-2.192432403564453
1733767646198798800,10.723798828125,-1.3908601999282837,-0.6223558783531189,-1.9372313022613525
1733767646208758800,10.7337587890625,-1.4989120960235596,-0.8229898810386658,-1.6344728469848633
1733767646218718700,10.74371875,-1.7316389083862305,-1.1386849880218506,-1.4349000453948975
1733767646228679000,10.753678955078126,-2.098930597305298,-1.609614372253418,-1.4749928712844849
1733767646238638800,10.763638916015625,-1.9389718770980835,-2.0536205768585205,-1.672422170639038
1733767646248599800,10.773599853515625,-1.3589893579483032,-2.3730151653289795,-1.9161030054092407
1733767646258560000,10.78356005859375,-0.8992573022842407,-2.7038352489471436,-2.121455430984497
1733767646268520000,10.79352001953125,-0.6673210263252258,-2.921344518661499,-2.331562042236328
1733767646278480000,10.80347998046875,-0.6117182970046997,-2.7242605686187744,-2.5489425659179688
1733767646288439800,10.813439697265625,-0.456089049577713,-2.2660884857177734,-2.6661274433135986
1733767646298400800,10.82340087890625,-0.12972328066825867,-1.8292336463928223,-2.5694501399993896
1733767646308360700,10.833360595703125,0.2007180154323578,-1.5428439378738403,-2.2858126163482666
1733767646318320600,10.843320556640625,0.5124039649963379,-1.4403250217437744,-1.9005097150802612
1733767646328280800,10.85328076171875,0.7609312534332275,-1.3762792348861694,-1.5014355182647705
1733767646338240800,10.86324072265625,0.8453373908996582,-1.2626795768737793,-1.109562635421753
1733767646348201700,10.87320166015625,0.902420163154602,-1.0165963172912598,-0.7425426840782166
1733767646358162000,10.883161865234374,0.9679272770881653,-0.6240257620811462,-0.39848974347114563
1733767646368121900,10.893121826171875,1.0495928525924683,-0.2953280806541443,-0.1409500688314438
1733767646378081800,10.903081787109375,1.0779612064361572,-0.011555632576346397,0.0437191016972065
1733767646388042000,10.9130419921875,0.9798169732093811,0.4951064884662628,0.19293735921382904
1733767646398002000,10.923001953125,0.9745752811431885,1.2190186977386475,0.36359891295433044
1733767646407963000,10.932962890625,0.9233182072639465,1.9496123790740967,0.44294700026512146
1733767646417923000,10.942923095703126,0.6928877234458923,2.5205953121185303,0.2823428213596344
1733767646427883000,10.952883056640625,0.4546796977519989,2.8552896976470947,-0.17588788270950317
1733767646437843000,10.962843017578125,0.2931617498397827,2.9219934940338135,-0.7335662841796875
1733767646447803000,10.972802978515626,0.2465023696422577,2.7685678005218506,-1.2153936624526978
1733767646457763800,10.982763916015625,0.20393477380275726,2.419649362564087,-1.4771806001663208
1733767646467723800,10.992723876953125,0.0228187907487154,2.0617783069610596,-1.5020707845687866
1733767646477683700,11.00268359375,-0.23921382427215576,1.5745570659637451,-1.3293061256408691
1733767646487644000,11.012643798828124,-0.3618907332420349,0.9132501482963562,-1.0667352676391602
1733767646497603800,11.022603759765625,-0.38658952713012695,0.019850896671414375,-0.8975105881690979
1733767646507564800,11.032564697265625,-0.43537411093711853,-0.9234146475791931,-0.8495122194290161
1733767646517525000,11.04252490234375,-0.5560895800590515,-1.6555488109588623,-0.8129507303237915
1733767646527485000,11.05248486328125,-0.7026944756507874,-2.0761451721191406,-0.7598555684089661
1733767646537444900,11.06244482421875,-0.8175008893013,-2.274428367614746,-0.7294235229492188
1733767646547404800,11.07240478515625,-0.817277193069458,-2.222419023513794,-0.7454515099525452
1733767646557366000,11.082365966796875,-0.6318492889404297,-1.8907291889190674,-0.8524503111839294
1733767646567326000,11.092325927734375,-0.29994645714759827,-1.196807622909546,-1.0747883319854736
1733767646577286000,11.102285888671876,0.003301754128187895,-0.30503028631210327,-1.368878960609436
1733767646587245800,11.112245849609375,0.14256669580936432,0.5882030129432678,-1.578325629234314
1733767646597205800,11.122205810546875,0.12024017423391342,1.287353515625,-1.5318280458450317
1733767646607165700,11.132165771484376,-0.01216286700218916,1.6242748498916626,-1.3351138830184937
1733767646617127000,11.142126953125,-0.1417003870010376,1.44795823097229,-1.1145678758621216
1733767646627086800,11.1520869140625,-0.27789416909217834,1.0254727602005005,-0.8992856740951538
1733767646637046800,11.162046875,0.07392887026071548,1.7847429513931274,1.576277732849121
1733767646647006700,11.1720068359375,0.512012779712677,1.008907437324524,3.9898018836975098
1733767646656967000,11.181966796875,0.9700718522071838,-0.33935999870300293,4.311434268951416
1733767646666927900,11.191927978515626,1.5524630546569824,-0.9085683226585388,4.314697742462158
1733767646676887800,11.2018876953125,1.850984811782837,-0.8708285689353943,4.523170471191406
1733767646686848000,11.211847900390625,1.8273897171020508,-0.5393075942993164,4.911469459533691
1733767646696808000,11.221807861328125,1.5088175535202026,-0.18325921893119812,5.269808769226074
1733767646706768000,11.231767822265626,1.0417917966842651,0.24457785487174988,5.3784003257751465
1733767646716728800,11.241728759765625,0.6050904393196106,0.5728040933609009,5.130787372589111
1733767646726688800,11.251688720703125,0.4043421745300293,1.0389562845230103,4.677793979644775
1733767646736648700,11.261648681640626,0.34911248087882996,1.5020042657852173,3.808715581893921
1733767646746609000,11.27160888671875,0.4285489618778229,1.6833593845367432,2.6668550968170166
1733767646756568800,11.28156884765625,0.8319318294525146,0.9541875720024109,1.5981712341308594
1733767646766529800,11.29152978515625,1.0680652856826782,-0.3986763656139374,0.9015148878097534
1733767646776490000,11.301489990234375,1.11960768699646,-1.325486183166504,0.7596927285194397
1733767646786450000,11.311449951171875,1.0600314140319824,-1.6955307722091675,0.9164370894432068
1733767646796409900,11.321409912109376,0.9575784802436829,-1.6007637977600098,1.1017509698867798
1733767646806369800,11.331369873046874,0.7804665565490723,-1.4073090553283691,1.2026642560958862
1733767646816331800,11.341331787109375,0.6033940315246582,-0.9816180467605591,1.2258425951004028
1733767646826292000,11.3512919921875,0.5077897310256958,-0.6928073167800903,1.1386171579360962
1733767646836252000,11.361251953125,0.5328386425971985,-0.7860678434371948,0.9775511622428894
1733767646846211800,11.3712119140625,0.6422770023345947,-1.0423978567123413,0.7637885808944702
1733767646856172000,11.381172119140626,0.7801647782325745,-1.4338279962539673,0.36620059609413147
1733767646866132000,11.391132080078124,0.9104282259941101,-1.5509425401687622,-0.0899277776479721
1733767646876093000,11.401093017578125,1.026895523071289,-1.2148232460021973,-0.31450703740119934
1733767646886053000,11.41105322265625,1.1114814281463623,-0.7194200754165649,-0.3346687853336334
1733767646896013000,11.421012939453124,1.1349021196365356,-0.16889317333698273,-0.21795079112052917
1733767646905973000,11.430972900390625,1.1196682453155518,0.18422679603099823,-0.13197064399719238
1733767646915933000,11.440932861328125,1.0516068935394287,0.17275288701057434,-0.05197671800851822
1733767646925894100,11.45089404296875,0.8918718695640564,-0.06696011126041412,0.013697633519768715
1733767646935854000,11.46085400390625,0.747154951095581,-0.4033629298210144,0.06853710860013962
1733767646945814000,11.47081396484375,0.6147862672805786,-0.650486946105957,0.09810565412044525
1733767646955774000,11.48077392578125,0.4632321894168854,-0.8240711688995361,0.045260749757289886
1733767646965734000,11.49073388671875,0.2721346616744995,-0.8332254886627197,-0.07733947038650513
1733767646975694800,11.50069482421875,0.07101889699697495,-0.718847393989563,-0.2677254378795624
1733767646985655000,11.510655029296874,-0.11073971539735794,-0.5607243180274963,-0.47331321239471436
1733767646995615000,11.520614990234375,-0.2507350444793701,-0.47395598888397217,-0.6507846713066101
1733767647005575000,11.530574951171875,-0.3306727707386017,-0.5044193267822266,-0.757351279258728
1733767647015534800,11.540534912109376,-0.39046627283096313,-0.6948590874671936,-0.799453616142273
1733767647025496000,11.55049609375,-0.4397997260093689,-0.8671698570251465,-0.682900071144104
1733767647035456000,11.5604560546875,-0.3734460175037384,-0.8402338624000549,-0.15840941667556763
1733767647045416000,11.570416015625,-0.20831428468227386,-0.7958621382713318,0.5003799200057983
1733767647055376100,11.580376220703124,0.061384085565805435,-0.9799087047576904,0.8150174021720886
1733767647065336000,11.590336181640625,0.20589971542358398,-1.3781362771987915,0.5797590613365173
1733767647075296800,11.600296875,0.22651755809783936,-1.3939740657806396,0.20492435991764069
1733767647085257000,11.610257080078124,0.2575188875198364,-1.1315934658050537,-0.07406972348690033
1733767647095217000,11.620216796875,0.3750125467777252,-0.7722730040550232,-0.1808796375989914
1733767647105176800,11.6301767578125,0.4509853422641754,-0.6214696764945984,-0.040706027299165726
1733767647115136800,11.64013671875,0.4652077853679657,-0.7527278065681458,0.219987154006958
1733767647125097000,11.650096923828125,0.4188935458660126,-1.069230318069458,0.3951435387134552
1733767647135058000,11.660057861328125,0.36110585927963257,-1.435663104057312,0.3487316370010376
1733767647145017900,11.670017822265624,0.3015466332435608,-1.7736352682113647,0.18053489923477173
1733767647154978000,11.67997802734375,0.11641322076320648,-2.0464367866516113,0.06770487129688263
1733767647164938000,11.68993798828125,-0.14228545129299164,-1.6896859407424927,0.2730894386768341
1733767647174898000,11.69989794921875,-0.23115631937980652,-0.0668642669916153,1.1161739826202393
1733767647184859100,11.709859130859375,-0.7246038317680359,0.8362994194030762,0.7800801992416382
1733767647194819000,11.719819091796875,-1.3296531438827515,1.6635733842849731,-0.23665475845336914
1733767647204779000,11.729779052734376,-1.3438483476638794,2.7699615955352783,-0.9233910441398621
1733767647214739200,11.7397392578125,-0.7321630716323853,3.720503807067871,-0.6014404892921448
1733767647224699100,11.74969921875,0.023693164810538292,4.054684638977051,0.1043834462761879
1733767647234659800,11.759659912109376,0.39068418741226196,3.760704517364502,0.33835873007774353
1733767647244620000,11.7696201171875,0.2973715364933014,3.029935598373413,0.025614682585000992
1733767647254580000,11.779580078125,-0.20766256749629974,2.2641921043395996,-0.39478427171707153
1733767647264540000,11.789539794921875,-0.7675250768661499,1.4126160144805908,-0.6417564749717712
1733767647274499800,11.799499755859374,-1.0980814695358276,0.8315125703811646,-0.6422589421272278
1733767647284461000,11.8094609375,-1.3309988975524902,0.3559119999408722,-0.5929843187332153
1733767647294421000,11.8194208984375,-1.5236804485321045,-0.21653148531913757,-0.6147404313087463
1733767647304381000,11.829380859375,-1.638271689414978,-0.7939652800559998,-0.6574881672859192
1733767647314341000,11.839341064453125,-1.7383474111557007,-1.34442937374115,-0.7463198900222778
1733767647324301000,11.849301025390625,-1.7421495914459229,-1.91349196434021,-0.8850335478782654
1733767647334262000,11.859261962890624,-1.6757700443267822,-2.295480966567993,-1.0433907508850098
1733767647344222000,11.869221923828125,-1.6083593368530273,-2.5464251041412354,-1.2275975942611694
1733767647354182000,11.879181884765625,-1.506951928138733,-2.488325357437134,-1.437889575958252
1733767647364141800,11.889141845703126,-1.389276146888733,-2.077305316925049,-1.673169732093811
1733767647374101800,11.899101806640624,-1.1711702346801758,-1.5478250980377197,-1.910441517829895
1733767647384063000,11.90906298828125,-1.043317198753357,-0.8072263598442078,-2.3769237995147705
1733767647394023000,11.91902294921875,-0.8674150705337524,0.25392839312553406,-2.9318177700042725
1733767647403982800,11.92898291015625,-0.6145548820495605,1.261878490447998,-3.1278629302978516
1733767647413943000,11.938943115234375,-0.5117300152778625,1.994596004486084,-2.993379592895508
1733767647423903000,11.948903076171876,-0.3678617775440216,2.4752910137176514,-2.754850149154663
1733767647433864000,11.958864013671874,-0.12641111016273499,2.6754720211029053,-2.5529868602752686
1733767647443824000,11.96882421875,0.10666687786579132,2.6486146450042725,-2.3508141040802
1733767647453784000,11.9787841796875,0.2785862684249878,2.358724355697632,-2.16701602935791
1733767647463744000,11.988743896484374,0.49277231097221375,1.814276933670044,-2.038809299468994
1733767647473704200,11.9987041015625,0.6710652112960815,1.2079297304153442,-1.9593933820724487
1733767647483665000,12.008664794921875,0.74940425157547,0.7144259810447693,-1.8544765710830688
1733767647493624800,12.018624755859374,0.7204663157463074,0.4146757125854492,-1.7143895626068115
1733767647503584800,12.028584716796875,0.5643209218978882,0.1759214699268341,-1.471006155014038
1733767647513545000,12.038544921875,0.42856112122535706,0.002119273878633976,-1.1674919128417969
1733767647523505000,12.0485048828125,0.47469770908355713,-0.18574543297290802,-0.9335799813270569
1733767647533465900,12.0584658203125,0.5933257341384888,-0.3626260459423065,-0.7683938145637512
1733767647543426000,12.068426025390625,0.6221776008605957,-0.4119001030921936,-0.5978204607963562
1733767647553386000,12.078385986328126,0.5752553939819336,-0.17925338447093964,-0.3766486644744873
1733767647563346000,12.088345947265625,0.5066683292388916,0.16332153975963593,-0.13844330608844757
1733767647573306000,12.09830615234375,0.46859249472618103,0.5763342976570129,0.10757330805063248
1733767647583267000,12.10826708984375,0.3907400369644165,1.116604208946228,0.3162814974784851
1733767647593227000,12.11822705078125,0.3610231280326843,1.4765551090240479,0.33879247307777405
1733767647603187200,12.128187255859375,0.41349565982818604,1.8770992755889893,0.2414100021123886
1733767647613147100,12.138147216796876,0.3682943284511566,2.0695102214813232,-0.015289656817913055
1733767647623107000,12.148107177734374,0.22332677245140076,1.851255178451538,-0.47912389039993286
1733767647633068000,12.158068115234375,0.0722372904419899,1.419007658958435,-1.0151304006576538
1733767647643028000,12.168028076171876,-0.0457007959485054,1.0815315246582031,-1.3902342319488525
1733767647652988000,12.17798779296875,-0.18848992884159088,0.9773969650268555,-1.431929349899292
1733767647662947800,12.18794775390625,-0.456015408039093,1.0616873502731323,-1.3195987939834595
1733767647672908000,12.197907958984375,-0.7541901469230652,0.9040835499763489,-1.3040083646774292
1733767647682868000,12.207867919921876,-0.9134165048599243,0.5510327816009521,-1.3364198207855225
1733767647692829000,12.217828857421875,-0.8717617392539978,0.2254452407360077,-1.3038264513015747
1733767647702789000,12.2277890625,-0.696465015411377,0.008525179699063301,-1.174630880355835
1733767647712749000,12.2377490234375,-0.5150520205497742,-0.15390050411224365,-1.0080090761184692
1733767647722709000,12.247708984375,-0.42164087295532227,-0.3840023875236511,-0.9108878970146179
1733767647732670000,12.257669921875,-0.421852171421051,-0.588318407535553,-0.9051668643951416
1733767647742630000,12.2676298828125,-0.4562295973300934,-0.6444833874702454,-0.9361562132835388
1733767647752589800,12.27758984375,-0.38093847036361694,-0.6064532399177551,-0.9154881834983826
1733767647762549800,12.2875498046875,-0.21069936454296112,-0.6107222437858582,-0.8174785375595093
1733767647772510000,12.297510009765626,-0.012111468240618706,-0.6423958539962769,-0.39044031500816345
1733767647782470000,12.307469970703124,0.19646278023719788,-0.15919511020183563,2.208054542541504
1733767647792430800,12.317430908203125,0.29526716470718384,-0.6108625531196594,3.8925623893737793
1733767647802391000,12.32739111328125,0.38958221673965454,-1.127705454826355,4.199396133422852
1733767647812350000,12.337349853515626,0.48330941796302795,-1.1474792957305908,4.164892196655273
1733767647822310000,12.347309814453125,0.4572964608669281,-0.8843400478363037,4.257171154022217
1733767647832269800,12.357269775390625,0.5058173537254333,-0.5250502824783325,4.617929458618164
1733767647842231000,12.36723095703125,0.5630183219909668,-0.37008416652679443,5.043341636657715
1733767647852191000,12.37719091796875,0.5261878371238708,-0.3214574456214905,5.320849895477295
1733767647862151000,12.38715087890625,0.5072942972183228,-0.6229248642921448,5.310915470123291
1733767647872111000,12.397111083984376,0.5754502415657043,-1.1770201921463013,4.89373254776001
1733767647882071000,12.407071044921874,0.598926842212677,-1.7237788438796997,4.109728813171387
1733767647892032000,12.417031982421875,0.47678142786026,-2.013737678527832,3.2433457374572754
1733767647901992200,12.4269921875,0.39125746488571167,-1.7979083061218262,2.50966477394104
1733767647911952100,12.4369521484375,0.47976288199424744,-1.7187740802764893,1.9697409868240356
1733767647921912000,12.446912109375,0.7221041321754456,-2.1045002937316895,1.7000200748443604
1733767647931872000,12.4568720703125,0.8906290531158447,-2.476001262664795,1.6367141008377075
1733767647941833000,12.4668330078125,0.9432610869407654,-2.7555243968963623,1.6015799045562744
1733767647951793000,12.47679296875,0.8909358382225037,-2.585505247116089,1.5145937204360962
