time,seconds_elapsed,z,y,x
1733513589062811600,0.023811767578125,-0.10555530092716216,-0.049497898140549654,0.1051579356400296
1733513589072887600,0.033887451171875,-0.12426993826925754,-0.023221885633468626,0.07489128259420394
1733513589082963700,0.043963623046875,-0.08048077316433191,-0.03470774076581001,0.044514739433117206
1733513589093038600,0.05403857421875,-0.05128156668692827,0.002557283267378807,0.0810370188076049
1733513589103114500,0.064114501953125,-0.07420797650516033,0.0501671757042408,0.09283369345478713
1733513589113189600,0.074189697265625,-0.07487550050318241,0.06996434758603573,0.10146057895943522
1733513589123265800,0.084265869140625,-0.023411855247616766,0.04933306296765804,0.1070489004857838
1733513589133341400,0.094341552734375,-0.03472410737872123,-0.003407762616872787,0.10146174800321459
1733513589143416600,0.10441650390625,-0.06186550454348325,-0.023831541964411736,0.09834233734104782
1733513589153492700,0.11449267578125,-0.06880348711311816,-0.020562895557284355,0.06354574924800545
1733513589163568600,0.124568603515625,-0.05111468568742275,-0.03495908517837524,-0.005784940076991915
1733513589173643500,0.1346435546875,-0.025032149925827977,-0.030060207220911978,-0.04998235718924552
1733513589183719700,0.1447197265625,0.015748773273825643,-0.0007125321835279464,-0.043172640641778705
1733513589193795600,0.154795654296875,0.06806991214156151,0.05796995840966701,0.012341595178842544
1733513589203870500,0.164870361328125,0.0904977247878909,0.06195932030677795,0.058429319549724454
1733513589213946600,0.174946533203125,0.10590221466869115,-0.004412555745244026,0.08252557686492801
1733513589224022500,0.1850224609375,0.08247633089572191,-0.05558335553407669,0.07713277791067957
1733513589234097700,0.19509765625,0.04693067800104618,-0.059304421883821484,0.03539667287804186
1733513589244173800,0.205173828125,0.022059856116771696,-0.05780863036811351,-0.04032185432054102
1733513589254249500,0.21524951171875,0.002449438978731632,-0.034378070420026774,-0.08557173962779342
1733513589264324600,0.22532470703125,0.016949381235241888,-0.008071078252792357,-0.10091814264580606
1733513589274400300,0.235400146484375,0.09020867871344089,-0.016827216160297392,-0.10141809152457862
1733513589284476200,0.24547607421875,0.10690057805627584,-0.052958852249383924,-0.08947587092686445
1733513589294551000,0.255551025390625,0.04487608355879783,-0.044127895539999004,-0.0720873310893774
1733513589304627200,0.265627197265625,-0.0038607670813798904,-0.01578501363098621,-0.03717413087934256
1733513589314703000,0.275703125,-0.016435294233262537,0.02217033075392246,0.013433518601395189
1733513589324778200,0.2857783203125,-0.050582770767807955,0.03477496078312397,0.06449377068784087
1733513589334854100,0.295854248046875,-0.09826982009410858,0.021450784307718275,0.12643931819759308
1733513589344930000,0.305929931640625,-0.157518420137465,0.026455460727214813,0.17515950996391474
1733513589355005200,0.316005126953125,-0.19101240119934082,0.016794482934474945,0.12796280143782496
1733513589365081300,0.326081298828125,-0.18908610931187866,-0.01239361762702465,0.02737579044252634
1733513589375157000,0.336156982421875,-0.16021423509269953,-0.02185761154294014,-0.0479441293599084
1733513589385232100,0.346232177734375,-0.1600689814031124,-0.040948096460103986,-0.07679832179192453
1733513589395308300,0.356308349609375,-0.18281214360892772,-0.03367605963051319,-0.03417805433589965
1733513589405384200,0.36638427734375,-0.22987404677420853,-0.0233101484388113,0.028691403085738417
1733513589415459000,0.376458984375,-0.2929991959899664,-0.039978374645113945,0.0020927710281684994
1733513589425535200,0.38653515625,-0.298740369990468,-0.03145078479647636,-0.08895433127079158
1733513589435611100,0.396611083984375,-0.2846250431373715,-0.036143326526880265,-0.16677479918468743
1733513589445686300,0.406686279296875,-0.22686112869381903,-0.045453006663918494,-0.23488683343492447
1733513589455762200,0.41676220703125,-0.15144699126929043,-0.05081891761124134,-0.23500808519441632
1733513589465838000,0.426838134765625,-0.11395488048195838,-0.05140694663226604,-0.17934662292283027
1733513589475913200,0.436913330078125,-0.15085194798558949,-0.04803834698200225,-0.096235939646326
1733513589485989400,0.4469892578125,-0.17452566903978586,-0.054037879657745355,-0.04236293169409036
1733513589496065000,0.45706494140625,-0.19487930576056242,-0.0502367338091135,0.0036201997911557552
1733513589506140200,0.46714013671875,-0.22467326326072215,-0.05057341841757297,-0.0015190262608230113
1733513589516216300,0.47721630859375,-0.25605332090854643,-0.029872575694322584,-0.06535922841075807
1733513589526292200,0.487292236328125,-0.25196780516058204,-0.016124620848894117,-0.11043225931376219
1733513589536367000,0.4973671875,-0.17879238657355306,-0.012468436428904533,-0.08098525208774954
1733513589546443300,0.507443359375,-0.13000029861479998,-0.018911621218919754,-0.025484423737972974
1733513589556519200,0.517519287109375,-0.11562398273795843,-0.047345688542723655,-0.006381554263271391
1733513589566594000,0.527593994140625,-0.12121727270036935,-0.0595084200233221,-0.02483556790780276
1733513589576670200,0.537670166015625,-0.11446546035259961,-0.06721534113883972,-0.03609747809115797
1733513589586746000,0.54774609375,-0.12879326091259719,-0.07117489241957664,-0.04961136845238506
1733513589596821200,0.5578212890625,-0.18033932375460862,-0.034551673421263696,-0.05702237536124885
1733513589606897200,0.567897216796875,-0.17445114249885083,0.0006453121662139892,-0.053910819211974735
1733513589616973000,0.57797314453125,-0.17649229293763635,0.04544657692313194,-0.02086706613563001
1733513589627048200,0.588048095703125,-0.19948153885900974,0.05279050994515419,0.01427523012254387
1733513589637124400,0.598124267578125,-0.18963994380235671,0.04293605540692806,0.05933496315255761
1733513589647200300,0.6082001953125,-0.18870675460547207,0.03815700443685054,0.1227210283268243
1733513589657275100,0.618275146484375,-0.19083470654487608,0.03481237018406391,0.15328710271064191
1733513589667351300,0.628351318359375,-0.18943711470663546,0.026387656188011168,0.1422486260196194
1733513589677427200,0.63842724609375,-0.15556670154780147,0.008346972584724426,0.11682177768778056
1733513589687502000,0.648502197265625,-0.10950842246711254,-0.013320669344067573,0.10483527955692261
1733513589697578200,0.658578125,-0.08867197066545486,-0.04397884245812893,0.10351546566262841
1733513589707654100,0.668654052734375,-0.09523264435529709,-0.06657002897262573,0.12446845651604234
1733513589717729300,0.678729248046875,-0.12371142760366201,-0.07319500007033347,0.13797273879870772
1733513589727805200,0.68880517578125,-0.16482874315083026,-0.03369944050610065,0.14781148431114852
1733513589737881000,0.698881103515625,-0.2039098766952753,0.029694296517968177,0.12388499407228082
1733513589747956200,0.708956298828125,-0.24005232643932103,0.07950959004461765,0.10927183723226189
1733513589758032400,0.719032470703125,-0.2304302193522453,0.09523147531151771,0.07605882853623479
1733513589768108000,0.72910791015625,-0.15285539676249027,0.07217267128527163,0.045398755726031956
1733513589778183200,0.73918310546875,-0.04859013564586639,0.04716857841014862,0.03136917092762887
1733513589788259300,0.74925927734375,0.06803337952345609,-0.004651625198125839,0.022696400454640386
1733513589798335200,0.759335205078125,0.15529109947681427,-0.08144494202136993,0.012317008726857603
1733513589808410000,0.76941015625,0.17395517567545174,-0.14210603921115397,0.011156440514884888
1733513589818486300,0.779486328125,0.14411445642411708,-0.15101181472241879,0.03056274991557002
1733513589828562200,0.789562255859375,0.09139408910572529,-0.11777239294350146,0.04885368195287883
1733513589838637000,0.799636962890625,0.054602235542237754,-0.07913374246954917,0.0357668944299221
1733513589848713200,0.809713134765625,0.015842881298065183,-0.01294131463766098,0.04417619166113436
1733513589858789000,0.8197890625,-0.041180736172199243,0.03295183700919151,0.05286594980154186
1733513589868864300,0.8298642578125,-0.08194821536839007,0.05125321737527847,0.08823778049927204
1733513589878940400,0.8399404296875,-0.06557254236787557,0.0544587354183197,0.12221461317464709
1733513589889016000,0.85001611328125,0.02097001505345106,0.038755554851889605,0.1548781712943688
1733513589899091200,0.86009130859375,0.0635974429026246,0.03146072166860103,0.1659408691111952
1733513589909167400,0.87016748046875,0.03780453773736953,0.026515081959962845,0.1499263941058889
1733513589919243300,0.8802431640625,0.013316285429894924,0.0023111995518207548,0.14087408626340328
1733513589929318100,0.890318115234375,0.012096095985174178,-0.008326514318585396,0.14734463398437947
1733513589939394300,0.900394287109375,-0.02998509615808725,-0.0033656770408153533,0.1402556621041149
1733513589949470200,0.91047021484375,-0.09828063374906777,0.004589665877819061,0.11994754502549766
1733513589959545000,0.920545166015625,-0.13440087166130543,0.030218612653017042,0.08721797246485948
1733513589969621200,0.930621337890625,-0.09807137491255997,0.02615443195402622,0.04914630822390317
1733513589979696400,0.9406962890625,-0.048802024830877776,0.015198738175630569,0.036172150762565435
1733513589989772300,0.950772216796875,-0.05289981553852558,-0.008240589600801467,0.0018709084384143351
1733513589999848200,0.96084814453125,-0.029792496195435524,-0.012254501417279243,0.003766805187612772
1733513590009924000,0.970924072265625,0.02366144609451294,-0.03359305752217769,0.03303155118189752
1733513590019999200,0.980999267578125,0.07666092261523008,-0.045263621571660036,0.04646576390303671
1733513590030075400,0.991075439453125,0.04933744688183069,-0.037214170628786084,0.019077552370354533
1733513590040151000,1.001151123046875,-0.05591068779230118,-0.027284897288680075,-0.052635830840095876
1733513590050226200,1.01122607421875,-0.10893676005899905,0.0016565350353717804,-0.13374613407962024
1733513590060302300,1.02130224609375,-0.0807426389709115,0.026840076130628585,-0.1735524400934577
1733513590070377500,1.03137744140625,-0.07233750645816325,0.013896423405408859,-0.16898717800453306
1733513590080453000,1.041453125,-0.1865440236136317,0.018711130210757255,-0.0918484818097204
1733513590090529300,1.051529296875,-0.23596681069135664,0.021978023052215575,0.035012349735572934
1733513590100604400,1.0616044921875,-0.11961392915695905,-0.02513327221274376,0.17606486130580304
1733513590110680300,1.071680419921875,-0.03230126414597034,-0.10137304680645465,0.306083864621073
1733513590120756200,1.081756103515625,-0.04681552718877792,-0.1581423972547054,0.35738377068229016
1733513590130831400,1.091831298828125,-0.08604892868548632,-0.1841939533561468,0.36613589000180363
1733513590140907300,1.1019072265625,-0.12619330754727123,-0.17804069142341614,0.3497176930338144
1733513590150983400,1.1119833984375,-0.16374503956735134,-0.1722825662881136,0.353907253678143
1733513590161058300,1.122058349609375,-0.24271043973267076,-0.18059680564701555,0.36201471841856836
1733513590171134200,1.13213427734375,-0.39753246039301154,-0.1772106703400612,0.2974995761491358
1733513590181210400,1.14221044921875,-0.5695291954770684,-0.12002455578446387,0.14659034501835702
1733513590191285200,1.15228515625,-0.6947080652847886,-0.009749240598082541,-0.02365004791766405
1733513590201361200,1.162361083984375,-0.7308908470392227,0.04700491228103638,-0.1734221647772938
1733513590211437300,1.172437255859375,-0.7558782810404896,0.08540098617076873,-0.25189495912007986
1733513590221512200,1.18251220703125,-0.7218193595722318,0.08740998790562152,-0.25992797038480636
1733513590231588000,1.192588134765625,-0.6001157646596431,0.016730770048499106,-0.23314817307405172
1733513590241664300,1.202664306640625,-0.5130991599857807,-0.046076106998324394,-0.19234642628207801
1733513590251739100,1.2127392578125,-0.49659226182103156,-0.07142039161324501,-0.16186777445338665
1733513590261815300,1.222815185546875,-0.4667597258761525,-0.09257073166966438,-0.16709698034375906
1733513590271891700,1.2328916015625,-0.5188768666043877,-0.1276134034782648,-0.15405900039859116
1733513590281966600,1.242966552734375,-0.6376520068496465,-0.1254687926650047,-0.10405826730243861
1733513590292042800,1.253042724609375,-0.6046271046042442,-0.0999029742538929,-0.031609044098109
1733513590302118700,1.26311865234375,-0.48453123714923857,-0.08607084825634956,0.03197700062766671
1733513590312193800,1.27319384765625,-0.33572248542904853,-0.06562368803322315,0.08019399211220443
1733513590322269700,1.283269775390625,-0.05202127913832664,-0.14251754262149333,0.09567753857858478
1733513590332345600,1.293345703125,0.1905985597014427,-0.2749374695986509,0.11618797329626977
1733513590342420700,1.303420654296875,0.20675299116671084,-0.3407195630639791,0.13776947131156922
1733513590352497000,1.313496826171875,0.14325024081021545,-0.3488526006370783,0.1331113433074206
1733513590362572500,1.323572509765625,0.08365385024249553,-0.2635872235447168,0.14995236879736185
1733513590372647700,1.333647705078125,0.027395079664885996,-0.12372399482429026,0.1973858086887747
1733513590382723800,1.343723876953125,-0.05278408020436764,-0.006621463966369629,0.301875453145802
1733513590392799700,1.3537998046875,-0.0912260390624404,0.054366380959749216,0.4353288878891617
1733513590402874600,1.36387451171875,-0.09648089085072278,0.03164309249818325,0.5425353900894523
1733513590412950800,1.37395068359375,-0.17201427074074743,-0.04103109856843948,0.6092674046907574
1733513590423026700,1.384026611328125,-0.3311939020887017,-0.1266121174812317,0.6108848498247563
1733513590433101600,1.3941015625,-0.5276382652088999,-0.23300328471064566,0.5345107082616537
1733513590443177700,1.404177734375,-0.47356736006438727,-0.3516419390946626,0.410340504039824
1733513590453253600,1.414253662109375,-0.2094146115913987,-0.37750411010384555,0.2696478387579322
1733513590463328800,1.424328857421875,-0.009957038129866123,-0.3444780388146639,0.159377784268558
1733513590473405000,1.434405029296875,0.059493806976079935,-0.2790507501363754,0.08024996008314192
1733513590483480600,1.44448046875,0.17575988700985906,-0.25893209121525285,0.0707371585894376
1733513590493555700,1.4545556640625,0.3400768812462687,-0.3176327019870281,0.18086897365190088
1733513590503632000,1.4646318359375,0.43839901604950426,-0.39256665467917917,0.3886284384474158
1733513590513707800,1.474707763671875,0.4397710350550711,-0.4371861331284046,0.545366448796913
1733513590523782700,1.48478271484375,0.35236163167133927,-0.42718028742074965,0.6233076204810292
1733513590533858800,1.49485888671875,0.18090791742280124,-0.3944686889082193,0.6347318085540086
1733513590543934700,1.504934814453125,-0.017357377514243124,-0.33790392112135886,0.5897180700901895
1733513590554009600,1.515009521484375,-0.1522474939972162,-0.2015478237390518,0.5625453279390931
1733513590564085800,1.525085693359375,-0.19316943310275672,-0.05888648873269558,0.5265433826442808
1733513590574161700,1.53516162109375,-0.09649024320095777,-0.09144611155390739,0.46045054272934793
1733513590584236800,1.54523681640625,0.08219254551827906,-0.17284546086788177,0.48285533982627094
1733513590594312700,1.555312744140625,0.24684476305842398,-0.21657295891344547,0.5217845707446337
1733513590604387800,1.565387939453125,0.38272842062339185,-0.2798953842669725,0.5128349926242605
1733513590614463700,1.575463623046875,0.37991467837691306,-0.42144963481426234,0.4194266045540571
1733513590624540000,1.585539794921875,0.22527751276418564,-0.4971428814411163,0.3199104741932824
1733513590634614800,1.59561474609375,0.04209142127633095,-0.43875615892410275,0.2540955013716593
1733513590644690700,1.605690673828125,-0.08043715321831404,-0.1301361999541521,0.22374906108789144
1733513590654766800,1.615766845703125,-0.1298626437097788,0.15397884783446789,0.11594908650647848
1733513590664842000,1.625842041015625,-0.13306816175282002,0.3443149572074413,-0.06166296770870685
1733513590674917600,1.635917724609375,-0.1431605897653848,0.5544026457548141,-0.25272563779056073
1733513590684993800,1.645993896484375,-0.18758184222877025,0.7976502611041069,-0.3857525542175397
1733513590695069000,1.65606884765625,-0.2424778000205755,0.9180489108979701,-0.6175602359354495
1733513590705144800,1.666144775390625,-0.34311500683315094,0.8940905276834964,-0.8829477869004011
1733513590715220700,1.676220703125,-0.42915429090745744,0.7443985633879899,-1.0977781399302184
1733513590725295900,1.6862958984375,-0.49259179400801656,0.5372165331542491,-1.243889323129505
1733513590735371800,1.696371826171875,-0.5576730091949924,0.2827466820448637,-1.3045336153149605
1733513590745448000,1.706447998046875,-0.6161059454739093,0.02494447164237499,-1.305889998359978
1733513590755522800,1.716522705078125,-0.6679442692607641,-0.2218734034091234,-1.2682828828908503
1733513590765598700,1.7265986328125,-0.71944473939538,-0.3850269068241119,-1.1643732302788645
1733513590775675000,1.7366748046875,-0.6713537854433059,-0.4807517186105251,-1.0378590932793914
1733513590785749800,1.746749755859375,-0.5216226581811905,-0.4616764312624931,-0.9102448130182922
1733513590795825700,1.75682568359375,-0.4150473665565252,-0.40248423758149143,-0.6935750426668673
1733513590805901800,1.76690185546875,-0.25784193962467833,-0.3408995958060026,-0.5388314210049808
1733513590815977000,1.77697705078125,-0.14402734439624473,-0.22844985918998717,-0.5810760600816458
1733513590826052600,1.787052490234375,0.0117050325746648,-0.06250409470796585,-0.8299312861796468
1733513590836128800,1.797128662109375,0.20718962901830673,0.1465191794782877,-1.062576405102387
1733513590846204000,1.807203857421875,0.21416882038116453,0.33239363326728344,-1.0509105172280222
1733513590856279800,1.81727978515625,0.28493803634298964,0.6506102726221085,-1.1260201918132602
1733513590866355700,1.827355712890625,0.3314665815502405,1.1554746882259845,-1.16920013897866
1733513590876430800,1.837430908203125,0.22183131783306598,1.6182885990858078,-0.9627963996410369
1733513590886506800,1.8475068359375,0.11534311996996402,1.9001473923802374,-0.7830971273556351
1733513590896583000,1.8575830078125,-0.011453119623230304,1.8487246636569499,-0.7776199380535632
1733513590906657800,1.86765771484375,-0.27984336181879044,1.601713896381855,-0.8853570399992168
1733513590916733700,1.877733642578125,-0.8212450717031955,1.2266577639520169,-0.8670113090347498
1733513590926809900,1.887809814453125,-1.577882938939333,0.5909206508129835,-0.5677393894508481
1733513590936885000,1.897885009765625,-2.3291338524401186,-0.03095627927780151,-0.5591965655004605
1733513590946960600,1.907960693359375,-2.9147137267470358,-0.6696668552696704,-0.674425155712664
1733513590957036800,1.918036865234375,-3.2248727318525314,-1.268881287175417,-0.73875916926153
1733513590967112000,1.92811181640625,-3.2911773878872395,-1.55977912697196,-0.7288653325609863
1733513590977187800,1.938187744140625,-3.1295535782575605,-1.55058459764719,-0.7111559998039155
1733513590987263700,1.948263671875,-2.8063047899544236,-1.411514565131068,-0.7677531354904175
1733513590997339000,1.9583388671875,-2.4056243869245053,-1.2163193252891302,-0.851192831525579
1733513591007414800,1.968414794921875,-1.8957775067329405,-0.932747298336029,-0.8754430372934788
1733513591017491000,1.978490966796875,-1.3757517623543738,-0.5650947201609611,-0.77742755728662
1733513591027565800,1.98856591796875,-0.8520622347712516,-0.23400047905445098,-0.5909350811971351
1733513591037641700,1.998641845703125,-0.30792032280061393,0.06742401545345783,-0.4688637854833156
1733513591047716900,2.008716796875,0.221582841231022,0.24302608155310151,-0.474446846312657
1733513591057792800,2.018792724609375,0.6108405722916126,0.277981075078249,-0.5667720422560348
1733513591067868700,2.02886865234375,0.8355120819866657,0.2579366504371166,-0.5999724837314337
1733513591077943800,2.03894384765625,1.0676689790010452,0.1607049412190914,-0.5503098965484648
1733513591088020000,2.04902001953125,1.304730014669895,0.0038262802898883816,-0.5041030027773231
1733513591098095600,2.059095703125,1.4576128839612006,-0.11454583211243152,-0.48551009211875495
1733513591108170800,2.069170654296875,1.4924398671925068,-0.13925941760838031,-0.4947567900221795
1733513591118247000,2.079246826171875,1.3694856876969337,-0.0670031596928835,-0.4774708703089505
1733513591128322800,2.08932275390625,1.0875427232503891,0.032787001836299894,-0.4535203781399876
1733513591138397700,2.099397705078125,0.6684253307759761,0.11016834768056868,-0.44154418220743535
1733513591148473900,2.109473876953125,0.20531565183997152,0.15159282948076724,-0.3937685412822291
1733513591158549800,2.1195498046875,-0.18788645119853317,0.14018997645676134,-0.3462494324013591
1733513591168625000,2.129625,-0.47386721979379653,0.08356734100282191,-0.26209282026849684
1733513591178700800,2.13970068359375,-0.7017442475318908,-0.026417466804385184,-0.1512421894121915
1733513591188776700,2.149776611328125,-0.9281938728153705,-0.13206921384334563,-0.018060740010626613
1733513591198851800,2.159851806640625,-1.274949793434143,-0.20373452012836932,0.098904537801072
1733513591208927700,2.169927734375,-1.741758180757612,-0.22743045301437376,0.13868234837278723
1733513591219003600,2.180003662109375,-2.2456547742426394,-0.1496346811503172,0.07669800322260707
1733513591229078800,2.190078857421875,-2.6462732179522512,-0.050996027743816376,-0.12564572013448924
1733513591239154700,2.20015478515625,-2.8750106619119644,0.03987842140197754,-0.40723282034806907
1733513591249230800,2.21023095703125,-2.993976064032316,0.18947744671702385,-0.717252343917638
1733513591259305700,2.2203056640625,-3.035706250780821,0.3560878125876188,-1.0991755125727505
1733513591269380900,2.230380859375,-3.0484055733561513,0.5263374117434024,-1.530686888000369
1733513591279456800,2.240456787109375,-3.1027965042352674,0.7491226693004369,-2.042214853146672
1733513591289532000,2.250531982421875,-3.1736873190164565,1.0493442177593708,-2.630706815508008
1733513591299608000,2.260608154296875,-3.2771593839287756,1.382338739529252,-3.196385765297711
1733513591309683700,2.27068359375,-3.376843162474036,1.7031763750374316,-3.7827833857282993
1733513591319758800,2.2807587890625,-3.4529441131189462,1.903837479069829,-4.392949712020158
1733513591329835000,2.2908349609375,-3.4684196224093435,1.9209943655759094,-4.966272746822238
1733513591339911000,2.300910888671875,-3.407535822379589,1.8317665145933626,-5.417611323943734
1733513591349985800,2.31098583984375,-3.2472131584763524,1.5439941133409738,-5.613937029120326
1733513591360062000,2.32106201171875,-3.0784581817924974,1.142411208513379,-5.531681355237961
1733513591370137900,2.331137939453125,-2.923435962384939,0.7677303391367196,-5.290861259296536
1733513591380212700,2.341212646484375,-2.744602074757218,0.5494605131775141,-5.036452198463678
1733513591390289000,2.351288818359375,-2.6105694518864153,0.49853053640723227,-4.823608781467378
1733513591400364800,2.36136474609375,-2.444924131655693,0.6915601226478815,-4.587788978031277
1733513591410440000,2.37143994140625,-2.2463035935401914,1.2655740623235703,-4.296690354965627
1733513591420516000,2.38151611328125,-2.0926959171056745,2.0716157196760174,-3.81938351611197
1733513591430591700,2.391591796875,-1.9247522568047046,2.714476985606551,-3.1701077069640156
1733513591440667000,2.4016669921875,-1.7628271261408923,3.010893296563625,-2.397024170231074
1733513591450743000,2.411742919921875,-1.5919570569992065,3.0100737968742846,-1.5915131126239894
1733513591460818000,2.42181787109375,-1.5568609014376997,2.484991938149929,-0.9077987350404262
1733513591470893800,2.431893798828125,-1.7093477571487425,1.5567752689808607,-0.2106404635919258
1733513591480970000,2.441969970703125,-1.8840797624155878,0.7678817303061485,0.3950937620040029
1733513591491045000,2.452045166015625,-2.2932959386005995,0.37200609720945355,1.0653308183770627
1733513591501120800,2.462120849609375,-2.9222660418227315,0.213987034073472,1.928308195720613
1733513591511197000,2.472197021484375,-3.8052372095987197,0.12660510321855545,2.7010817897215484
1733513591521272000,2.48227197265625,-4.569005367106199,-0.040811318337917325,3.009843495249748
1733513591531348000,2.492347900390625,-4.581319197495281,-0.18349837230741978,2.3119455478824675
1733513591541423900,2.502423828125,-3.6502164514958855,0.0015074819535017012,0.8827674618974327
1733513591551499000,2.5124990234375,-2.438865123877674,0.48001288294196126,-0.573469603665918
1733513591561575000,2.522574951171875,-1.2306208223640918,1.144061898329854,-1.7994905310191214
1733513591571651000,2.532651123046875,-0.09294606778807937,1.9353928932845592,-2.8687191605523226
1733513591581726000,2.542725830078125,0.8353448356609791,2.4038889414340257,-3.691642686861753
1733513591591801900,2.5528017578125,1.6082418368458746,2.605449040132761,-4.15735816438198
1733513591601878000,2.5628779296875,2.362060555008054,2.8661364505827427,-4.48662519006133
1733513591611953000,2.572952880859375,3.2499767779707907,3.1832436673909426,-4.748306872245669
1733513591622028800,2.58302880859375,4.296653822347522,3.510125843760371,-4.964318690145015
1733513591632105000,2.59310498046875,5.328307485115528,3.874817818564176,-4.976960729575157
1733513591642179800,2.603179931640625,6.057655194365978,4.070408779725432,-4.696937335014343
1733513591652256000,2.613256103515625,6.4116603554606435,4.190936024335026,-4.226935266216099
1733513591662332000,2.623331787109375,6.749008396264911,4.332761493039131,-3.872237446682155
1733513591672406800,2.63340673828125,6.906083456549048,4.210338643941283,-3.693213297179341
1733513591682483000,2.64348291015625,6.711145990860461,3.7227971190601585,-3.666495386123657
1733513591692559000,2.65355908203125,6.457928185638785,3.189130971863866,-3.5777369062185285
1733513591702634000,2.663634033203125,6.073779230692982,2.5455676951438186,-3.439123385298252
1733513591712710000,2.6737099609375,5.540374364781379,1.6028987222522497,-3.3234488414168357
1733513591722786000,2.6837861328125,4.751386718082427,0.4787082300841808,-2.9894574175640938
1733513591732861000,2.69386083984375,3.7757878277525303,-0.4812649288296699,-2.5582719861552117
1733513591742936800,2.703936767578125,2.5739608459353445,-0.9292419205635786,-2.288857225500792
1733513591753013000,2.714012939453125,1.2122604052871464,-0.8929284981667995,-2.0348447627700863
1733513591763088000,2.724087890625,0.1656296842701733,-0.6757055509120226,-1.6889235394097863
1733513591773163800,2.734163818359375,0.1506799524195492,-0.43237844058573244,-1.259102528221905
1733513591783240000,2.744239990234375,0.8699798765167593,-0.4221148207247257,-0.69001735018529
1733513591793314800,2.754314697265625,1.8147873227417468,-0.7299719786286354,-0.12153819348411633
1733513591803391000,2.764390869140625,2.8038004059180617,-1.0124474425166845,0.21805738878492265
1733513591813467000,2.774466796875,3.7804727706983683,-1.456388895124197,0.45753940452300007
1733513591823541800,2.784541748046875,4.592913189177215,-1.9234277302026748,0.7300618488691747
1733513591833618000,2.794617919921875,5.107110958054662,-2.302112574523687,0.9959281963270157
1733513591843694000,2.804694091796875,5.4382209812521936,-2.6506734987378118,1.369574827285111
1733513591853768700,2.814768798828125,5.609397632125019,-2.8770968205362557,1.7717849241003394
1733513591863844900,2.824844970703125,5.562519561094045,-3.0184517491191625,2.1336273546919227
1733513591873921000,2.834921142578125,5.32375405959487,-3.0852298678845167,2.477779522553086
1733513591883996000,2.844995849609375,4.93959925943017,-3.0552129152834415,2.832119906951487
1733513591894071800,2.85507177734375,4.394251442268491,-2.9228426726669072,3.2007910145193335
1733513591904147000,2.86514697265625,3.6049288645267485,-2.6749422630757094,3.646865972024202
1733513591914222800,2.875222900390625,2.3737954164654016,-2.2311340814590452,4.199852028979361
1733513591924299000,2.885299072265625,0.9474094454169273,-1.6616799970448015,4.72059235136807
1733513591934374000,2.895373779296875,-0.41003859848380086,-1.0577245080918074,5.134238034433126
1733513591944449800,2.90544970703125,-1.3449950973019003,-0.7447188813835383,5.326001546260715
1733513591954526000,2.91552587890625,-1.3539248382106424,-0.7529179699301719,5.212637617409229
1733513591964600800,2.925600830078125,-1.3116890400275587,-0.9772989722460508,4.894261988100409
1733513591974676700,2.9356767578125,-1.50528356667459,-1.1624661545485258,4.191064034628868
1733513591984753000,2.9457529296875,-1.7666534064307808,-1.2670020493000744,3.236216548165679
1733513591994828000,2.955828125,-1.453714415217936,-1.3252344580382107,2.377237081351876
1733513592004903700,2.965903564453125,-0.918890330158174,-1.3554922336578368,1.3866288379386067
1733513592014979800,2.975979736328125,-0.4870347444027662,-1.319415542626381,0.11290142590627074
1733513592025055000,2.986054931640625,-0.31283114692419767,-1.0782236907631157,-1.4423586162060498
1733513592035131000,2.996130859375,-0.3365905004352331,-0.7048638408571481,-3.0771675574600694
1733513592045206800,3.006206787109375,-0.3345356137320399,-0.26415713238716126,-4.456700007396936
1733513592055282000,3.016281982421875,-0.6859568958133458,0.19653379496932027,-5.57396274612844
1733513592065357800,3.02635791015625,-1.4928043165907263,0.6149281338661908,-6.4931187414854765
1733513592075434000,3.03643408203125,-2.510375970253348,0.8371627718031406,-6.84565324550569
1733513592085508900,3.0465087890625,-2.5511390655353665,0.5507318482875824,-6.0899704870373
1733513592095584800,3.056584716796875,-1.5675515145391226,-0.07286474520266055,-4.356763715395331
1733513592105661000,3.066660888671875,-0.8939788840025663,-0.40260231100320815,-2.184975995265692
1733513592115736000,3.076736083984375,-0.6104688163697719,-0.39959143874943254,-0.9536381837386637
1733513592125811700,3.086811767578125,-0.22403204274773597,-0.30770225960314274,-0.38607217809334393
1733513592135888000,3.096887939453125,0.20726737042963503,0.14178922834694385,0.3412686483141035
1733513592145963000,3.106962890625,0.21778131178990004,1.2142518713653088,1.3354086460500956
1733513592156039000,3.117038818359375,-0.00262055776193738,2.9817542958408594,2.3910502103880047
1733513592166114800,3.12711474609375,0.03600888649225235,5.085494169530272,3.3593726799741384
1733513592176190000,3.13718994140625,0.27360183708071706,7.245449266916513,4.246831514558195
1733513592186265900,3.147265869140625,0.42005628075972196,9.25122911711335,4.9884232038319105
1733513592196342000,3.157342041015625,0.3324456557154655,10.563755484747887,5.388627806043624
1733513592206417000,3.1674169921875,-0.04831175709590316,10.072464836466311,5.296427661252022
1733513592216492800,3.177492919921875,-0.6299772344380616,6.683094200852513,4.456801714205741
1733513592226569000,3.18756884765625,-1.2631073799490928,2.056687030613422,3.207220463044941
1733513592236643800,3.197643798828125,-2.0322867488503453,-1.2412877623289822,2.561089381663501
1733513592246719700,3.2077197265625,-2.5064900687307117,-3.518513148355484,2.407459785658121
1733513592256796000,3.2177958984375,-2.535078449833393,-5.258675730484724,2.6162536350026726
1733513592266871000,3.22787109375,-2.282102052152157,-6.394444432243705,2.9193352490678426
1733513592276947500,3.237947509765625,-1.7742413773417471,-6.6144941273570055,3.231620744808018
1733513592287022600,3.248022705078125,-1.0097598108679056,-6.3203977837800975,3.382576445429027
1733513592297098500,3.258098388671875,-0.04434416863918304,-6.079910865315795,3.439050027801096
1733513592307174400,3.26817431640625,1.1973252864837647,-5.636792419528961,3.56280441776365
1733513592317249500,3.27824951171875,2.986716302162409,-4.5814416548311705,3.861189106184244
1733513592327325700,3.28832568359375,4.305651367795467,-2.659735341593623,4.097704782930016
1733513592337401300,3.2984013671875,5.621242968219518,-0.627949528002739,3.780271987429261
1733513592347476500,3.3084765625,6.5566983564704655,1.4436235215753317,3.1573587000280616
1733513592357552600,3.318552734375,6.913201179599762,3.5326913113117215,2.100832461810112
1733513592367628500,3.328628662109375,6.5374436209023,5.139710328364372,0.6409804206199944
1733513592377703400,3.338703369140625,5.80453266621232,5.852902437105775,-0.8623494547035545
1733513592387779600,3.348779541015625,5.072327813965082,5.514390613219142,-2.008575910656154
1733513592397855500,3.35885546875,4.249704439646005,4.471156987294554,-2.315401387424767
1733513592407930400,3.368930419921875,3.4833979958325623,2.9990567282974716,-1.9698058888874947
1733513592418006500,3.379006591796875,2.8739526772916317,1.4567361011266708,-1.8549153349906204
1733513592428082400,3.38908251953125,2.2855869716584682,0.06550152295827866,-1.8511203266218303
1733513592438157600,3.399157470703125,2.0185516534864902,-1.2478788311570883,-1.4766022465914488
1733513592448233500,3.4092333984375,2.4322704017877577,-2.134646468606591,-1.7467435679547487
1733513592458309400,3.419309326171875,1.950482910388708,-1.8972960946023463,-3.601981705158949
1733513592468384500,3.429384521484375,0.5062310277819633,-1.0726187103629112,-5.662545869466662
1733513592478460700,3.439460693359375,-0.9717933605670929,-0.43504152231514454,-6.480791174831986
1733513592488536600,3.44953662109375,-2.1324223628163335,-0.13595102371275425,-6.098641284748911
1733513592498611500,3.459611572265625,-2.844055551677942,-0.18708032244741915,-4.937612469527125
1733513592508687600,3.4696875,-2.9551731629073617,-0.33542963996231556,-3.700855920886993
1733513592518763500,3.479763427734375,-2.7320050435125824,-0.4587848014742136,-2.831134987567365
1733513592528838400,3.48983837890625,-2.5067607023656366,-0.4506622852951288,-2.4144182264938947
1733513592538914600,3.49991455078125,-2.4074038176871833,-0.2906283752053976,-2.2580901851847766
1733513592548990500,3.509990478515625,-2.433382016291469,-0.12170856334865092,-2.076839007282257
1733513592559065600,3.520065673828125,-2.476509356486797,-0.0009732289463281631,-1.826070787169784
1733513592569141500,3.5301416015625,-2.491981650906801,0.028211364483833313,-1.6715986028604208
1733513592579217400,3.540217529296875,-2.494374683523178,0.06800853734314441,-1.6078056373856962
1733513592589292500,3.55029248046875,-2.518459323465824,-0.007052256599068641,-1.7497528327733278
1733513592599368400,3.560368408203125,-2.320253649761528,0.10814940907359123,-1.5045441464841365
1733513592609444400,3.5704443359375,-2.2279038673661646,0.13839783234298228,-1.1849945049598813
1733513592619519500,3.58051953125,-2.161327993174642,0.10495090529322623,-0.940532326189056
1733513592629595400,3.590595458984375,-2.087022693774849,0.03155775230228901,-0.656784285081923
1733513592639670300,3.600670166015625,-1.982180363422632,-0.03788753984570503,-0.4046909538455307
1733513592649746400,3.610746337890625,-1.9377343418441713,-0.08509177409112453,-0.20906809970866888
1733513592659822300,3.620822265625,-1.95320210621953,-0.049589083555340766,-0.03983061847118661
1733513592669897500,3.6308974609375,-1.9785306087434291,0.1281675302296877,0.1309981231462676
1733513592679973400,3.640973388671875,-2.0230513029932973,0.42942426695525643,0.23763724638791753
1733513592690049500,3.651049560546875,-2.0873149547196923,0.7812316257447004,0.2783136497671716
1733513592700124400,3.66112451171875,-2.156764923042804,1.102739123338461,0.3184504481106996
1733513592710200600,3.67120068359375,-2.302514871714264,1.3106488833248615,0.3319971812956035
1733513592720276500,3.6812763671875,-2.508863812124729,1.3827835606873036,0.2987798252180219
1733513592730351400,3.691351318359375,-2.8281968882888555,1.2822481337487697,0.1881157847086899
1733513592740427500,3.701427490234375,-3.247791542886197,1.0280746352374552,-0.0426291814148426
1733513592750503400,3.71150341796875,-3.714391694286465,0.7962649442255496,-0.39403223371971396
1733513592760578300,3.721578369140625,-4.132670297849178,0.5778098248273134,-0.7982051915731281
1733513592770654500,3.731654541015625,-4.436186796200275,0.47262043460309505,-1.2529196018032729
1733513592780730400,3.74173046875,-4.652049561017751,0.5925602347135543,-1.8612977295041082
1733513592790805500,3.751805419921875,-4.718310085649788,0.9655898297518491,-2.73952667118907
1733513592800881400,3.76188134765625,-4.655324637165665,1.615607981699705,-3.826619020323455
1733513592810957300,3.771957275390625,-4.504666458186507,2.5638889492541552,-4.820982816877961
1733513592821032400,3.782032470703125,-4.391749396319687,3.6796763547360896,-5.467964377608895
1733513592831108600,3.792108642578125,-4.3911122674599286,4.7707069201022385,-5.801760278889536
1733513592841184300,3.802184326171875,-4.654389109881222,5.497009270307421,-5.809851230886578
1733513592851259400,3.81225927734375,-5.258710801798105,5.703237360817194,-5.763550082960725
1733513592861335600,3.82233544921875,-6.462160708642005,5.549851218178868,-5.9027487102925775
1733513592871411500,3.832411376953125,-9.102425041568278,5.292386861428618,-6.222700795137881
1733513592881486300,3.842486328125,-16.93194611631632,5.065440977060795,-5.780908629518747
1733513592891562500,3.8525625,-20.470176357054708,4.9849938139051195,-4.193701105134189
1733513592901638400,3.862638427734375,-17.84560877495408,5.114710911664367,-3.2065128992974756
1733513592911713300,3.87271337890625,-12.237620425105094,5.542310301280021,-2.303938913168013
1733513592921789400,3.88278955078125,-5.709921953147649,5.670267988151312,-1.1804943439964204
1733513592931865300,3.892865234375,-1.3546049294292926,5.250971147456765,0.08167847678260877
1733513592941940500,3.9029404296875,0.6912449922841042,4.690360294711589,1.1317987752147018
1733513592952016600,3.9130166015625,2.057916864669323,4.233507338082791,1.3420859318569303
1733513592962092300,3.92309228515625,3.6277509371876713,4.094437305566668,1.0386362151317299
1733513592972167400,3.93316748046875,5.919765896067023,4.70863595611453,0.5375284486476332
1733513592982243600,3.94324365234375,8.766139077037572,5.755944284132123,-0.19621753209438172
1733513592992319500,3.953319580078125,12.237570156222581,6.797250156864523,-0.2919854889027774
1733513593002394400,3.963394287109375,15.628032094204425,7.981243083566427,0.5874849042106419
1733513593012470500,3.973470458984375,16.725961771434545,8.596253635019064,1.4508658939190209
1733513593022545700,3.983545654296875,15.278272900116443,8.047698546248673,1.685175585053116
1733513593032621300,3.993621337890625,12.681508686220646,6.759084384599328,1.3551444431334734
1733513593042697500,4.003697509765625,10.008567241573333,4.785998597258329,0.9456375403735786
1733513593052772600,4.013772705078125,7.684847815397381,2.786770068401098,1.3133905832484363
1733513593062848500,4.0238486328125,6.231963129001856,1.1351064384579659,1.7716592518940566
1733513593072924400,4.03392431640625,5.6947717302888625,0.02771335183382034,1.971848062239587
1733513593082999600,4.04399951171875,5.599588770294189,-0.7308610364228486,2.0061507293358445
1733513593093075500,4.054075439453125,5.350168603789806,-1.2100631875038146,2.0131074166059495
1733513593103151600,4.064151611328125,4.874495211356878,-1.496171454936266,2.00519883543849
1733513593113226500,4.0742265625,4.232765579804778,-1.5576754326909779,1.7800927337184547
1733513593123302400,4.084302490234375,3.505407583066821,-1.6884861709058283,1.5382695982143282
1733513593133378600,4.094378662109375,2.8107477408379316,-1.7669652488589285,1.1043294612698256
1733513593143453700,4.10445361328125,2.2362699830427766,-1.9085697682887315,0.6126343969058246
1733513593153529300,4.114529296875,1.7806801782175898,-2.1441402731388806,0.03813333130031824
1733513593163605500,4.12460546875,1.3312091485336421,-2.330795063650608,-0.5103451851025224
1733513593173680600,4.1346806640625,1.2426312858924269,-2.3562252729833126,-0.9889032661262899
1733513593183756500,4.144756591796875,2.01002026424557,-2.3222037609159947,-1.254968204896152
1733513593193832400,4.15483251953125,3.2116619526237247,-2.343514259970188,-1.3554612539976834
1733513593203907600,4.164907470703125,4.307261433340609,-2.3553023129194974,-1.2170808842461556
1733513593213983500,4.1749833984375,5.142723538705706,-2.391893967735767,-0.9166291802931577
1733513593224059600,4.1850595703125,5.718385830110311,-2.49621768104136,-0.5168780940026044
1733513593234134500,4.195134521484375,6.030625733143091,-2.7219769859731198,-0.013974457077682018
1733513593244210400,4.20521044921875,5.96764583761692,-2.8638854567855594,0.6081550595346837
1733513593254286600,4.21528662109375,5.6553083194285625,-2.929073676010966,1.294931381972134
1733513593264361500,4.225361572265625,5.041556828126311,-2.96325183994472,1.9504653747320173
1733513593274438000,4.23543798828125,4.033042341144383,-2.9117478626787663,2.6511463769465684
1733513593284514000,4.24551416015625,2.677537540265918,-2.6949586306661364,3.358646411526203
1733513593294589000,4.2555888671875,1.094176462176442,-2.3752409390985965,4.0271801711127155
1733513593304665000,4.2656650390625,-0.3177998752474785,-2.091208308896422,4.58442739264369
1733513593314741200,4.2757412109375,-0.8513470722392201,-1.7255775919377803,4.7374087538734075
1733513593324816000,4.28581591796875,-1.2488438767969607,-1.3593997624903917,4.537957610152661
1733513593334892000,4.29589208984375,-2.025356072804332,-0.8132815454781055,3.7952018455356358
1733513593344968200,4.30596826171875,-2.6966858928501605,-0.3231821528077125,2.6379075406670567
1733513593355042800,4.316042724609375,-3.0770047681137918,0.11744622972905636,1.3415984406009316
1733513593365119000,4.326118896484375,-3.11759046100229,0.44874856062829493,0.0699803488727659
1733513593375195100,4.336195068359375,-2.734028073772788,0.7849076839089393,-1.1141885919831693
1733513593385270000,4.34627001953125,-2.4603581398919223,1.1767770039737224,-2.2628978777274487
1733513593395346000,4.356345947265625,-2.737411286470294,1.6655653140455484,-3.2645673211202024
1733513593405421000,4.366421142578125,-3.4484213749974963,2.1657687521010636,-4.10547366336584
1733513593415497000,4.3764970703125,-4.062547837091982,2.37381704377532,-4.61433299382478
1733513593425573000,4.386572998046875,-3.960660703283548,2.0843372540831564,-4.438653478574753
1733513593435648000,4.39664794921875,-3.028819998398423,1.314245446512103,-3.522897647050023
1733513593445724000,4.406723876953125,-1.6180886925995348,0.3773766843318939,-2.0121794881060717
1733513593455800000,4.416800048828125,-0.2355243276208639,-0.39440088436901566,-0.5437763300612568
1733513593465875000,4.426875,0.7804679478958249,-1.0525848071157933,0.11797018053792416
1733513593475950800,4.436950927734375,1.3052157523602246,-1.7304975126832722,0.49477227985225614
1733513593486027000,4.447027099609375,1.5982102721750735,-2.4249714769512414,0.879668180707842
1733513593496102100,4.45710205078125,1.9223402272269128,-3.0355934380561114,1.2655734778016805
1733513593506178000,4.467177978515625,2.1608158058688045,-3.253331349095702,1.7030851896226404
1733513593516254000,4.47725390625,2.3128408892869947,-2.5206542031615973,2.1483611057043075
1733513593526329000,4.4873291015625,2.466811553815007,-0.5611930365473031,2.743552273443341
1733513593536405000,4.497405029296875,2.696865925592184,2.354220947423577,3.3480648117572067
1733513593546481200,4.507481201171875,2.9092385102063414,5.626731628763675,3.925115634910762
1733513593556556000,4.51755615234375,2.9765824461609123,8.315188622450828,4.40965768571496
1733513593566632000,4.5276318359375,2.8930279646396637,10.184184505242108,4.638436046206951
1733513593576708000,4.5377080078125,2.5684780306100845,11.419196256041527,4.427192465622723
1733513593586783000,4.547782958984375,1.542344154176861,10.318235248291492,3.4236814860165117
1733513593596859000,4.55785888671875,0.09420110935047268,6.231477391311526,1.6686533431887625
1733513593606935000,4.56793505859375,-1.372814978250116,1.8654291302204131,0.7309577017303556
1733513593617010200,4.57801025390625,-2.827081036001444,-1.2973165235430002,0.6969074750252068
1733513593627085800,4.5880859375,-3.75925550288558,-3.547649810990691,0.8821968954678624
1733513593637162000,4.598161865234375,-3.417560372787714,-4.78413163434267,1.1871033868726342
1733513593647237000,4.608237060546875,-2.6563813549906015,-5.1666696469604965,1.5274521438628434
1733513593657313000,4.61831298828125,-1.8413415676683187,-5.173479911497235,1.9567180053859947
1733513593667389000,4.628388916015625,-1.0304531278718263,-5.12665970813334,2.103967544965446
1733513593677464000,4.638464111328125,-0.27578378422968086,-4.834640755352377,2.2009242366343735
1733513593687540000,4.6485400390625,0.6675449677448719,-3.8684354240506886,2.2221476419270036
1733513593697616100,4.6586162109375,2.00072256680727,-2.0389391924768687,2.134501214917004
1733513593707691000,4.66869091796875,3.6713007405787703,0.28367373376190663,1.7002222014069557
1733513593717767000,4.678766845703125,4.9306975755721325,2.4701065037071706,1.0133610502302646
1733513593727843000,4.688843017578125,6.053807286766171,3.9660739605039357,-0.24777751386389135
1733513593737918200,4.698918212890625,6.060670158272981,4.25885279174149,-1.1333186782583593
1733513593747993900,4.708993896484375,5.166237100762128,3.570757130333781,-1.7726327731013296
1733513593758069000,4.719069091796875,4.234190644171834,2.4559230800539256,-2.1227702989824113
1733513593768145200,4.729145263671875,3.4601299329698083,1.1161696827977896,-2.112813845374435
1733513593778221000,4.739220947265625,2.6831203088343143,-0.047404725253582,-1.8885222749076782
1733513593788296000,4.7492958984375,2.038347071802616,-0.8988234014242887,-1.6019808767549693
1733513593798372000,4.7593720703125,1.6163170067518948,-1.5533511397510766,-1.5577799159787595
1733513593808448000,4.769447998046875,1.1175924090772866,-1.8236486745893954,-1.7616010914772748
1733513593818523000,4.77952294921875,0.36071722595393657,-1.6674205865234135,-2.0648491481505333
1733513593828599000,4.78959912109375,-0.43092707273364067,-1.3012503558605908,-2.4757819189950823
1733513593838675000,4.799675048828125,-1.1690262437164782,-0.7452724236130714,-2.7337235378682614
1733513593848750000,4.80975,-1.6961527600109576,-0.3074374711871147,-2.387853167912364
1733513593858826000,4.819825927734375,-1.8938509225845335,-0.007876432463526725,-1.803022650668025
1733513593868902000,4.82990185546875,-1.9656933390021323,0.21518881107866764,-1.4175088371098041
1733513593878977000,4.83997705078125,-2.0098960533440113,0.24196517432332038,-1.2807922358520327
1733513593889053200,4.85005322265625,-2.020072725573927,0.12494330748617648,-1.2218097393989562
1733513593899128800,4.86012890625,-1.7600655524730682,0.11856617366969585,-1.1198635688796639
1733513593909204000,4.870203857421875,-1.483694250679016,-0.036011224579811096,-1.145789598905295
1733513593919280000,4.880280029296875,-1.2568600099921226,-0.365796721175313,-1.1620781781442462
1733513593929356000,4.89035595703125,-1.081732721797377,-0.7101870817065239,-1.1576985748205333
1733513593939431000,4.900430908203125,-1.0584265919465572,-0.909438318940997,-1.1700177389718591
1733513593949507000,4.910507080078125,-1.219512568372488,-0.8728881651788949,-1.22358135218136
1733513593959583000,4.9205830078125,-1.4458596100643277,-0.6678197660982609,-1.234420360777527
1733513593969658000,4.930658203125,-1.6796129824899135,-0.4642120872199535,-1.0341133308798074
1733513593979734000,4.940734130859375,-1.8001273676179348,-0.3406459133058786,-0.7310785516310483
1733513593989810000,4.950809814453125,-1.8458195898652077,-0.2708762115091085,-0.4054853190936148
1733513593999885000,4.960885009765625,-1.8183236801743505,-0.228435246142745,-0.07583510278295726
1733513594009961200,4.970961181640625,-1.763058450678736,-0.1183025542974472,0.1885003453131765
1733513594020036900,4.981036865234375,-1.719943969964981,0.023709961411356926,0.38428058196883647
1733513594030112000,4.991112060546875,-1.6771758184708654,0.21002105305194854,0.5502610524380579
1733513594040188200,5.001188232421875,-1.6576711997948586,0.41580899857878684,0.5990412672959268
1733513594050264000,5.01126416015625,-1.6780653146564959,0.5692904182851314,0.5056952038722112
1733513594060339000,5.0213388671875,-1.7584933347202836,0.7001490872949362,0.34333084154091775
1733513594070415000,5.0314150390625,-1.9094765078701077,0.7659159831911325,0.19471874490398913
1733513594080491000,5.041490966796875,-2.087913359004259,0.7794996873855591,0.03673164780884981
1733513594090566000,5.05156591796875,-2.2643037990026174,0.764406163150072,-0.0671325399599038
1733513594100642000,5.06164208984375,-2.4659110978439447,0.652358577594161,-0.16377828424982727
1733513594110717200,5.07171728515625,-2.687645385043323,0.541351441001892,-0.31236535604335364
1733513594120793000,5.08179296875,-2.9601719941079616,0.5895733278572559,-0.5654314413020387
1733513594130869000,5.091868896484375,-3.2359394847899674,0.7434224118322134,-0.990299981181696
1733513594140944100,5.101944091796875,-3.4590915298327802,0.9024258098304271,-1.601024598943442
1733513594151020000,5.11202001953125,-3.6273122535094617,1.0388169785261154,-2.276831564403325
1733513594161096200,5.12209619140625,-3.7233863171249624,1.1800386361181736,-2.812716410562396
1733513594171171000,5.132171142578125,-3.7101395897999403,1.498116159263253,-3.1085128360554575
1733513594181247000,5.1422470703125,-3.69632090780586,1.9772054976195095,-3.050522711640596
1733513594191323100,5.1523232421875,-3.8840322216331957,2.53144739985466,-2.784946067844331
1733513594201398000,5.16239794921875,-4.529183059805631,3.2244659046173094,-2.4152917944580317
1733513594211474000,5.172473876953125,-5.546860219669342,4.0859786893010135,-2.0866367631971836
1733513594221550000,5.182550048828125,-6.738771664410829,4.990549109944701,-2.048295342104137
1733513594231625000,5.192625,-8.414079204791785,5.585574857988953,-2.344659338352084
1733513594241701000,5.202701171875,-10.85612515066266,5.732714215192199,-2.721016031986475
1733513594251777000,5.212777099609375,-14.418693713843822,5.542286920404434,-2.490329207524657
1733513594261852000,5.222851806640625,-17.526874833726882,5.286947885245085,-1.6442054228916763
1733513594271927000,5.232927001953125,-16.792245384681223,5.332325488585234,-1.0414829828649759
1733513594282003200,5.243003173828125,-12.341362539130449,5.573562348634004,-1.1826415120929479
1733513594292078000,5.253078125,-7.223781040465831,5.596862560200691,-1.3572953375570476
1733513594302154000,5.263154052734375,-3.4491876831948756,5.185790527015924,-1.1483525812610984
1733513594312230100,5.273230224609375,-1.1120132937707006,4.4635032576709985,-0.9750896256335079
1733513594322305300,5.28330517578125,0.4118542696036398,3.808838156700134,-1.2105687258731572
1733513594332381000,5.293380859375,1.5352362218677997,3.4808646779626606,-1.579680636011064
1733513594342457000,5.30345703125,2.609588624155521,4.071553858107328,-1.8444985703945158
1733513594352532200,5.3135322265625,4.034499261954426,5.3268689767450095,-1.967798348457366
1733513594362608000,5.323608154296875,5.9241766982465975,6.696347065657377,-2.226663950307667
1733513594372684000,5.33368408203125,8.366686169975996,7.725038956010342,-2.029294727427512
1733513594382759200,5.34375927734375,10.20240171445608,8.47158505282104,-0.8222831825792789
1733513594392835000,5.3538349609375,11.02968255919218,8.230353453469275,0.32972291622068733
1733513594402911200,5.3639111328125,11.135158365142345,6.645946081197262,0.3524323222873732
1733513594412986000,5.373986083984375,10.462799202048778,4.992894796288013,0.2548041976302862
1733513594423062000,5.38406201171875,8.954474367982149,3.1577146738588806,0.7499220029845833
1733513594433138200,5.39413818359375,7.500484935215115,1.0599193877875803,1.4068078487448394
1733513594443213300,5.40421337890625,6.337803676611185,-0.36219606633484364,1.9700553336039184
1733513594453289000,5.4142890625,5.39365352525115,-0.9928273807674646,2.194721728732437
1733513594463365000,5.424365234375,4.757141043825447,-1.1826701536655426,2.1179379103899
1733513594473440300,5.434440185546875,4.356319478759169,-1.2122434541523457,2.0421077395103873
1733513594483516200,5.44451611328125,4.152891248100996,-1.2082172673761844,1.8506335660181938
1733513594493592000,5.454592041015625,3.840930746531486,-1.1399497868359088,1.8575138270512221
1733513594503667200,5.464667236328125,3.3166084740027784,-1.1552858876556158,2.064518747152388
1733513594513743000,5.4747431640625,3.062878335344791,-1.1905617836982012,1.8284372240401803
1733513594523818000,5.48481787109375,3.017861382010579,-1.262502984315157,1.4347946106925606
1733513594533894100,5.49489404296875,3.293505246312916,-1.377174488633871,0.9135660663954913
1733513594543970000,5.504969970703125,3.8520527367874977,-1.355460084953904,0.2731013402126729
1733513594554045200,5.515045166015625,4.5255885424450035,-1.2947744378447532,-0.2815126832704991
1733513594564121000,5.52512109375,5.302791351065039,-1.2417670702785253,-0.6505236172519624
1733513594574197000,5.535197021484375,6.071207918900251,-1.3786726182371376,-0.8790854123838245
1733513594584272100,5.545272216796875,6.81417148104906,-1.7364923691838978,-0.9551865091592073
1733513594594348300,5.555348388671875,7.521842780542373,-2.176142846599221,-0.8622092425152659
1733513594604424000,5.565423828125,8.058845378684998,-2.6294658755362033,-0.6390945338081568
1733513594614499000,5.5754990234375,8.14817259838879,-3.1839450936585663,-0.34490788159929214
1733513594624575200,5.5855751953125,7.83058139745593,-3.7133471536695954,0.11326799419634044
1733513594634651100,5.595651123046875,7.270710549423098,-4.126934384545684,0.5892277292899787
1733513594644726000,5.60572607421875,6.6079843070715665,-4.448986072018743,0.9917759720183909
1733513594654802200,5.61580224609375,5.772241338938474,-4.553122738319635,1.4219135018095372
1733513594664878000,5.625878173828125,4.66137736133337,-4.360742555898428,1.9546087581470608
1733513594674953200,5.635953125,2.648577110980451,-3.8106612804740667,2.6160063822433353
1733513594685029000,5.646029052734375,-1.5452157640904187,-2.791218279981613,3.174171303141117
1733513594695105000,5.65610498046875,-4.9665597470700735,-1.3257628658264875,2.691972016070783
1733513594705180200,5.66618017578125,-5.879426286894082,0.25534604942202566,2.254096000982076
1733513594715256300,5.67625634765625,-5.636592513042688,1.5024386986374854,2.111009572431445
1733513594725332000,5.68633203125,-4.366221571831405,1.8993208784282207,1.5867711787939072
1733513594735407000,5.696406982421875,-2.874922106845677,1.3857465021461248,0.7912959967065603
1733513594745483300,5.706483154296875,-1.6077911704689263,0.6342191097915172,0.023031039236485955
1733513594755559200,5.71655908203125,-0.6729197195857763,0.14747662633359432,-0.6371220646914094
1733513594765634000,5.726634033203125,-0.04836100306510925,-0.07329319974780082,-1.184555675151199
1733513594775710200,5.736710205078125,0.29248773933649064,-0.30046880121827124,-1.445588391907513
1733513594785786000,5.7467861328125,0.2945113541185856,-0.45658992177844043,-1.5757045719869434
1733513594795861000,5.756861083984375,-0.3908130890101194,-0.3035094840884209,-1.8204228444106876
1733513594805937200,5.766937255859375,-1.9430369782969354,0.02771861253082752,-2.223284829263389
1733513594816013000,5.777012939453125,-3.884555953246355,0.49939036810696125,-2.5421704539209604
1733513594826088200,5.787088134765625,-4.667682598957419,1.0336264241456985,-2.220518287159502
1733513594836164000,5.7971640625,-3.7810061469227074,1.3730606235742568,-1.000614673642814
1733513594846240000,5.807239990234375,-2.4660016987368465,1.5514152032524346,0.25659758385308085
1733513594856315100,5.817315185546875,-1.0430562235310674,1.4597002116292714,1.1036642753593624
1733513594866391300,5.827391357421875,0.1823535861864686,1.214572189360857,1.8263506270244716
1733513594876467000,5.837467041015625,0.8050178672626614,1.3499240781366824,2.3986114394225178
1733513594886542000,5.8475419921875,1.0007090739279985,2.1067934160411355,2.872810229258239
1733513594896618200,5.8576181640625,1.0556063468940555,3.5486060888022184,3.3400396184727548
1733513594906693000,5.867693115234375,1.0474744783647358,5.367772065019607,3.8303950317308306
1733513594916769000,5.87776904296875,0.8810349390164017,7.09914519149363,4.186059650470316
1733513594926845200,5.88784521484375,0.6574113309390842,8.326666878798603,4.269304335390031
1733513594936920000,5.897920166015625,0.5098071327030659,8.704720439478754,3.877507788300514
1733513594946996200,5.907996337890625,0.11171966877579688,7.201461072108149,2.8078549420058727
1733513594957072100,5.918072021484375,-0.46983927945196624,3.2587533741444346,1.4746645565271377
1733513594967147000,5.92814697265625,-0.9460089309692382,-0.5079384162217379,0.8769095296494662
1733513594977223200,5.93822314453125,-1.1007594938285648,-2.9197271709948778,0.7937946085892618
1733513594987299300,5.94829931640625,-0.9525251809954642,-4.663647059831023,0.7570933559186757
1733513594997374000,5.9583740234375,-0.5571048904508352,-5.72588583047688,0.6533512418933213
1733513595007450000,5.9684501953125,0.042994507595896715,-5.894353222391009,0.5761529975309968
1733513595017526300,5.9785263671875,1.0039239443212746,-5.455573098069429,0.6431655826393514
1733513595027601000,5.988600830078125,2.364971474018693,-4.880841950035095,0.9045413406796753
1733513595037677000,5.998677001953125,3.7115117549359797,-4.02912107604742,1.2951374259382487
1733513595047753200,6.008753173828125,5.126817529043555,-2.644794962093234,1.4090458369299768
1733513595057828000,6.018828125,6.072168288365006,-1.0683043542951345,1.4928952097445725
1733513595067904000,6.028904052734375,6.270863645282387,0.39883857455551625,1.4490722885005176
1733513595077980200,6.038980224609375,6.0604918790966265,1.9175527006894348,0.8291627860251813
1733513595088055000,6.049054931640625,6.0641872264832255,3.2272984976947305,-0.531479998796247
1733513595098131200,6.059131103515625,5.766604794356226,3.8660447295218705,-1.8127258601672946
1733513595108207000,6.06920703125,4.913879127240181,3.971143518853187,-2.6803689642995594
1733513595118282000,6.079281982421875,3.64977981364429,3.569002395620942,-2.9512647572919724
1733513595128358100,6.089358154296875,2.2597575338751077,2.5229724169760943,-2.3459536159463226
1733513595138434000,6.09943408203125,1.3905962802648544,1.243313715198636,-1.7247320810243487
1733513595148509000,6.109509033203125,1.4594319160819054,0.1256055707871914,-1.4199297806464135
1733513595158585000,6.119585205078125,1.6797808864027262,-0.6251005683124065,-1.7613310423642397
1733513595168661000,6.129660888671875,0.7069383090436459,-0.790736536192894,-2.808605175851285
1733513595178736000,6.139736083984375,-0.8975041355192661,-0.4675935463517904,-3.8762738625913857
1733513595188812000,6.14981201171875,-2.2477754196584225,-0.1468026725947857,-4.315941875663399
1733513595198888000,6.159887939453125,-3.0126889478087424,-0.16742518938481807,-4.167802693767845
1733513595208963000,6.169963134765625,-3.404844683599472,-0.3859463597565889,-3.7362843771427867
1733513595219039200,6.180039306640625,-3.5115924091815947,-0.48722529853880403,-3.3059923874422905
1733513595229115100,6.190115234375,-3.5995945177614685,-0.4596265129953623,-2.9195284335523843
1733513595239190000,6.20018994140625,-3.7628199173688888,-0.3145698072850704,-2.6858289832711217
1733513595249266200,6.21026611328125,-3.9001755471825597,-0.16088965013623235,-2.490347912225127
1733513595259342000,6.220342041015625,-3.8488603704869746,-0.007442132699489593,-2.285676695768535
1733513595269417000,6.2304169921875,-3.6723230693638325,0.11288812803328037,-2.028857943445444
1733513595279493000,6.2404931640625,-3.3477941781222817,0.058330023893713945,-1.758303218975663
1733513595289568000,6.250568115234375,-2.976808656132221,-0.22200082918107508,-1.5662684889912604
1733513595299644000,6.260643798828125,-2.6066543242692948,-0.6460784744113683,-1.4692529067419469
1733513595309720000,6.270719970703125,-2.208878118248284,-0.9683090255826711,-1.533237303135544
1733513595319795000,6.280794921875,-1.8335306016564368,-1.0288631552666425,-1.632371923365444
1733513595329870800,6.290870849609375,-1.5123825850248336,-1.031079662272334,-1.5222716724850236
1733513595339947000,6.300947021484375,-1.212470248645544,-0.9727905549108982,-1.265698711616546
1733513595350022100,6.311022216796875,-0.9530559999365359,-0.9110042530834674,-1.131073456614837
1733513595360097800,6.321097900390625,-0.4990532451070845,-0.691495825240016,-0.7511146468352526
1733513595370174000,6.331174072265625,-0.19663433273434638,-0.4899672907233238,-0.33466618130914866
1733513595380249000,6.3412490234375,-0.007748495234921574,-0.29001228913366794,-0.09032068772055209
1733513595390325000,6.351324951171875,0.04335062755718827,-0.07403437350392342,-0.006911094562709331
1733513595400401000,6.36140087890625,-0.006349222896248102,0.09983984588980674,-0.037447066069208085
1733513595410476000,6.37147607421875,-0.037220015847682954,0.24702947197556493,0.030379831096716225
1733513595420552000,6.381552001953125,-0.06964578315615653,0.34532442651093004,0.1739988686867058
1733513595430628000,6.391628173828125,-0.1061583813868463,0.4163146100133657,0.27959106755815444
1733513595440703000,6.401702880859375,-0.1822198768042028,0.4842851534336805,0.24948775184787808
1733513595450779000,6.41177880859375,-0.3678115681290626,0.42647827663123605,0.17121964976433662
1733513595460855000,6.42185498046875,-0.6682790541730821,0.25925533182024957,0.058429246484488245
1733513595470930200,6.43193017578125,-1.041096613895893,0.11711539033949374,-0.1496104600245133
1733513595481005800,6.442005859375,-1.5092929484464228,0.0071592241048812864,-0.3724083578674122
1733513595491082000,6.45208203125,-2.1266940482974053,0.04288812461197376,-0.6449000782817602
1733513595501157000,6.4621572265625,-2.8703064297437666,0.3798258310496807,-1.1779370607290416
1733513595511233000,6.47223291015625,-3.543709256671369,1.0500269393265247,-2.067963334648311
1733513595521309000,6.482308837890625,-4.003302451919019,1.9979852507978677,-3.1988772898524998
1733513595531384000,6.492384033203125,-4.304954325442016,3.2179683592915533,-4.413153711137175
1733513595541460000,6.5024599609375,-4.783391629630327,4.489910787603259,-5.380791705590486
1733513595551536000,6.5125361328125,-5.988304010242223,5.5409559640616175,-6.1987938498497
1733513595561611000,6.522611083984375,-9.299411256480216,6.210629249072075,-7.185138298338651
1733513595571687000,6.53268701171875,-15.28913097873926,6.1335354879975315,-7.457066649249196
1733513595581763000,6.54276318359375,-18.857474618190526,5.53436781784296,-7.208435002773999
1733513595591838000,6.552837890625,-17.858015836584567,4.650834340009093,-6.8999488993167875
1733513595601913900,6.562913818359375,-13.512405383366346,4.48690517604649,-5.872196335640549
1733513595611989000,6.572989013671875,-8.334750232011078,5.035056360191106,-4.552706850995123
1733513595622065200,6.583065185546875,-4.375520438313484,5.328552984309196,-3.300094269314408
1733513595632140800,6.593140869140625,-1.891331779370457,5.368045036742091,-2.3505152247734364
1733513595642216000,6.6032158203125,-0.5661575270868837,5.325913283455372,-1.927004127384722
1733513595652292000,6.6132919921875,0.16808387248925863,5.011843242385983,-1.803735913503915
1733513595662368000,6.623367919921875,1.2234359523613005,4.364055625969171,-1.942779350274056
1733513595672443000,6.63344287109375,2.7409832997381685,3.7216198919743295,-2.49059428820163
1733513595682519000,6.64351904296875,4.852487377688289,3.625544951575994,-2.8828578682810067
1733513595692595000,6.653594970703125,7.413129892367124,3.965418126943707,-2.738574777291715
1733513595702670000,6.663670166015625,9.849913972187041,4.744528522750735,-2.153141471848637
1733513595712746000,6.67374609375,10.689688387793302,5.813304586210847,-0.9236299989659339
1733513595722822000,6.68382177734375,10.774641630196571,6.524664803349971,0.5078654605833813
1733513595732897000,6.69389697265625,10.513395416820048,6.3689306362807745,1.3163855272807181
1733513595742973200,6.70397314453125,9.91467198330164,5.691644538179039,1.6015169125050306
1733513595753048800,6.714048828125,8.809575483182073,4.310860626876354,1.588533804552257
1733513595763124000,6.7241240234375,7.461619490247965,2.4251637846529484,1.1205618533421307
1733513595773200100,6.7342001953125,6.023900808802247,0.7091261744767428,0.8500507488183676
1733513595783276000,6.744276123046875,4.7873301381230355,-0.5661415988653898,0.7122900453351437
1733513595793351000,6.754350830078125,3.885014510668814,-1.4561825588971375,0.6849116245441138
1733513595803427000,6.764427001953125,3.2899832096666097,-2.002982912954688,0.6636266983225941
1733513595813503000,6.7745029296875,2.9029250892758367,-2.374479307076335,0.5876968299282714
1733513595823577900,6.784577880859375,2.6093068846046923,-2.6482705292493103,0.5140638768320903
1733513595833654000,6.794654052734375,2.4749761555701495,-2.6927503069669005,0.3874375481624156
1733513595843730000,6.80472998046875,2.324466737411916,-2.521857149210572,0.29781251455582675
1733513595853805000,6.81480517578125,2.256390980051458,-2.0819985820025204,0.11124492740351706
1733513595863881000,6.824880859375,2.361028289350867,-1.4297680147022007,-0.11545395993329584
1733513595873956900,6.834956787109375,2.603988319930434,-0.864866771286726,-0.2850180975755676
1733513595884032000,6.845031982421875,2.9900436930194494,-0.3900502879440784,-0.4155427123254165
1733513595894108200,6.855108154296875,3.4422742505446076,-0.031276012751460074,-0.4961509843269363
1733513595904183800,6.865183837890625,3.9273172366082667,0.11252338637411594,-0.4853456953372806
1733513595914259000,6.875259033203125,4.500858298075199,-0.024148352828621863,-0.4845232730384916
1733513595924335000,6.885335205078125,5.029287713661789,-0.3832809399396181,-0.5094646394083276
1733513595934411000,6.895410888671875,5.457111559683084,-0.9407646005749702,-0.4646705350445583
1733513595944486000,6.90548583984375,5.567950938493013,-1.5568021569877861,-0.20143793362379073
1733513595954562000,6.91556201171875,5.5963563642442224,-2.1469284425526856,0.1801987827727571
1733513595964638000,6.925637939453125,5.561567959457635,-2.562249949875474,0.6422928183928132
1733513595974713000,6.935713134765625,5.292766216135025,-2.8756963060885665,1.1753350615371019
1733513595984789000,6.9457890625,4.687513673108816,-3.0299785207837817,1.7606857301980257
1733513595994863900,6.95586376953125,3.7992666107565163,-2.94044321128726,2.3545707837745544
1733513596004940000,6.96593994140625,2.443389761695266,-2.6829163106948135,2.923086710555851
1733513596015016200,6.97601611328125,0.2401803367331624,-2.306539158794284,3.447407521779835
1733513596025090800,6.9860908203125,-1.5921706997498868,-1.8113772220373152,3.74213427221477
1733513596035167000,6.9961669921875,-1.9057064878121017,-1.2867840236127375,3.586837327519059
1733513596045243100,7.0062431640625,-1.208604220867157,-0.9322434404671192,3.18789236997962
1733513596055317800,7.01631787109375,-0.3114554746568203,-0.8050625831872225,2.846288425296545
1733513596065394000,7.026393798828125,-0.08258651327192783,-1.000689200183749,2.230508789167553
1733513596075470000,7.036469970703125,-0.6820707020297646,-1.2553227174222468,1.564636357744783
1733513596085545000,7.046544921875,-1.3140478781133889,-1.4388748657435178,0.9514280334085226
1733513596095620900,7.056620849609375,-1.4463374567091465,-1.5898837578564882,0.18851064751148222
1733513596105697000,7.066697021484375,-0.9827215818166732,-1.6937912915766238,-0.5831606112707406
1733513596115772000,7.07677197265625,-0.2607116681084037,-1.5277408976763487,-1.4863050176993011
1733513596125848000,7.08684814453125,-0.10039368038028477,-1.0306237351983785,-2.4210695010766385
1733513596135924000,7.096924072265625,-0.957385772769153,-0.28065526272356506,-3.5056133347719904
1733513596145998800,7.106998779296875,-2.81624312338382,0.583629324761033,-4.687883383204043
1733513596156075000,7.117074951171875,-4.473344560466707,1.3332728030651806,-5.499616822457313
1733513596166151200,7.127151123046875,-4.481760214373469,1.7268454199165104,-5.0545419819056985
1733513596176225800,7.137225830078125,-2.9414456663280726,1.5224427912682295,-3.5319267566800114
1733513596186302000,7.147302001953125,-1.5283844562768936,1.1530226188987494,-1.926780255500972
1733513596196378000,7.157378173828125,-0.8722913683295249,0.6183639535337686,-0.7623722461696714
1733513596206453000,7.167452880859375,-0.2811877621650696,-0.0908358707010746,-0.10050576245263218
1733513596216529000,7.17752880859375,0.5944049857974052,-0.8063181362062692,0.3449319931272417
1733513596226605000,7.18760498046875,1.2337994524002074,-1.195427928429842,0.8121708808224648
1733513596236680000,7.197679931640625,1.380921273946762,-0.6446265220373869,1.5305061246059835
1733513596246756000,7.207756103515625,1.6601207849040627,1.2760247291892766,2.3360278497375546
1733513596256832000,7.21783203125,1.9639824434310196,4.119529661247134,3.069123367214203
1733513596266907000,7.227906982421875,2.1158429839372634,6.997109296864271,3.7670553629815577
1733513596276982800,7.237982666015625,2.1734803493916988,9.30764833894968,4.492722337892651
1733513596287059000,7.248058837890625,2.358197449839115,10.747796877890824,5.052770296058059
1733513596297133800,7.2581337890625,2.234435022700578,10.670578029131889,5.18355999148488
1733513596307210000,7.2682099609375,1.4329701717443764,8.038557208415865,4.7906806175947185
1733513596317284900,7.278284912109375,0.2711702260196209,3.627033728829026,3.9699975636884566
1733513596327360800,7.28836083984375,-0.9827578221738338,0.25271920804977416,3.476026005759835
1733513596337437000,7.29843701171875,-1.7096107919991015,-2.141909153085947,3.388503205129504
1733513596347512000,7.308511962890625,-2.0654747327029703,-4.152774928244948,3.4759283906042575
1733513596357587700,7.318587646484375,-1.7161258729815483,-5.27073032541573,3.5623739173918962
1733513596367663900,7.328663818359375,-1.072667810201645,-5.846430610743164,3.6174516614913936
1733513596377739000,7.338739013671875,-0.34579087497889993,-6.373281232705712,3.466528109574318
1733513596387815000,7.34881494140625,1.2258821034044027,-6.466605997613072,3.199838828361034
1733513596397890800,7.358890869140625,3.0535955432146786,-6.102497960177064,2.8921602418944237
1733513596407966000,7.368966064453125,4.167473900204897,-5.111497794836759,2.3455387515351176
1733513596418041900,7.379041748046875,5.59180995298624,-2.899016975921392,1.7527306795403361
1733513596428118000,7.389117919921875,7.107834109383821,-0.09130582630038261,0.8685059315066784
1733513596438193000,7.39919287109375,7.655272176823019,2.3936761749774216,-0.6027855318581685
1733513596448268800,7.409268798828125,7.16897042286992,4.091497744983434,-2.103944017959386
1733513596458345000,7.419344970703125,6.172306240418553,4.713611406439543,-2.91846431145221
1733513596468419800,7.429419921875,5.040550281432271,4.611569082069397,-3.2999288496196266
1733513596478495700,7.439495849609375,4.1733980295568704,3.8651474884212016,-3.4461923007711768
1733513596488572000,7.449572021484375,3.777620011615753,2.8290099582374095,-3.4348104905351993
1733513596498647000,7.45964697265625,3.645506374108791,1.9523112948596477,-3.017169600354135
1733513596508722700,7.46972265625,3.3722692786872384,0.8447568801939487,-2.745247971445322
1733513596518798800,7.479798828125,2.115759397307038,0.06669102500379086,-3.0741555161625147
1733513596528874000,7.4898740234375,0.4647100998699665,-0.5052589678794145,-3.77259926084429
1733513596538950000,7.499949951171875,-0.8370504705350845,-1.6034744763135909,-3.903067469231784
1733513596549026000,7.510026123046875,-1.723809997743368,-2.4412375520974394,-3.798994223555922
1733513596559101000,7.520100830078125,-2.3652537980914112,-2.836204253655672,-3.723724755299091
1733513596569176800,7.5301767578125,-2.7418752801418305,-2.669410932433605,-3.563345977294445
1733513596579253000,7.5402529296875,-2.9582804812729355,-1.8463889141857623,-3.1682635404020547
1733513596589328000,7.550327880859375,-3.1507810752034184,-0.7351087569952011,-2.6739386389911175
1733513596599403800,7.56040380859375,-3.3841350730478763,0.3746469671070575,-2.294059178058058
1733513596609480000,7.57047998046875,-3.5268709345951677,1.091309966829419,-2.2609170791737734
1733513596619555000,7.58055517578125,-3.412600704553723,1.6389654764115809,-2.258147468329966
1733513596629630700,7.590630615234375,-3.1128596330881115,1.690256687709689,-2.3477162417046724
1733513596639705900,7.600705810546875,-2.7739830675423143,1.3439397430300712,-2.3763998998753726
1733513596649782000,7.610781982421875,-2.5341771170794964,0.6542874998301267,-2.2085130843281746
1733513596659858000,7.62085791015625,-2.4754163005530834,-0.12684534171521664,-1.9184512569643557
1733513596669932800,7.630932861328125,-2.5865374189138413,-0.7482955708265304,-1.6565471642009912
1733513596680009000,7.641009033203125,-2.7583982526585458,-0.9395610700041055,-1.4296796057663856
1733513596690084900,7.6510849609375,-2.869511479973793,-0.8825456358402967,-1.1701732217945158
1733513596700159700,7.66115966796875,-2.936211272805929,-0.7241846273988485,-0.7979244018703698
1733513596710236000,7.67123583984375,-2.949005287927389,-0.41571956672966476,-0.40757988022007047
1733513596720311800,7.681311767578125,-2.9068925316020846,-0.10869242990911006,-0.1289046305988915
1733513596730387000,7.691386962890625,-2.853798362535238,0.1565834773749113,0.01713193472791463
1733513596740462800,7.701462890625,-2.7907068233281374,0.352463776871562,0.07300935957143083
1733513596750538800,7.711538818359375,-2.6856416440054773,0.4907184013515711,0.06570294554820284
1733513596760614000,7.72161376953125,-2.545781922416389,0.5530056384384632,0.04093764813132584
1733513596770690000,7.73168994140625,-2.383227553938329,0.6058095923870802,0.07087442990196868
1733513596780766000,7.741765869140625,-2.2296705847777427,0.5514987410068511,0.11963243292802944
1733513596790840800,7.7518408203125,-2.100432941098511,0.4654962818115949,0.14891319847535342
1733513596800917000,7.7619169921875,-2.0165492276228965,0.5190098453342914,0.07931494425535202
1733513596810993000,7.771992919921875,-2.0761786436773835,0.7235778936773538,-0.09996336267162113
1733513596821067800,7.78206787109375,-2.2753730361580846,0.8565081082642078,-0.3056778045708313
1733513596831144000,7.79214404296875,-2.534386375916004,0.905258987429738,-0.5941532029934227
1733513596841219800,7.8022197265625,-2.779488971482217,0.991685224995017,-0.9352847078591585
1733513596851295000,7.812294921875,-2.980020603916049,1.261637307396531,-1.4165370694682
1733513596861371000,7.822370849609375,-3.1071815874516964,1.8111919285982847,-1.962033793581277
1733513596871446800,7.83244677734375,-3.110032008446753,2.765708575671911,-2.4556857641667125
1733513596881522000,7.84252197265625,-2.967213144791126,4.083431927427649,-2.909435201822221
1733513596891598000,7.85259814453125,-2.8760227615639566,5.400955957219004,-3.2953385992199182
1733513596901673700,7.862673828125,-3.057585781894624,6.240341081246734,-3.757727562665939
1733513596911748900,7.872748779296875,-3.56477221070528,6.495317712834477,-4.3464431046500795
1733513596921825000,7.882824951171875,-4.27427657084465,6.535559706851839,-4.947309687677025
1733513596931901000,7.89290087890625,-5.060822085088491,6.611861440765857,-5.381058832094073
1733513596941975800,7.902975830078125,-5.970176817399263,6.6125190278917545,-5.492313221445679
1733513596952052000,7.913052001953125,-10.096557659715414,6.402941626954078,-4.582631156876683
1733513596962128000,7.9231279296875,-20.24141319413185,5.573279440039396,-1.3967393130645156
1733513596972203000,7.933203125,-23.802388350641728,4.274728990787268,0.8099738822348416
1733513596982279000,7.94327880859375,-16.696569672733546,2.870940051472187,1.49331986489743
1733513596992353800,7.953353759765625,-8.822029891085624,2.370741874113679,2.2252722036883235
1733513597002430000,7.963429931640625,-3.705899175751209,2.57141408406198,2.7242060601994393
1733513597012506000,7.973506103515625,-0.5929845976054668,3.0083523799091574,3.090146573759615
1733513597022580700,7.983580810546875,1.53611665796414,3.1797856358915566,2.95799289650321
1733513597032657000,7.993656982421875,3.1299896315872666,3.4169887103796004,2.3577695798158644
1733513597042733000,8.003733154296874,4.625815634086728,4.202582038465142,2.088001621809602
1733513597052807700,8.0138076171875,6.551335368132591,4.874537296932935,1.962153328307718
1733513597062883800,8.0238837890625,9.646576342421769,5.3088984357684845,1.8511141891419887
1733513597072960000,8.0339599609375,12.67844228438735,5.4917316221654415,1.5569522329829633
1733513597083035000,8.044034912109375,13.499067762887478,5.077399710401893,1.576953841395676
1733513597093110800,8.05411083984375,11.565149033808707,4.509202348050475,1.1506254215639085
1733513597103187000,8.06418701171875,9.040846829533576,3.5753684235215184,0.19410116099491714
1733513597113261800,8.07426171875,7.545027256774902,2.6518659233927724,-0.6587728285506367
1733513597123338000,8.084337890625,6.394271998286247,1.7311305498898029,-0.8070408975228667
1733513597133414000,8.094413818359374,5.564759448975324,0.7600643345534801,-0.6171158531688153
1733513597143488800,8.10448876953125,5.1799552449911825,0.15898995399475097,-0.4320723703112453
1733513597153565000,8.11456494140625,5.054505741548538,-0.3105301765054464,-0.4316732879910618
1733513597163641000,8.12464111328125,4.874919866509735,-0.5481669662356377,-0.7225823067687451
1733513597173715700,8.1347158203125,4.443458833029866,-0.5139110608905554,-1.098086036835611
1733513597183791900,8.1447919921875,3.730093705809116,-0.5635112503618002,-1.44882503574118
1733513597193868000,8.154867919921875,2.790958752262592,-0.6780997525721788,-1.8705897278539836
1733513597203943000,8.16494287109375,1.4458745153725145,-0.6998182479053735,-2.3233999849632383
1733513597214018800,8.175018798828125,-0.6365833547048271,-0.6781687261551618,-2.4283570277363062
1733513597224095000,8.185094970703124,-1.5185504600048065,-0.4207862024694681,-2.2202643123984336
1733513597234169900,8.195169921875,-0.40972471022903917,-0.06860416514873505,-1.799946896484494
1733513597244246000,8.20524609375,1.4927259906575083,0.04700198967158794,-1.1517066409293562
1733513597254322000,8.215322021484376,3.509908986139297,-0.047238721036911006,-0.6361814959056675
1733513597264396800,8.225396728515625,5.379484714645147,-0.45526656422019,-0.2690761032845825
1733513597274474000,8.235473876953124,7.05848701789081,-1.1461983258366584,-0.037404067177698015
1733513597284550000,8.2455498046875,8.113809725537896,-1.8260557357311247,0.15803572200983762
1733513597294625000,8.255625,8.57024357997179,-2.5353870773911473,0.3602771540362388
1733513597304701200,8.265701171875,8.468474227324128,-3.393749873611331,0.5779313323151319
1733513597314776000,8.275776123046874,8.019867120993137,-4.267328943663835,0.8229246953532099
1733513597324852000,8.28585205078125,7.425873638606071,-4.936189158725738,1.0495102219760417
1733513597334928100,8.29592822265625,6.778209356307983,-5.364290068122744,1.3154412321679294
1733513597345003000,8.3060029296875,6.236815245208144,-5.628968594035506,1.6758634206980465
1733513597355079000,8.316078857421875,5.68765225367248,-5.622686737287045,2.2020652233630416
1733513597365155000,8.326155029296874,5.150352133888006,-5.4259045205146075,2.7085084325909614
1733513597375230000,8.33622998046875,4.639132211777568,-5.10161236063838,3.230255593934655
1733513597385306000,8.34630615234375,4.057359620799124,-4.398724788290262,3.8392701198428867
1733513597395382000,8.356382080078125,2.395415712121129,-2.907180408632755,4.41364763213396
1733513597405457000,8.366456787109374,-1.1059542859926819,-0.7048404599815606,4.674396709643304
1733513597415533000,8.376532958984376,-5.748777461242676,1.8881027343213557,4.2677907159566875
1733513597425609200,8.386609130859375,-9.471932307699323,4.694615614068508,3.3731787947475906
1733513597435683800,8.396683837890626,-10.236635992491244,6.170296069639921,1.9637302222356199
1733513597445760000,8.406760009765625,-10.624711765491961,5.90884235099256,-0.011023352187126875
1733513597455836200,8.416836181640624,-12.47719022872448,4.924833651974797,-2.277236638072878
1733513597465910800,8.426910888671875,-11.566993784892558,2.9466175160080192,-3.922292101922631
1733513597475987000,8.436987060546874,-7.407496270394325,0.6281430047482252,-4.113006981480122
1733513597486063000,8.44706298828125,-3.3864714070409536,-0.8473065646767616,-3.048012774646282
1733513597496138000,8.457137939453125,-0.5473170714080333,-1.0785364099740982,-1.7102520125120877
1733513597506214000,8.4672138671875,1.3971636759564279,-0.7028086618930101,-0.5507260030686855
1733513597516290000,8.4772900390625,2.2387053934961556,-0.3069529025405645,0.24356391475684938
1733513597526365000,8.487364990234376,2.566699622760713,-0.18880232393443583,0.9748304632406681
1733513597536441000,8.497441162109375,2.6149381684899327,0.3318623028695583,1.9722268324241041
1733513597546517200,8.507517333984374,2.719874168474972,1.8551713555783031,3.0592391020596024
1733513597556591900,8.517591796875,3.0018326227515932,3.873194601276517,3.8603018019557
1733513597566668000,8.52766796875,3.2818931344524023,6.190163968670368,4.543612567174434
1733513597576744200,8.537744140625,3.2049516413301227,8.185930958896876,4.847120882219076
1733513597586818800,8.54781884765625,2.704446589979529,9.099152303507923,4.574388521449268
1733513597596895000,8.55789501953125,1.9771815322220325,9.26089301751554,4.175963788391649
1733513597606971100,8.56797119140625,1.1388638912953435,7.498453137126565,3.1970950826108453
1733513597617046000,8.5780458984375,0.47890287587344643,3.2698575364828106,1.836744741397351
1733513597627122000,8.588121826171875,0.3251787334524095,-0.47795361232459543,1.3893272832423447
1733513597637197000,8.598197021484374,0.41935412383973597,-2.901266800674796,1.4445339144185185
1733513597647273000,8.60827294921875,0.5725409445136785,-4.463326732060313,1.5653689098030328
1733513597657349000,8.61834912109375,1.1318648261882365,-5.128804903468489,1.6763336685582995
1733513597667424000,8.628424072265625,2.47454594745934,-5.304364883992076,1.818830168391764
1733513597677500000,8.6385,4.618682128944993,-5.152195131406188,1.8681942110195755
1733513597687576000,8.648576171875,6.4319397579014295,-4.755557866287231,1.709190228499472
1733513597697651000,8.65865087890625,6.763712044399976,-4.022869614437222,1.537332463494688
1733513597707726800,8.668726806640626,6.583029898557067,-2.711269129475951,0.8540924984898418
1733513597717803000,8.678802978515625,6.3589277131825686,-0.7222036827147007,-0.042975026577292005
1733513597727878100,8.688878173828124,6.091922790148854,1.1737421663224696,-1.1164419969331472
1733513597737954000,8.6989541015625,5.848511508670449,2.7841268604159355,-2.548955584016442
1733513597748030000,8.709030029296875,5.742260626694559,3.777750359997153,-4.257409022673964
1733513597758105000,8.71910498046875,4.3484938997000455,3.4706115794956682,-4.5074408913359045
1733513597768181000,8.729180908203125,2.80879193059504,2.6758734064459797,-3.826251648315787
1733513597778257200,8.739257080078126,2.0200778401404618,1.4493816467106342,-2.736322029928863
1733513597788332000,8.74933203125,2.158857949799299,0.3980816187083721,-2.2908418234467507
1733513597798408000,8.759407958984376,1.2071972766786814,-0.0313140066742897,-2.914522880350053
1733513597808484000,8.769484130859375,-0.5208721320748328,-0.003495440900325775,-3.8601621012240646
1733513597818559000,8.77955908203125,-1.819693799483776,0.1756055732309818,-4.443187907133996
1733513597828635000,8.789634765625,-2.61977333356142,0.10916180098652839,-4.168183217518031
1733513597838711000,8.7997109375,-2.859365349012613,0.02473112115263939,-3.819621416521072
1733513597848786200,8.8097861328125,-2.908939819520712,-0.3973030355513096,-3.210668849933147
1733513597858861800,8.81986181640625,-2.983587941008806,-0.6525187365919352,-2.641950678578019
1733513597868938000,8.82993798828125,-3.0688474728822706,-0.4502747472822666,-2.5190631345778702
1733513597879013000,8.84001318359375,-3.2590672623991965,0.00946224035024643,-2.568264095598459
1733513597889089000,8.850089111328124,-3.5303953093290326,0.4478127410829067,-2.3974051323726773
1733513597899165000,8.8601650390625,-3.5979558106437324,0.6750315971732139,-2.1861568756133316
1733513597909240000,8.870239990234374,-3.4510230819284913,0.5073585705071687,-2.0161226727738977
1733513597919316000,8.88031591796875,-3.1717443682551383,-0.09171616066694259,-1.952618168851733
1733513597929392000,8.89039208984375,-2.9534231043696404,-0.9752397016286849,-2.0244351585671305
1733513597939467000,8.900467041015625,-2.6882874823391436,-1.4056892199784516,-1.8011010349556802
1733513597949543000,8.91054296875,-2.5066382450297473,-1.423051858189702,-1.404892224381864
1733513597959619000,8.920619140625,-2.553746909946203,-1.1123077466726303,-1.05939317195639
1733513597969694200,8.930694091796875,-2.6137773080170152,-0.6428343779236078,-0.7623081679575144
1733513597979769900,8.940769775390624,-2.638117968547344,-0.2622159351915121,-0.520908883888647
1733513597989845000,8.950844970703125,-2.6135961062312125,-0.02351590014398098,-0.3037402241043746
1733513597999921200,8.960921142578124,-2.519379360920191,0.05827040266096591,-0.1052382343346253
1733513598009997000,8.9709970703125,-2.26441558881402,0.06666238343119621,0.07284724607858807
1733513598020072000,8.981072021484374,-1.9268786013089119,0.13460896145403384,0.27906850498877467
1733513598030148000,8.991148193359376,-1.5824290579363702,0.22216449531018734,0.49340442556515335
1733513598040224000,9.00122412109375,-1.3393734580278396,0.3421159858584404,0.6264437265496701
1733513598050299000,9.011298828125,-1.3697335249781608,0.3994657665431499,0.735243197029829
1733513598060375000,9.021375,-1.5967276324018835,0.38075112920105453,0.7911264853585511
1733513598070451000,9.031450927734374,-1.8851450535595415,0.4256482555478811,0.7159906534187496
1733513598080526000,9.041526123046875,-2.223110934001207,0.5456459233254194,0.6274499079175293
1733513598090602000,9.05160205078125,-2.6311557283192872,0.530167199164629,0.4946260763145983
1733513598100678000,9.061677978515625,-2.970533521385491,0.6061030223757028,0.15078757751248775
1733513598110753000,9.0717529296875,-3.3187472395971414,0.7802373540103436,-0.27987003063000737
1733513598120829200,9.0818291015625,-3.6395454198777673,1.1699971345752478,-0.8630142752878367
1733513598130904800,9.09190478515625,-3.849851427350938,1.9714508796155452,-1.6090402937471866
1733513598140980000,9.10197998046875,-3.9324443703636525,3.353870283165574,-2.4397559352375566
1733513598151056100,9.11205615234375,-3.974387323080003,5.135827933973074,-3.3754169290632006
1733513598161132000,9.122132080078124,-4.079600386440753,6.845457430672645,-4.459438784711063
1733513598171207000,9.13220703125,-4.458002322167158,7.989645001208782,-5.612820007789135
1733513598181283000,9.142282958984374,-5.088655848431587,8.497907242557407,-6.7496198061615225
1733513598191359000,9.15235888671875,-6.135751995003223,8.54491800005734,-7.897659375950694
1733513598201434000,9.16243408203125,-10.023590623182058,7.808878684213757,-8.67013311022222
1733513598211510000,9.172510009765626,-17.31128211802244,6.478462439623475,-7.079918512976169
1733513598221586000,9.1825859375,-21.21738939334154,5.652883138108253,-4.719700955486298
1733513598231661000,9.1926611328125,-16.453910086405276,5.1225873441278935,-3.394925639392435
1733513598241737200,9.2027373046875,-9.522170210552215,4.739615616267919,-1.8185143804408608
1733513598251812900,9.212812744140624,-4.238660483062267,4.5308916172891855,-0.05127881760741584
1733513598261888000,9.222887939453125,-1.1467151893176137,4.414800309300422,1.668894020076841
1733513598271964200,9.232964111328124,1.0484218422174454,4.503679785236716,2.9949910862937568
1733513598282038300,9.243038330078125,3.257870161569118,4.527117359447479,3.4618937277719377
1733513598292114200,9.2531142578125,5.3413376470804215,4.569871044024825,3.599552724446356
1733513598302190300,9.2631904296875,7.664723895779251,4.665989239042997,3.3880443554461
1733513598312265200,9.27326513671875,10.878735626399516,5.080155731111764,2.9182018611237406
1733513598322341000,9.283341064453126,14.547743287605046,5.621757932004332,2.4386732545673846
1733513598332417300,9.293417236328125,15.207573808515072,5.404073212456703,2.6013781374320386
1733513598342492400,9.303492431640626,13.481880481243133,4.694570021361113,2.9792022732704875
1733513598352568000,9.313568115234375,10.992898596674204,3.3437118772447105,2.575497261722386
1733513598362644200,9.323644287109374,8.644996915400029,1.8628712624311445,1.781227875228226
1733513598372719400,9.33371923828125,7.012413248980045,0.5571826318621635,1.4313603984601795
1733513598382795300,9.343795166015624,6.007037936806679,-0.2649702023357153,1.232627924402803
1733513598392871200,9.35387109375,5.553995478376746,-0.7241641691327094,1.0528555868811904
1733513598402946300,9.3639462890625,5.51778843896389,-1.0151216301620005,0.7591883554365485
1733513598413022200,9.374022216796876,5.5353439693987365,-1.0935253047913311,0.4567901935908943
1733513598423098400,9.384098388671875,5.392513707566261,-0.9484978251755237,0.1043586384885013
1733513598433173200,9.39417333984375,4.889973643256724,-0.5415992782831192,-0.28384141847901045
1733513598443249200,9.404249267578125,4.145969924405217,-0.18170038297474383,-0.9077386754162609
1733513598453325300,9.4143251953125,3.321154592999816,0.10811258419454096,-1.8770802589170634
1733513598463400200,9.424400146484375,2.169492448799312,0.16677286295592783,-2.963216476370394
1733513598473476000,9.43447607421875,0.8047697377204894,-0.19477438408136366,-3.9785587635457516
1733513598483552300,9.44455224609375,0.14178162956237791,-0.7439081495225429,-4.599143023477494
1733513598493627400,9.45462744140625,0.8514303666085005,-1.2763356948345899,-4.391458596679568
1733513598503703000,9.464703125,2.128124373361468,-1.7377403234183788,-3.6259272288918494
1733513598513779200,9.474779296875,3.543921438117325,-2.066702813193202,-2.620549870891869
1733513598523854300,9.484854248046876,4.787345627953112,-2.237762559688091,-1.7839190140083432
1733513598533930200,9.49493017578125,5.778235610917211,-2.3364485593676565,-1.0670289275318383
1733513598544006400,9.50500634765625,6.551823443910479,-2.478654551821947,-0.42503545741178095
1733513598554081300,9.515081298828125,7.030049443435669,-2.658515444409847,0.17385573388896883
1733513598564157200,9.5251572265625,7.187189970171451,-2.818424851337075,0.6955033803809434
1733513598574233300,9.5352333984375,7.045816921409964,-3.123208008623123,1.230058366175741
1733513598584308200,9.54530810546875,6.66260320148766,-3.429506831169128,1.793141308122873
1733513598594384100,9.555384033203126,6.171585524928569,-3.5884120294898745,2.3450496528439224
1733513598604459300,9.565459228515625,5.524536744180321,-3.534575809884071,2.962129265655577
1733513598614535400,9.575535400390624,4.619458666275442,-3.211150495970249,3.731396020579338
1733513598624611000,9.585611083984375,3.1144410570606587,-2.6845763528615234,4.760999765080213
1733513598634686200,9.595686279296874,-1.6017741021364926,-1.6417863790512084,6.857358296346664
1733513598644762400,9.605762451171875,-8.519999247378111,0.16358604961335657,9.758814482113719
1733513598654838300,9.61583837890625,-8.216123268064855,1.16335345877707,9.829912802165746
1733513598664913200,9.6259130859375,-5.1379550091296435,0.6637532473117113,7.785536971592903
1733513598674989300,9.6359892578125,-3.907209975863993,-0.04155599922537803,5.663264246869087
1733513598685065200,9.646065185546876,-3.5455621910616753,-0.20476737030744552,3.8702012646794315
1733513598695140000,9.65614013671875,-3.2659307184278963,-0.1841238107293844,1.959549867811054
1733513598705216300,9.66621630859375,-2.5571926664859057,-0.3460720300078392,0.047145051404088735
1733513598715292200,9.676292236328125,-1.577890245462954,-0.5299947652071714,-1.5079533704057335
1733513598725367300,9.6863671875,-1.0858356270715595,-0.3632254093825817,-2.630484697189927
1733513598735443200,9.696443115234375,-1.3720318650484085,0.03376490695774555,-3.6951872276008126
1733513598745519000,9.70651904296875,-2.2387691063821316,0.5386339987367391,-5.043915958473086
1733513598755594200,9.71659423828125,-2.53474819496572,0.9746317988634109,-6.204435655128956
1733513598765670400,9.72667041015625,-1.510481135317683,0.9269231222271919,-6.098164314886927
1733513598775746300,9.736746337890626,-0.23339316081106662,0.21406886713802814,-4.812218495664
1733513598785821200,9.7468212890625,0.6169131702035665,-0.9109808722078799,-3.2085496658220887
1733513598795897300,9.7568974609375,1.402201085601747,-2.0380191550225017,-1.8582446255438028
1733513598805973200,9.76697314453125,2.1594266895979644,-2.697572612556815,-0.9129236768387258
1733513598816048000,9.777048095703124,2.5184642919018865,-2.434016953194141,-0.0025058453410863875
1733513598826124300,9.787124267578125,2.5483266384631396,-0.9213742559283972,1.074799269272387
1733513598836200200,9.7972001953125,2.856085012167692,2.1193559604942798,2.244694258647412
1733513598846275300,9.807275390625,3.3259441653639077,5.910772442272306,3.2413533265322445
1733513598856351200,9.817351318359375,3.503631513305008,9.426814232078193,4.085087877941131
1733513598866427100,9.82742724609375,3.2140158222734927,12.235709038525819,4.69117979440093
1733513598876502300,9.837502197265625,2.7773212720543143,14.017602976447343,4.664759404987096
1733513598886578400,9.847578369140624,1.4786013114541767,13.228335928285121,4.028205130246281
1733513598896654000,9.857654052734375,-1.4099666050367057,8.380918108946085,2.806774161031842
1733513598906729200,9.867729248046874,-3.4565789624899623,2.29492646241188,1.7900649694174526
1733513598916805400,9.877805419921875,-3.187903475895524,-1.7078899595558643,1.707292432054132
1733513598926880000,9.8878798828125,-2.3682974035710096,-3.9060248577326533,1.8108654731228946
1733513598936956200,9.8979560546875,-2.2326088301867246,-5.308379964852333,1.9922716954566537
1733513598947032300,9.9080322265625,-2.2761919513255355,-5.829750109577178,2.1967674092158673
1733513598957107200,9.918107177734376,-1.8931044881314039,-5.501136579370498,2.492820732079446
1733513598967183000,9.92818310546875,-1.3554501480817793,-5.3320022479802365,2.7915952966004607
1733513598977259300,9.93825927734375,-0.7241372811257839,-5.204806777653098,3.0000118370652196
1733513598987334100,9.948334228515625,0.16420505829453466,-4.667059498623013,3.1942227420449254
1733513598997410300,9.958410400390624,1.3889578654080628,-3.4303070416361092,3.354546867252886
1733513599007486500,9.968486572265626,2.199295174127817,-1.618174032795429,3.393058968737721
1733513599017561000,9.97856103515625,3.138989515122771,0.4881786537408828,2.894907202515006
1733513599027637200,9.98863720703125,4.359336780753732,2.310321015420556,2.153775824229419
1733513599037713400,9.99871337890625,5.753647113105655,3.531670736092329,1.1075349793128668
1733513599047788000,10.0087880859375,6.760075149202346,3.7064801905095575,-0.17360212445408105
1733513599057864200,10.0188642578125,6.670421766284107,2.8911627552896735,-1.4053424523673952
1733513599067940400,10.0289404296875,5.640988117653131,1.6990829682439565,-1.7104244464695453
1733513599078015200,10.03901513671875,4.351420600801706,0.6726227824658155,-1.2797504717141388
1733513599088091100,10.049091064453124,3.3875179934844373,-0.18552900135219097,-0.9694351070031523
1733513599098167300,10.059167236328125,2.854067242604494,-0.717587128829956,-0.9990737278111278
1733513599108242200,10.0692421875,2.7569793257713315,-0.940973859411478,-1.5861707286827265
1733513599118318300,10.079318359375,2.777999317446351,-0.8333096035063267,-2.740359322620928
1733513599128394200,10.089394287109375,2.648694892141223,-0.5506009153842926,-3.705737263187766
1733513599138469000,10.09946923828125,2.4587983432292937,-0.12442775917947292,-4.1991988257676365
1733513599148545300,10.109545166015625,2.005461870288849,0.2859346644312143,-4.443854554349183
1733513599158621200,10.11962109375,1.1251625520706177,0.4254226300984621,-4.311816027905047
1733513599168696000,10.129696044921875,0.08369999093916267,0.4569745371818542,-3.8971711046695705
1733513599178772200,10.139772216796874,-0.9709563982862979,0.4792261164784431,-3.4244410722121597
1733513599188848400,10.149848388671876,-1.8337340152740478,0.46291152601540086,-3.033368747743964
1733513599198923300,10.15992333984375,-2.3848551551401616,0.4291033644378185,-2.670997617103159
1733513599208999200,10.169999267578126,-2.7001626290500162,0.1522743820041418,-2.2864133394800126
1733513599219074300,10.18007421875,-2.8063761016249655,-0.4111439293771982,-1.9583114120572804
1733513599229150200,10.190150146484376,-2.78320448487401,-0.9436994849830865,-1.6555314112871884
1733513599239226400,10.200226318359375,-2.6056770036697388,-1.1863678391397,-1.4916206597641108
1733513599249301200,10.21030126953125,-2.3997698156774043,-1.088982400664687,-1.3427011411458254
1733513599259377200,10.220377197265625,-2.2932921392083165,-0.6165770701169967,-1.199366729183495
1733513599269453300,10.230453369140625,-2.3890428160883483,0.049343584361672396,-0.9548455137018114
1733513599279528400,10.240528564453125,-2.7240286578059196,0.7158475916862488,-0.6652914897296577
1733513599289604400,10.250604248046875,-3.1197873865246772,1.217346914771199,-0.5300198631158098
1733513599299680500,10.260680419921876,-3.4429344680190086,1.3783826953798533,-0.49754280401151624
1733513599309755600,10.270755615234375,-3.642272799015045,1.2212965291798115,-0.43611532555911686
1733513599319831300,10.280831298828126,-3.7048797695755957,0.918252324515581,-0.2872097989335656
1733513599329907500,10.290907470703125,-3.6796582345575093,0.5483423228025436,-0.10112310889968648
1733513599339982600,10.300982666015624,-3.7260125739753245,0.3021884646177292,0.07883571850419975
1733513599350058500,10.31105859375,-3.898577172075212,0.2723357626676559,0.19448387670218945
1733513599360134400,10.321134521484375,-4.180423105888068,0.41418052059412,0.19321743696294724
1733513599370209500,10.33120947265625,-4.472663300204276,0.5782277579784393,0.11759453389225527
1733513599380285400,10.341285400390625,-4.758935233765841,0.6913251448482275,0.11881307023600675
1733513599390361600,10.351361572265626,-4.923542443120479,0.7149561958044767,0.001678582470398396
1733513599400436500,10.3614365234375,-4.907164139771461,0.5839736081540584,-0.32209256747271864
1733513599410512400,10.371512451171874,-4.819171091280877,0.4297796562641859,-0.5899161499455571
1733513599420588500,10.381588623046875,-4.6560433068290354,0.4056231201291084,-0.791050570578128
1733513599430663700,10.39166357421875,-4.427559545369446,0.5214730205774307,-1.0181509879205375
1733513599440739300,10.4017392578125,-4.075105705370008,0.7921031483709812,-1.325562374818325
1733513599450815500,10.4118154296875,-3.580969312268495,1.1898352229893208,-1.5902303793370722
1733513599460890600,10.421890625,-2.953344778436422,1.6216186202913523,-1.7128779771015048
1733513599470966500,10.431966552734375,-2.27669668597728,2.056892197796702,-1.7308944030463695
1733513599481042400,10.44204248046875,-1.7296227756753564,2.4353221905738116,-1.6806487552784382
1733513599491117600,10.45211767578125,-1.5314789151608943,2.9171675496399403,-1.6384703863710164
1733513599501193500,10.462193359375,-1.6565195455417037,3.6405560582250356,-1.7727859178364276
1733513599511269600,10.47226953125,-1.9209855977475643,4.34124875087738,-2.087564399436116
1733513599521344500,10.482344482421874,-2.2022575310647485,4.824944121724367,-2.5971841928735375
1733513599531420400,10.49242041015625,-2.5978894185334442,5.073265387076139,-3.2268902091547846
1733513599541495600,10.50249560546875,-3.133420482818782,5.068137961059809,-3.830468681488931
1733513599551571500,10.512571533203126,-3.7853941527485846,5.109242709386349,-4.216182401533424
1733513599561647400,10.5226474609375,-5.08152468137741,4.9958460473090405,-4.181593026450276
1733513599571722500,10.532722412109376,-12.132570151090622,4.225464316880703,-2.5955562994107604
1733513599581798700,10.542798583984375,-21.972226933157444,3.0275580156385895,-0.09102005902840755
1733513599591874600,10.55287451171875,-21.514403670191765,1.6244266634494064,0.7077961679819971
1733513599601949400,10.562949462890625,-13.74979141320586,0.67410629902184,0.8719356136944144
1733513599612025600,10.573025634765624,-6.827537158578634,0.6170096163153648,1.3265436409406364
1733513599622101500,10.5831015625,-2.1353157461702823,1.240488136383891,1.3075376194365322
1733513599632176400,10.59317626953125,0.6840718127191067,1.759871491205692,1.1441907854065299
1733513599642252500,10.60325244140625,2.5278408997952937,2.2566455393344165,0.8878029718466103
1733513599652328400,10.613328369140625,3.9172728124558924,3.2267630756437775,0.5218377987692132
1733513599662403600,10.623403564453126,5.41892474462986,4.762793078237772,0.6108113827297463
1733513599672479500,10.6334794921875,7.917820704969763,6.356299118244648,0.5421444910757244
1733513599682555400,10.643555419921874,12.015670449328422,8.004133545288443,0.3978331969052553
1733513599692630500,10.653630615234375,14.209986665999889,9.290801249045133,0.4368622714689001
1733513599702706700,10.663706787109374,13.401872294026612,9.533231118270754,1.1287862955257295
1733513599712782300,10.6737822265625,11.549929252845049,8.916149605762959,1.2209811796203256
1733513599722857500,10.683857421875,9.714640409344435,7.195078093072771,0.26050383404400196
1733513599732933600,10.69393359375,7.770351677420735,4.548465852424502,0.011211970094405114
1733513599743009500,10.704009521484375,6.224298877984285,2.2942063314437866,0.21368582263719288
1733513599753084400,10.71408447265625,5.258215711757541,0.7707371197372674,0.33694643773343413
1733513599763160600,10.72416064453125,4.749354627732933,-0.2493704821437597,0.36013197341188785
1733513599773236500,10.734236572265624,4.361513540270924,-0.8321393906831741,0.36673842247221616
1733513599783311400,10.744311279296875,3.9525416942358014,-1.1748013199865817,0.4028205568637699
1733513599793387500,10.754387451171874,3.351731517571211,-1.3016209427386523,0.2937671116225421
1733513599803463400,10.76446337890625,2.6172251103833317,-1.4271762446433305,0.1105465333431959
1733513599813538600,10.77453857421875,1.8530396042466162,-1.499237272247672,-0.2281752800323069
1733513599823614700,10.78461474609375,1.0827543199300764,-1.5608096390634774,-0.7493465411841869
1733513599833689300,10.794689453125,0.7828545507714152,-1.6146370908409355,-1.28261082958132
1733513599843765500,10.804765625,1.5808602011844515,-1.5817220787107944,-1.4850595476828514
1733513599853841700,10.814841552734375,2.969110210584104,-1.5298329015195369,-1.4242740934610365
1733513599863916300,10.824916259765626,4.529603623305261,-1.7303922987431286,-0.9516787932991981
1733513599873992400,10.834992431640625,5.839958199858665,-2.046355021691322,-0.504743419572711
1733513599884068600,10.845068603515625,6.517787318795919,-2.395449614390731,-0.09894771935567259
1733513599894143500,10.8551435546875,6.937422597664594,-2.7316818029075858,0.33940943031348286
1733513599904219400,10.865219482421875,7.092018116092682,-3.0970149982243775,0.6639820145662874
1733513599914295600,10.875295654296876,6.9071157222062345,-3.573827623820305,0.9681699093729257
1733513599924370400,10.885370361328125,6.466918716824054,-4.109202328500151,1.2921185165084899
1733513599934446600,10.895446533203126,5.854436807066202,-4.597328959792852,1.6545619817331432
1733513599944522500,10.9055224609375,5.139513929009437,-4.852076458799838,2.0218819669529795
1733513599954597400,10.915597412109374,4.398654937924444,-4.803371172341704,2.5372464415222407
1733513599964673500,10.925673583984375,3.459272731618583,-4.353886114132404,3.2246476909250017
1733513599974749400,10.93574951171875,1.839436903090775,-3.602367489606142,4.064642179022729
1733513599984824300,10.94582421875,-0.9210489694967865,-2.4589988342374562,4.609923652949929
1733513599994900500,10.955900390625,-3.5093604123458264,-1.199514320960641,4.51713840174675
1733513600004976400,10.965976318359376,-4.759189793048799,-0.18307576298117637,4.34985612796396
1733513600015051300,10.97605126953125,-4.679842115567625,0.5456278031468391,3.9732787773162124
1733513600025127400,10.98612744140625,-3.9025121734365817,0.8998492373406887,3.276999517191946
1733513600035203600,10.99620361328125,-3.1975618233397602,1.0428846663564444,2.4124159467607735
1733513600045278500,11.006278564453124,-2.8754478842854496,0.9082295276731253,1.4034772430174052
1733513600055354600,11.016354736328125,-2.5956153361216185,0.6028063189178705,0.43430867799594997
1733513600065430500,11.026430419921875,-2.2257480045065283,0.287149300917983,-0.5291168133288622
1733513600075505400,11.03650537109375,-2.0780501366376876,0.0651730216562748,-1.4092702933356165
1733513600085581600,11.04658154296875,-2.8604212878063318,0.003330605727434158,-2.2785659869804977
1733513600095656400,11.056656494140626,-4.389601570636033,0.14073825798928738,-3.1592303391188383
1733513600105732400,11.066732421875,-5.0457425893783565,0.3171142310708761,-3.571161619481444
1733513600115808500,11.07680859375,-3.7384441855251787,0.260539526411891,-3.144540134987235
1733513600125883600,11.086883544921875,-1.2528379148691893,0.00043722237348556514,-2.262328845667839
1733513600135959300,11.096959228515624,0.5113941096335649,-0.35574119110703467,-1.3417008780620991
1733513600146035500,11.107035400390625,1.1649562177985906,-0.8120949660420417,-0.39598976099565625
1733513600156110600,11.117110595703124,1.748433566868305,-1.3520306950271128,0.5327979860596358
1733513600166186500,11.1271865234375,2.380367196071148,-1.7175930229246614,1.2618196782261133
1733513600176262400,11.137262451171875,2.6338328385740515,-1.2928209656894207,2.0363649580746888
1733513600186337500,11.147337646484376,2.8587431254610416,0.523994063487649,2.973165915715694
1733513600196413400,11.157413330078125,3.280605432729423,3.3335750986337658,3.9695892751485107
1733513600206489600,11.167489501953124,3.563746667049825,6.598631372314691,4.925590023300051
1733513600216564500,11.177564453125,3.285480637550354,10.268548549580574,5.7581029234707355
1733513600226640400,11.187640380859374,1.7350499152906238,13.356823191988468,5.811966031083465
1733513600236716500,11.197716552734375,-0.8932983543924987,13.84267077243328,4.260717124308646
1733513600246791400,11.20779150390625,-2.642649766758084,10.485256533050537,2.0801161292567847
1733513600256867300,11.217867431640625,-2.217009694516659,4.340867058083415,0.873078427053988
1733513600266943500,11.227943603515625,-1.4644265094988047,-0.10232640200853348,0.9529949904642998
1733513600277018600,11.2380185546875,-1.145111699643731,-2.713949162340164,1.1319932018082588
1733513600287094500,11.248094482421875,-1.23991179780066,-4.687021505677699,1.0385990249264985
1733513600297170700,11.258170654296874,-1.314974345308542,-6.172323191553354,0.8307425294972955
1733513600307245600,11.26824560546875,-1.2067208913385867,-6.708699766752123,0.880800034281984
1733513600317321500,11.278321533203124,-0.9678711456220597,-6.731848002627491,1.1023724819831549
1733513600327397600,11.288397705078125,-0.4900362643063068,-6.676668551719188,1.3493826647363603
1733513600337472800,11.29847265625,0.607535101005435,-6.203584591257572,1.4848621254146097
1733513600347548700,11.308548583984376,2.5931027687788006,-5.055200738075375,1.8515823911756275
1733513600357623600,11.31862353515625,4.517825799489021,-2.9746985321104527,2.0254506192199884
1733513600367699700,11.32869970703125,5.991939736396074,-0.39751697056293483,2.028326905308664
1733513600377775600,11.338775634765625,6.877731222289801,2.1102292357087133,1.9237153149724004
1733513600387850500,11.3488505859375,7.544858329948783,4.179057955014706,0.9464059674628078
1733513600397926700,11.3589267578125,7.573480613321065,5.448955725756287,-0.6498563124496489
1733513600408002600,11.36900244140625,6.926556335735321,5.50728808773756,-2.245813764196634
1733513600418077700,11.37907763671875,5.955329961401223,4.589519747346639,-3.5739950893417
1733513600428153600,11.389153564453125,4.916011463093757,3.146522833237052,-4.196287322235107
1733513600438229500,11.3992294921875,3.787010355773568,1.638608918058872,-3.676242288634181
1733513600448304600,11.4093046875,2.9667578022390604,0.17780454457998274,-2.753763286334276
1733513600458380800,11.419380859375,2.9032354703992604,-1.0853531042516231,-2.0769179177373647
1733513600468456400,11.42945654296875,2.5068700079590083,-1.8542898965686558,-2.1653356213808057
1733513600478531600,11.439531494140626,0.8392004151105881,-1.664746983399987,-2.8423601459369063
1733513600488607700,11.449607666015625,-0.922239932847023,-1.0949994689971208,-3.539022267898917
1733513600498683600,11.45968359375,-2.082785932987928,-0.5977712473601102,-3.7513431223258373
1733513600508758500,11.469758544921875,-2.9184733715415,-0.32635902927815913,-3.6213074601367112
1733513600518834700,11.479834716796875,-3.3695524209439753,-0.17626549844443798,-3.2644013169035313
1733513600528910600,11.48991064453125,-3.2874691810190675,-0.07255553312301635,-2.7398680319726467
1733513600538985500,11.4999853515625,-2.9926994682252404,-0.09221592688262462,-2.2541157285958526
1733513600549061600,11.5100615234375,-2.8234745359420774,-0.015504443123936652,-1.9149469021052121
1733513600559137500,11.520137451171875,-2.6996844901442527,0.0487292518556118,-1.7853459780715404
1733513600569212700,11.530212646484374,-2.650507494521141,0.0876940655440092,-1.7744044589489698
1733513600579288800,11.540288818359375,-2.6320202361941334,-0.020725392642617226,-1.7985161330290138
1733513600589364500,11.550364501953124,-2.4152000245213507,0.03225041074156761,-1.665475443805009
1733513600599439600,11.560439697265625,-2.3118894337810576,0.12458733365535736,-1.5735069158121942
1733513600609515800,11.570515869140625,-2.2259460112966596,0.10017419241070746,-1.5943386914387345
1733513600619591700,11.580591796875,-2.23619837911129,-0.007664251017570495,-1.659933737899363
1733513600629666600,11.59066650390625,-2.3041575243547556,-0.1386409934490919,-1.6241405399844049
1733513600639742700,11.60074267578125,-2.3724951475217937,-0.12202245160341262,-1.4268297692932188
1733513600649817600,11.610817626953125,-2.400410305538028,-0.023345804274082182,-1.123607285452634
1733513600659893500,11.6208935546875,-2.438620793727785,0.03979892642498016,-0.8714365781310945
1733513600669969700,11.6309697265625,-2.478128482121229,0.03723579793870449,-0.7134379001960158
1733513600680044500,11.64104443359375,-2.5144424890398978,0.0871019448697567,-0.5716513387301937
1733513600690120700,11.65112060546875,-2.535771985055506,0.23708617011010646,-0.4212750088997185
1733513600700196600,11.661196533203125,-2.5326786952152847,0.3961562036037445,-0.2540816189767793
1733513600710271500,11.671271484375,-2.5449825887322426,0.5326315434515476,-0.14359567498071119
1733513600720347600,11.68134765625,-2.6384265961050986,0.5900403608471155,-0.023086733212787657
1733513600730423800,11.691423828125,-2.7630998544782397,0.5774935984849929,0.07030696874493733
1733513600740498400,11.70149853515625,-2.930092789925635,0.5825456211775542,-0.0022336773362010716
1733513600750574600,11.71157470703125,-3.237359288460016,0.5684329246729612,-0.1156595655079931
1733513600760650800,11.721650634765625,-3.5989842769086358,0.4374444918036461,-0.3102733522001654
1733513600770725400,11.731725341796874,-3.8902617636725303,0.23291560642719267,-0.6444214279193431
1733513600780801500,11.741801513671875,-4.051871544776857,0.11158055256605148,-1.0961005621068178
1733513600790877700,11.751877685546875,-4.156166031987965,0.16168869155943394,-1.5472577913120389
1733513600800952600,11.76195263671875,-4.214685733234882,0.42074060976207256,-2.056925807805359
1733513600811028700,11.77202880859375,-4.135064499509334,1.150874500954151,-2.731864173737168
1733513600821104600,11.782104736328124,-3.7871380738064646,2.3769436513632534,-3.5176018787294625
1733513600831179500,11.792179443359375,-3.322715850967169,3.6117473123699426,-4.2116242998376485
1733513600841255700,11.802255615234374,-2.996368804387748,4.812639351424575,-4.900804249350727
1733513600851331600,11.81233154296875,-3.106551472854614,5.7455099838793275,-5.451791825965047
1733513600861406500,11.822406494140624,-3.7246789872840043,5.9394438254833215,-5.72993189099729
1733513600871482600,11.832482666015625,-4.692878415012359,5.647818255934119,-5.914141041922569
1733513600881558800,11.842558837890625,-5.789847138255834,5.44796262306571,-5.938150863063335
1733513600891633400,11.85263330078125,-8.739033627969025,5.319073208302259,-5.206387324842811
1733513600901709600,11.86270947265625,-13.72549283825159,5.30431987580657,-3.5704818205237387
1733513600911785700,11.87278564453125,-16.331622261863945,5.380067482969165,-2.3493027802437543
1733513600921860600,11.882860595703125,-14.95867269744873,5.033546540150046,-1.354653298615664
1733513600931936500,11.8929365234375,-9.996237336832284,4.4326381638079875,-0.24009914298942311
1733513600942011600,11.90301171875,-4.859219316291809,3.8146108948826787,0.8345468902163207
1733513600952087600,11.913087646484374,-1.5067350806571542,3.3041929368048906,1.5630163553275167
1733513600962163700,11.923163818359376,0.33990072096176444,2.911812160086632,1.7752812417834996
1733513600972238600,11.933238525390625,1.4323042551815508,2.7705180217802523,1.519391733134538
1733513600982314500,11.943314453125,3.132683692976832,3.11116510412991,1.0549502210728823
1733513600992390700,11.953390625,5.390117167818546,4.07056133993864,0.7870620854638516
1733513601002465800,11.9634658203125,7.683367805972695,5.325597057113051,0.8087246128261089
1733513601012541400,11.97354150390625,10.724331831151247,6.899117709189653,1.0295192810878158
1733513601022617600,11.98361767578125,13.6954484131217,7.904984019750356,1.401447636885941
1733513601032692700,11.993692626953125,14.519486330413818,7.520195013335346,2.185209073369205
1733513601042768600,12.0037685546875,12.97848321558237,6.2322016139328476,2.381010900802165
1733513601052844500,12.013844482421876,10.629876600909233,4.267515406146646,1.258815820235014
1733513601062919700,12.023919677734375,8.372685702651738,2.3859423658549783,0.4458037028154358
1733513601072995600,12.03399560546875,6.7123325702965255,0.9968132355332374,0.4886292105199769
1733513601083071700,12.04407177734375,5.534080233073234,-0.038892917495965955,0.7002735173922031
1733513601093146600,12.054146728515626,4.893704354217649,-0.6607552345395088,0.6970432302340864
1733513601103222500,12.064222412109375,4.573984909084439,-1.0811842941343783,0.6275273570679127
1733513601113298700,12.074298583984374,4.306387280854582,-1.493880713650584,0.5737398719746619
1733513601123373600,12.08437353515625,3.923971141050756,-1.757372660127282,0.406239534994401
1733513601133449500,12.094449462890625,3.3757828397661447,-1.7045236979931593,0.0644001375876367
1733513601143525600,12.104525634765626,2.5758614188596605,-1.6050585306346417,-0.3319582375247031
1733513601153600800,12.114600830078125,1.6099132771894336,-1.5192401958346367,-0.9080361970581113
1733513601163676400,12.124676513671876,-0.03702537005841732,-1.3402075707644223,-1.3732809883266686
1733513601173752600,12.134752685546875,-1.5723784963041543,-0.9435001630187034,-1.732838815112412
1733513601183827700,12.14482763671875,-1.069232282795012,-0.5226812273234128,-1.6367897398076952
1733513601193903600,12.154903564453125,0.5799895069539547,-0.37959260681569573,-1.1492713766064495
1733513601203979500,12.1649794921875,2.286209779731929,-0.5231131889998912,-0.6557194323293865
1733513601214054700,12.1750546875,3.913656667785346,-0.7713654807686805,-0.359777826211974
1733513601224130600,12.185130615234375,5.366209053486585,-1.1618179197728633,-0.16400025643743574
1733513601234205700,12.195205810546875,6.46903351702094,-1.6343296333044766,0.2006222333267331
1733513601244281600,12.205281494140625,7.213382396048307,-2.12696468193233,0.5915539802804589
1733513601254357500,12.215357421875,7.477105228671431,-2.643005740588903,1.0320183313619344
1733513601264432600,12.2254326171875,7.1385109871983525,-3.2213656005144116,1.4283885430425405
1733513601274508800,12.2355087890625,6.48822570874691,-3.876431683501601,1.7967121523469685
1733513601284584000,12.245583984375,5.780704046857356,-4.403604961547256,2.2605951537430284
1733513601294659000,12.2556591796875,5.016270995700359,-4.621020216503739,2.8808438981100917
1733513601304735200,12.2657353515625,4.105203029730916,-4.571962463346123,3.61890390612632
1733513601314811000,12.275810791015624,2.9692019805207845,-4.21530474191606,4.332158850970864
1733513601324886000,12.285885986328125,1.6431044759124516,-3.423121514046192,4.890782913812995
1733513601334962200,12.295962158203125,0.2357026067972183,-2.2398744372755286,5.034259656855464
1733513601345038000,12.3060380859375,-0.9890861484125256,-1.0699340013235807,4.4315243573471905
1733513601355113000,12.316113037109375,-2.0612311037838458,-0.12950550083518028,3.231945154456794
1733513601365189000,12.326189208984376,-3.0535283231973644,0.5869827268421649,1.8691747464895248
1733513601375265000,12.33626513671875,-3.9219183001741764,1.1042466052919626,0.499632214038819
1733513601385340200,12.346340087890624,-4.103041467782854,1.182673076274991,-0.6165361535847187
1733513601395416000,12.356416015625,-3.7099861528038978,0.9366752854347229,-1.4321582708396017
1733513601405492000,12.366491943359375,-3.114810182633996,0.7727659952163696,-2.0324759878121315
1733513601415567000,12.376567138671875,-3.186806912830472,0.7640653868883848,-2.6669386971011755
1733513601425643300,12.386643310546875,-3.9392607723802326,0.851791016614437,-3.3814126623466607
1733513601435719000,12.396718994140626,-4.50990085170865,0.831080237019062,-4.022597519497573
1733513601445794000,12.4067939453125,-4.015923156300187,0.6543114652276039,-4.223153994111716
1733513601455870200,12.4168701171875,-2.5206822602123022,0.469901238772273,-3.6629467537313696
1733513601465945000,12.426945068359375,-0.8806251891717314,0.4103203380346298,-2.553465754917264
1733513601476021000,12.43702099609375,0.44662762295156716,0.37327801684141154,-1.0767932195685803
1733513601486097200,12.44709716796875,1.5030489394903181,0.33011107528805733,0.3083285748079419
1733513601496172300,12.45717236328125,1.9100814880259334,0.43876901840567584,1.1158872125945984
1733513601506248000,12.467248046875,1.720410418432951,1.0220447074234484,1.8423951683744788
1733513601516324000,12.477323974609375,1.4526584764242172,2.3961194764763114,2.647738029807806
1733513601526399200,12.487399169921876,1.482402895694226,4.281211923065781,3.487734855993092
1733513601536475100,12.49747509765625,1.4815568002589046,6.2134606731057165,4.295030020537972
1733513601546551000,12.507551025390624,1.225243805500865,7.704518146029114,4.769100361688435
1733513601556626200,12.517626220703125,0.7605513874180615,8.715164092081785,4.810649346651137
1733513601566702000,12.5277021484375,0.23858020806014538,8.649846693518757,4.514751798871159
1733513601576778200,12.5377783203125,-0.4599859939575195,6.627072453901171,3.7830905519813296
1733513601586853000,12.54785302734375,-1.0229442866116762,3.0430589516311883,2.795134868903458
1733513601596929000,12.557928955078125,-1.282232351657748,-0.18309797481298445,2.32144256728515
1733513601607005200,12.568005126953125,-1.4523732297420502,-2.6774481084167956,2.178669734728336
1733513601617080300,12.578080322265626,-1.3569224125914274,-4.552450538146496,2.077937616173923
1733513601627156000,12.588156005859375,-0.9335154331643134,-5.52444614328742,2.11334093798846
1733513601637232000,12.598232177734374,-0.1803331132095307,-5.77741669574976,2.222251394562423
1733513601647307300,12.608307373046875,1.057923318599537,-5.879179618656635,2.3720947500273586
1733513601657383200,12.618383056640624,2.8646672548130154,-5.878614970511197,2.7709429691940546
1733513601667459000,12.628458984375,4.743188798579573,-5.358861613333225,2.7900758319482204
1733513601677534200,12.6385341796875,6.130090315979719,-4.0470933705896135,2.540728730680048
1733513601687610000,12.648610107421876,7.244809215447306,-1.8874188437104225,2.216317328338325
1733513601697686300,12.658686279296875,7.7486191535621876,0.6872931128531694,1.4551220900587736
1733513601707761200,12.66876123046875,7.573195366638898,2.843970211482048,0.09923694809321314
1733513601717837000,12.678837158203125,7.0478212469697,4.313524877649545,-1.688138818772882
1733513601727912200,12.688912109375,6.0090937002927065,5.129397608664632,-3.3223218832135197
