time,seconds_elapsed,z,y,x
1733513251307523300,0.0265234375,0.032226745039224625,0.7664506435394287,0.15902164578437805
1733513251317599200,0.03659912109375,-0.010191214270889759,0.9473451375961304,0.16318663954734802
1733513251327674400,0.04667431640625,-0.014342816546559334,1.0387152433395386,0.1400325894355774
1733513251337750500,0.05675048828125,-0.00697790551930666,1.06381094455719,0.09377501159906387
1733513251347825400,0.066825439453125,-0.010553998872637749,1.0668165683746338,-0.004010675475001335
1733513251357901300,0.0769013671875,-0.010698341764509678,1.0392557382583618,-0.1233767494559288
1733513251367976400,0.0869765625,0.011208289302885532,0.9859256148338318,-0.21820099651813507
1733513251378051300,0.09705126953125,0.030524730682373047,0.9112830758094788,-0.2563702166080475
1733513251388127200,0.107127197265625,0.038639381527900696,0.8175038695335388,-0.22098267078399658
1733513251398202400,0.117202392578125,0.035542406141757965,0.742954432964325,-0.12451548874378204
1733513251408278300,0.1272783203125,-0.0021826019510626793,0.7627268433570862,-0.0034292731434106827
1733513251418353400,0.137353515625,-0.043763067573308945,0.9121338129043579,0.10968021303415298
1733513251428429300,0.14742919921875,-0.07375585287809372,1.1628326177597046,0.19878344237804413
1733513251438504200,0.157504150390625,-0.0934915617108345,1.4305479526519775,0.28539684414863586
1733513251448580400,0.167580322265625,-0.10464514791965485,1.6756703853607178,0.38781189918518066
1733513251458655200,0.1776552734375,-0.10051566362380981,1.8733404874801636,0.48707056045532227
1733513251468731400,0.1877314453125,-0.10431306064128876,2.032071113586426,0.5874083638191223
1733513251478806300,0.19780615234375,-0.13101963698863983,2.1540889739990234,0.6789229512214661
1733513251488881400,0.20788134765625,-0.1822737604379654,2.2048487663269043,0.7501870393753052
1733513251498957300,0.217957275390625,-0.2408897429704666,2.2025563716888428,0.7591058611869812
1733513251509032200,0.2280322265625,-0.2937851846218109,2.1548311710357666,0.692470371723175
1733513251519108400,0.2381083984375,-0.31792593002319336,2.053321123123169,0.554239809513092
1733513251529183500,0.24818359375,-0.3046780526638031,1.915043830871582,0.36093398928642273
1733513251539259400,0.25825927734375,-0.2767980396747589,1.738232970237732,0.1062006875872612
1733513251549334300,0.268334228515625,-0.2516860067844391,1.502271056175232,-0.2019675225019455
1733513251559410400,0.278410400390625,-0.23917712271213531,1.2576894760131836,-0.5515478849411011
1733513251569485300,0.2884853515625,-0.23716270923614502,1.1607142686843872,-0.9016925692558289
1733513251579561200,0.298561279296875,-0.2262834906578064,1.332229495048523,-1.2195004224777222
1733513251589636400,0.30863623046875,-0.20787625014781952,1.68404221534729,-1.4854719638824463
1733513251599712300,0.318712158203125,-0.23068015277385712,2.065190076828003,-1.6885178089141846
1733513251609787100,0.328787109375,-0.302469402551651,2.402379274368286,-1.8312290906906128
1733513251619862300,0.3388623046875,-0.3681873679161072,2.6470541954040527,-1.9182406663894653
1733513251629938400,0.3489384765625,-0.37256506085395813,2.7785401344299316,-1.9714484214782715
1733513251640013300,0.359013427734375,-0.3393429219722748,2.794597864151001,-2.017631769180298
1733513251650089200,0.369089111328125,-0.24831795692443848,2.7124905586242676,-2.0577948093414307
1733513251660164400,0.379164306640625,-0.15204733610153198,2.5242249965667725,-2.125758171081543
1733513251670240500,0.389240478515625,-0.07900427281856537,2.188659906387329,-2.238142728805542
1733513251680315100,0.399315185546875,0.016639135777950287,1.0217335224151611,-1.9838005304336548
1733513251690391300,0.409391357421875,0.07500790059566498,-0.27881935238838196,-1.1711465120315552
1733513251700466400,0.419466552734375,0.07069969177246094,-0.7246491312980652,-0.2154541164636612
1733513251710542300,0.429542236328125,0.0500175803899765,-0.29532891511917114,0.44854652881622314
1733513251720617200,0.4396171875,0.035175442695617676,0.473320335149765,0.7175339460372925
1733513251730693400,0.449693359375,0.03609529882669449,1.1423166990280151,0.7824453115463257
1733513251740768500,0.4597685546875,-0.02302028238773346,1.5530234575271606,0.8463528752326965
1733513251750844200,0.46984423828125,-0.1351335048675537,1.782976746559143,0.9381789565086365
1733513251760919300,0.479919189453125,-0.25969061255455017,1.9328458309173584,1.0156185626983643
1733513251770994400,0.489994384765625,-0.35299286246299744,2.0492823123931885,1.1199753284454346
1733513251781070300,0.5000703125,-0.4113278090953827,2.1618008613586426,1.3277575969696045
1733513251791145200,0.510145263671875,-0.4263187646865845,2.266659736633301,1.5939339399337769
1733513251801221400,0.520221435546875,-0.46021026372909546,2.3894271850585938,1.8110955953598022
1733513251811296300,0.530296142578125,-0.5408425331115723,2.497828245162964,1.9653352499008179
1733513251821372200,0.5403720703125,-0.5908646583557129,2.5827367305755615,2.0656707286834717
1733513251831447300,0.550447265625,-0.5889706611633301,2.608497381210327,2.0959014892578125
1733513251841523500,0.5605234375,-0.5556600689888,2.555481195449829,2.0417933464050293
1733513251851598300,0.570598388671875,-0.5803009271621704,2.4805796146392822,1.917195439338684
1733513251861674200,0.58067431640625,-0.6633995175361633,2.39165997505188,1.7513762712478638
1733513251871749400,0.590749267578125,-0.7291966080665588,2.0636179447174072,1.5876611471176147
1733513251881825300,0.6008251953125,-0.7581969499588013,1.5179256200790405,1.4393584728240967
1733513251891900400,0.610900390625,-0.821345329284668,1.0144611597061157,1.2364027500152588
1733513251901975300,0.620975341796875,-0.9336961507797241,0.7554049491882324,0.9739316701889038
1733513251912051500,0.631051513671875,-1.0484800338745117,0.672267735004425,0.7304534912109375
1733513251922126300,0.641126220703125,-1.1151052713394165,0.7073339819908142,0.5629585981369019
1733513251932202200,0.6512021484375,-1.1379482746124268,0.7336313724517822,0.4690302610397339
1733513251942277400,0.66127734375,-1.1550601720809937,0.76494961977005,0.41205137968063354
1733513251952353500,0.671353515625,-1.1809535026550293,0.8577144145965576,0.3620974123477936
1733513251962428400,0.681428466796875,-1.1967545747756958,0.9859371781349182,0.33173078298568726
1733513251972504300,0.69150439453125,-1.2005658149719238,1.0711886882781982,0.29689422249794006
1733513251982579500,0.701579345703125,-1.20787513256073,1.094473123550415,0.2642209231853485
1733513251992655600,0.711655517578125,-1.2167017459869385,1.0551851987838745,0.2568588852882385
1733513252002730500,0.72173046875,-1.2264080047607422,1.029617428779602,0.3236839771270752
1733513252012806400,0.731806396484375,-1.230985164642334,0.9938914179801941,0.42649292945861816
1733513252022881500,0.741881591796875,-1.2147828340530396,0.9487113952636719,0.5299729108810425
1733513252032957400,0.75195751953125,-1.1790964603424072,0.9805697202682495,0.6030250191688538
1733513252043032300,0.7620322265625,-1.1095603704452515,1.139068841934204,0.6147221922874451
1733513252053107500,0.772107421875,-1.016871452331543,1.4188365936279297,0.5968419909477234
1733513252063183400,0.782183349609375,-0.9106715321540833,1.787062644958496,0.5817247033119202
1733513252073258500,0.792258544921875,-0.8048798441886902,2.0997655391693115,0.6011980175971985
1733513252083334400,0.80233447265625,-0.7247382998466492,2.2426939010620117,0.6340096592903137
1733513252093409300,0.8124091796875,-0.6812424659729004,2.246428966522217,0.6567844748497009
1733513252103485400,0.8224853515625,-0.6463931202888489,2.138166904449463,0.6602487564086914
1733513252113560300,0.832560302734375,-0.5942766070365906,1.9968341588974,0.6344576478004456
1733513252123636500,0.842636474609375,-0.5423043966293335,1.8488653898239136,0.5830304622650146
1733513252133711400,0.85271142578125,-0.5003961324691772,1.631325602531433,0.5209782719612122
1733513252143787300,0.862787353515625,-0.4659496545791626,1.4040658473968506,0.4054352045059204
1733513252153862400,0.8728623046875,-0.44994646310806274,1.205364465713501,0.24225962162017822
1733513252163938600,0.8829384765625,-0.4408647418022156,1.0477969646453857,0.053990207612514496
1733513252174013400,0.893013427734375,-0.42575740814208984,0.9573195576667786,-0.15999530255794525
1733513252184088600,0.903088623046875,-0.3988512456417084,0.951829195022583,-0.3781726360321045
1733513252194164500,0.91316455078125,-0.36050596833229065,1.0294229984283447,-0.5919922590255737
1733513252204239400,0.9232392578125,-0.3134872615337372,1.1550319194793701,-0.7877499461174011
1733513252214315500,0.9333154296875,-0.2665567696094513,1.2678383588790894,-0.956321656703949
1733513252224390400,0.943390380859375,-0.2368045449256897,1.3085600137710571,-1.1202120780944824
1733513252234466300,0.95346630859375,-0.21066507697105408,1.2490055561065674,-1.300891637802124
1733513252244541400,0.96354150390625,-0.18564456701278687,1.0517690181732178,-1.4839428663253784
1733513252254617300,0.973617431640625,-0.2077013999223709,0.48696520924568176,-1.4704358577728271
1733513252264692200,0.983692138671875,-0.35928604006767273,-0.4376060664653778,-0.9803299307823181
1733513252274768400,0.993768310546875,-0.4816018342971802,-0.6770979762077332,-0.3591659665107727
1733513252284843500,1.003843505859375,-0.4574809968471527,0.1821780949831009,-0.18319171667099
1733513252294919400,1.01391943359375,-0.402804434299469,1.281535267829895,-0.25395509600639343
1733513252304994300,1.023994384765625,-0.3807113766670227,1.7935398817062378,-0.27459806203842163
1733513252315069400,1.0340693359375,-0.3637409210205078,1.7724660634994507,-0.2783302068710327
1733513252325145600,1.0441455078125,-0.30644676089286804,1.5704529285430908,-0.3277289569377899
1733513252335220200,1.05422021484375,-0.2260240912437439,1.3406418561935425,-0.37402239441871643
1733513252345296400,1.06429638671875,-0.14835283160209656,1.0153428316116333,-0.41332459449768066
1733513252355371500,1.07437158203125,-0.09476283192634583,0.6249468326568604,-0.518257737159729
1733513252365447400,1.084447509765625,-0.0816999226808548,0.27651259303092957,-0.6977413296699524
1733513252375522300,1.094522216796875,-0.09394114464521408,-0.006119102239608765,-0.9100120663642883
1733513252385598500,1.104598388671875,-0.09207608550786972,-0.3355550467967987,-1.026229977607727
1733513252395673600,1.114673583984375,-0.06987064331769943,-0.7600336074829102,-0.9718916416168213
1733513252405749200,1.124749267578125,-0.03476329147815704,-1.0879555940628052,-0.8152061700820923
1733513252415824400,1.134824462890625,0.0005835122428834438,-1.1326905488967896,-0.6824071407318115
1733513252425900500,1.144900634765625,0.099924236536026,-1.0604915618896484,-0.5153427124023438
1733513252435975400,1.154975341796875,0.2763115167617798,-1.1310596466064453,-0.23413822054862976
1733513252446050300,1.16505029296875,0.44625285267829895,-1.4179589748382568,0.08443999290466309
1733513252456126500,1.17512646484375,0.5428374409675598,-1.763634443283081,0.3404043912887573
1733513252466201300,1.185201416015625,0.5524044036865234,-1.9858355522155762,0.4812486469745636
1733513252476277200,1.19527734375,0.4796777367591858,-1.9360802173614502,0.5129842162132263
1733513252486352400,1.205352294921875,0.3537931740283966,-1.6463701725006104,0.431639701128006
1733513252496428500,1.215428466796875,0.2759961187839508,-1.318834900856018,0.26646512746810913
1733513252506503400,1.22550341796875,0.3088744580745697,-0.9841110110282898,0.04034174233675003
1733513252516579300,1.235579345703125,0.4519943296909332,-0.5688470005989075,-0.21371237933635712
1733513252526654500,1.245654541015625,0.6783662438392639,-0.006925786379724741,-0.47704094648361206
1733513252536730400,1.25573046875,0.9118884205818176,0.674173891544342,-0.7596760988235474
1733513252546805500,1.265805419921875,1.077592134475708,1.3393718004226685,-0.9997050166130066
1733513252556881400,1.27588134765625,1.1303845643997192,1.9190677404403687,-1.1636314392089844
1733513252566956500,1.28595654296875,1.0945459604263306,2.368385076522827,-1.2174592018127441
1733513252577031400,1.296031494140625,1.0005526542663574,2.6055264472961426,-1.1775586605072021
1733513252587107300,1.306107421875,0.8569712042808533,2.593313455581665,-1.1484743356704712
1733513252597182500,1.316182373046875,0.7235881090164185,2.1614391803741455,-1.291623830795288
1733513252607258400,1.32625830078125,0.5821176171302795,1.2749683856964111,-1.6549547910690308
1733513252617333500,1.33633349609375,0.37665125727653503,0.2282848358154297,-2.0567240715026855
1733513252627409400,1.346409423828125,0.19090339541435242,-0.7798901796340942,-2.2416651248931885
1733513252637484300,1.356484375,0.07228807359933853,-1.6009901762008667,-2.1169283390045166
1733513252647560400,1.366560546875,-0.030786892399191856,-2.0795257091522217,-1.7931082248687744
1733513252657635300,1.37663525390625,-0.17017701268196106,-2.2906076908111572,-1.405870795249939
1733513252667711500,1.38671142578125,-0.26064518094062805,-2.3452346324920654,-1.0552749633789062
1733513252677786400,1.396786376953125,-0.26661279797554016,-2.3280107975006104,-0.8086825013160706
1733513252687862300,1.4068623046875,-0.24487759172916412,-2.2371857166290283,-0.7010097503662109
1733513252697937400,1.4169375,-0.22082552313804626,-2.0291781425476074,-0.6937270760536194
1733513252708013300,1.427013427734375,-0.20224981009960175,-1.6062926054000854,-0.7350016832351685
1733513252718088400,1.43708837890625,-0.1691800057888031,-0.9967312216758728,-0.7546923160552979
1733513252728163600,1.44716357421875,-0.08521768450737,-0.25951001048088074,-0.7135597467422485
1733513252738239500,1.457239501953125,-0.020267974585294724,0.30190086364746094,-0.6624779105186462
1733513252748314400,1.467314453125,0.01418209820985794,0.7601368427276611,-0.5811399221420288
1733513252758390500,1.477390625,-0.009662780910730362,1.029709815979004,-0.5121773481369019
1733513252768465400,1.48746533203125,-0.051422473043203354,1.112980604171753,-0.4835483729839325
1733513252778541300,1.497541259765625,-0.07886208593845367,1.0738531351089478,-0.4965837299823761
1733513252788616400,1.507616455078125,-0.07764023542404175,0.9881886839866638,-0.5392822027206421
1733513252798692400,1.5176923828125,-0.052293598651885986,0.8812933564186096,-0.5928103923797607
1733513252808767200,1.527767333984375,-0.026072805747389793,0.7697529196739197,-0.6427578926086426
1733513252818843400,1.537843505859375,0.0002839677035808563,0.6674260497093201,-0.6846009492874146
1733513252828918500,1.54791845703125,-0.001395161496475339,0.5637141466140747,-0.7173298597335815
1733513252838994400,1.557994384765625,-0.018208229914307594,0.4496365487575531,-0.740606427192688
1733513252849069300,1.5680693359375,-0.0380694605410099,0.2996067702770233,-0.7660989165306091
1733513252859144400,1.57814453125,-0.043912436813116074,0.07114005833864212,-0.811911940574646
1733513252869220600,1.588220703125,-0.020851746201515198,-0.2476700246334076,-0.90623939037323
1733513252879295200,1.598295166015625,0.022550057619810104,-0.6228998303413391,-1.0634288787841797
1733513252889371400,1.608371337890625,0.07185827940702438,-1.0230680704116821,-1.251611590385437
1733513252899446500,1.618446533203125,0.11945456266403198,-1.4106502532958984,-1.4129403829574585
1733513252909522200,1.628522216796875,0.17761826515197754,-1.7652100324630737,-1.4827252626419067
1733513252919597300,1.638597412109375,0.2212299257516861,-2.037902593612671,-1.4297349452972412
1733513252929673500,1.648673583984375,0.2321457415819168,-2.2039289474487305,-1.2654699087142944
1733513252939748600,1.65874853515625,0.1875753402709961,-2.2420566082000732,-1.0413895845413208
1733513252949824500,1.668824462890625,0.09061571955680847,-2.2095913887023926,-0.8624590635299683
1733513252959899600,1.678899658203125,-0.013396164402365685,-2.174919605255127,-0.8328625559806824
1733513252969975600,1.6889755859375,-0.09436914324760437,-2.1682870388031006,-0.9588419795036316
1733513252980050700,1.69905078125,-0.12152459472417831,-2.090054512023926,-1.1036443710327148
1733513252990126600,1.709126708984375,-0.07839953154325485,-1.819405436515808,-1.087423324584961
1733513253000201500,1.719201416015625,-0.006180998403578997,-1.402496099472046,-0.853613555431366
1733513253010276600,1.729276611328125,0.04018428176641464,-0.9205408096313477,-0.4964323341846466
1733513253020352500,1.7393525390625,0.044649071991443634,-0.5543622970581055,-0.17847515642642975
1733513253030427600,1.749427734375,-0.015521565452218056,-0.36220696568489075,0.08427421003580093
1733513253040503600,1.759503662109375,-0.18863049149513245,-0.29180416464805603,0.35937848687171936
1733513253050578700,1.76957861328125,-0.463711678981781,-0.21580670773983002,0.6697309613227844
1733513253060654600,1.779654541015625,-0.7542611956596375,-0.07051822543144226,1.0123684406280518
1733513253070729500,1.7897294921875,-0.9314610958099365,0.14467698335647583,1.413165807723999
1733513253080805600,1.7998056640625,-0.989628255367279,0.4564149081707001,1.8979525566101074
1733513253090880500,1.809880615234375,-0.9649702906608582,0.9088607430458069,2.3877344131469727
1733513253100956700,1.819956787109375,-0.8692152500152588,1.4490240812301636,2.848098039627075
1733513253111031600,1.830031494140625,-0.7206620573997498,1.9617592096328735,3.2330596446990967
1733513253121107500,1.840107421875,-0.5079692602157593,2.323031425476074,3.560955762863159
1733513253131182600,1.8501826171875,-0.26739051938056946,2.4418537616729736,3.82686710357666
1733513253141258500,1.860258544921875,-0.10253868997097015,2.407012462615967,4.00563383102417
1733513253151333600,1.870333740234375,-0.013356523588299751,2.1831297874450684,4.096828460693359
1733513253161408800,1.88040869140625,0.00813199020922184,2.1048226356506348,4.110306739807129
1733513253171484400,1.890484375,-0.08322159200906754,2.3593029975891113,4.015032768249512
1733513253181559600,1.9005595703125,-0.17407134175300598,2.335418462753296,3.7532567977905273
1733513253191635700,1.9106357421875,-0.20740696787834167,2.1390488147735596,3.3472728729248047
1733513253201710300,1.92071044921875,-0.15552859008312225,1.855157732963562,2.8384134769439697
1733513253211786500,1.930786376953125,-0.029004480689764023,1.5326273441314697,2.325263023376465
1733513253221861600,1.940861572265625,0.07093489170074463,1.1764700412750244,1.9023038148880005
1733513253231937500,1.9509375,0.06646326184272766,0.9685302376747131,1.544050931930542
1733513253242012400,1.961012451171875,-0.0068170735612511635,0.8721699118614197,1.221913456916809
1733513253252088600,1.971088623046875,-0.1342083215713501,0.7875416874885559,0.9327391982078552
1733513253262163700,1.981163818359375,-0.26431038975715637,0.6138694882392883,0.6470509767532349
1733513253272239600,1.991239501953125,-0.364263653755188,0.36264556646347046,0.3849727213382721
1733513253282314500,2.001314453125,-0.39912548661231995,0.05255213752388954,0.17515051364898682
1733513253292389600,2.0113896484375,-0.4101284146308899,-0.23430009186267853,0.02115499973297119
1733513253302465800,2.0214658203125,-0.4610174298286438,-0.3928748071193695,-0.08137696981430054
1733513253312540400,2.03154052734375,-0.5484290719032288,-0.34715160727500916,-0.12914448976516724
1733513253322616600,2.041616455078125,-0.6532750129699707,-0.14314842224121094,-0.08981865644454956
1733513253332691700,2.051691650390625,-0.7687870264053345,0.19965258240699768,0.07319523394107819
1733513253342767400,2.061767333984375,-0.8748202323913574,0.6042160391807556,0.36619114875793457
1733513253352842500,2.071842529296875,-0.9739810228347778,1.1201930046081543,0.6968355774879456
1733513253362918700,2.081918701171875,-1.0678812265396118,1.6476876735687256,0.9679171442985535
1733513253372993500,2.09199365234375,-1.1546766757965088,2.0085055828094482,1.149999737739563
1733513253383069400,2.1020693359375,-1.2248597145080566,2.154477596282959,1.2338064908981323
1733513253393144600,2.11214453125,-1.2682809829711914,2.1127922534942627,1.2320753335952759
1733513253403220700,2.122220703125,-1.2971118688583374,1.9544408321380615,1.1522966623306274
1733513253413295600,2.132295654296875,-1.3083702325820923,1.732691764831543,1.0003352165222168
1733513253423371500,2.14237158203125,-1.304058313369751,1.4562726020812988,0.7866964340209961
1733513253433446700,2.15244677734375,-1.2674611806869507,1.1645170450210571,0.5236791968345642
1733513253443521500,2.162521484375,-1.2156941890716553,0.912207305431366,0.242745503783226
1733513253453597400,2.172597412109375,-1.1707143783569336,0.6586934328079224,-0.029363567009568214
1733513253463672600,2.182672607421875,-1.1245503425598145,0.3701383173465729,-0.27672702074050903
1733513253473748700,2.192748779296875,-1.0710138082504272,0.07153914123773575,-0.49563825130462646
1733513253483823600,2.20282373046875,-0.9937220215797424,-0.2139727622270584,-0.686284065246582
1733513253493899500,2.2128994140625,-0.8659811615943909,-0.4563102424144745,-0.8651042580604553
1733513253503974700,2.222974609375,-0.6815290451049805,-0.5979436039924622,-1.0391418933868408
1733513253514050600,2.233050537109375,-0.46006152033805847,-0.5954440236091614,-1.2185226678848267
1733513253524125700,2.243125732421875,-0.21731571853160858,-0.43514758348464966,-1.408362865447998
1733513253534201600,2.25320166015625,0.04765314236283302,-0.11527306586503983,-1.5968265533447266
1733513253544276500,2.2632763671875,0.30840644240379333,0.3011973798274994,-1.6853973865509033
1733513253554352600,2.2733525390625,0.4588220417499542,0.6555926203727722,-1.2937523126602173
1733513253564427500,2.283427490234375,0.47101157903671265,0.6762750148773193,-0.7032802700996399
1733513253574503700,2.293503662109375,0.47523176670074463,0.62120521068573,-0.23325194418430328
1733513253584578600,2.30357861328125,0.5311823487281799,0.7504497170448303,-0.03177636116743088
1733513253594653700,2.31365380859375,0.569991946220398,1.0666927099227905,-0.09536668658256531
1733513253604729600,2.3237294921875,0.5357559323310852,1.2246909141540527,-0.30630820989608765
1733513253614804500,2.333804443359375,0.40791943669319153,1.0525813102722168,-0.5390900373458862
1733513253624880600,2.343880615234375,0.2223013937473297,0.7511442303657532,-0.7285600900650024
1733513253634955500,2.35395556640625,0.030213652178645134,0.48359358310699463,-0.8102115988731384
1733513253645031700,2.36403173828125,-0.10797377675771713,0.17601469159126282,-0.7736469507217407
1733513253655106600,2.3741064453125,-0.16959916055202484,-0.05438108369708061,-0.719744086265564
1733513253665182500,2.384182373046875,-0.23531904816627502,-0.023867115378379822,-0.7394102215766907
1733513253675257600,2.394257568359375,-0.3299814462661743,0.1269480288028717,-0.7920714020729065
1733513253685333500,2.40433349609375,-0.39330556988716125,0.15749448537826538,-0.8414480090141296
1733513253695408600,2.41440869140625,-0.3667324483394623,-0.03709494322538376,-0.8961646556854248
1733513253705484500,2.424484619140625,-0.2601327896118164,-0.3669982850551605,-0.9642619490623474
1733513253715559400,2.434559326171875,-0.1500629037618637,-0.8027849197387695,-0.9508624076843262
1733513253725635600,2.444635498046875,-0.024831749498844147,-1.372304081916809,-0.8459892868995667
1733513253735710700,2.454710693359375,0.07317353785037994,-2.0400400161743164,-0.6918392181396484
1733513253745785600,2.46478564453125,0.1144711822271347,-2.6697278022766113,-0.672747015953064
1733513253755861500,2.474861572265625,0.11325658112764359,-2.8705317974090576,-1.051074504852295
1733513253765936600,2.4849365234375,0.12562589347362518,-2.4424238204956055,-1.7648704051971436
1733513253776012500,2.495012451171875,0.1257062554359436,-1.7718812227249146,-2.3334176540374756
1733513253786087400,2.50508740234375,0.026937343180179596,-1.210710048675537,-2.4609174728393555
1733513253796163600,2.51516357421875,-0.13169492781162262,-0.8536022305488586,-2.2428958415985107
1733513253806238700,2.52523876953125,-0.25212255120277405,-0.8269162774085999,-1.842369556427002
1733513253816314400,2.535314453125,-0.2939540445804596,-1.1215193271636963,-1.3020331859588623
1733513253826389500,2.545389404296875,-0.2656771242618561,-1.606974482536316,-0.6331238746643066
1733513253836465700,2.555465576171875,-0.1864648014307022,-2.155259370803833,0.02993990108370781
1733513253846540800,2.565540771484375,-0.05352804437279701,-2.63126540184021,0.5887578725814819
1733513253856616400,2.575616455078125,0.1438611000776291,-2.9023337364196777,1.0178290605545044
1733513253866691600,2.585691650390625,0.3620956838130951,-3.2691402435302734,1.3506416082382202
1733513253876767700,2.595767822265625,0.537274956703186,-3.6254098415374756,1.5383042097091675
1733513253886842400,2.60584228515625,0.7956069111824036,-3.334289789199829,1.5024436712265015
1733513253896917500,2.61591748046875,1.1902605295181274,-2.3338963985443115,1.3583753108978271
1733513253906993700,2.62599365234375,1.4886986017227173,-1.2362534999847412,1.2365541458129883
1733513253917068500,2.636068603515625,1.54679274559021,0.08104271441698074,1.0480766296386719
1733513253927144400,2.64614453125,1.3957141637802124,2.3018853664398193,0.4956986606121063
1733513253937219600,2.656219482421875,0.9911929368972778,5.0656890869140625,-0.3918997645378113
1733513253947295700,2.666295654296875,0.5555349588394165,6.940849304199219,-1.053165078163147
1733513253957371000,2.676370849609375,0.3433152735233307,7.534786701202393,-1.2330799102783203
1733513253967446500,2.686446533203125,0.36747172474861145,7.44943904876709,-1.0939992666244507
1733513253977521700,2.696521728515625,0.4660368263721466,6.968099117279053,-0.8177924752235413
1733513253987597800,2.706597900390625,0.4919491112232208,5.906907081604004,-0.5296530723571777
1733513253997672400,2.71667236328125,0.4541832208633423,4.5464396476745605,-0.32262924313545227
1733513254007748600,2.72674853515625,0.3930426239967346,2.9617319107055664,-0.4228051006793976
1733513254017823700,2.73682373046875,0.3633074164390564,0.3581219017505646,-1.2324248552322388
1733513254027899600,2.746899658203125,0.28759267926216125,-2.407660961151123,-2.093156099319458
1733513254037974500,2.756974609375,0.14857403934001923,-4.097830295562744,-2.411184072494507
1733513254048050700,2.76705078125,-0.021208591759204865,-4.7139410972595215,-2.257336139678955
1733513254058125800,2.777125732421875,-0.235987588763237,-4.646573543548584,-1.8287185430526733
1733513254068200700,2.78720068359375,-0.3861195743083954,-4.2087836265563965,-1.2968274354934692
1733513254078276600,2.797276611328125,-0.41084444522857666,-3.661139726638794,-0.7743068337440491
1733513254088351700,2.807351806640625,-0.37337562441825867,-3.182192802429199,-0.36882779002189636
1733513254098427600,2.817427734375,-0.311549574136734,-2.8734710216522217,-0.13917145133018494
1733513254108502500,2.82750244140625,-0.24395401775836945,-2.7918834686279297,-0.1282210648059845
1733513254118578700,2.83757861328125,-0.17303848266601562,-2.8085389137268066,-0.2913385033607483
1733513254128653800,2.84765380859375,-0.10152967274188995,-2.727022171020508,-0.518187940120697
1733513254138729500,2.8577294921875,-0.019769757986068726,-2.4525601863861084,-0.7167246341705322
1733513254148804600,2.8678046875,0.03473502770066261,-2.00838303565979,-0.8453577160835266
1733513254158880800,2.877880859375,0.0507747121155262,-1.5046213865280151,-0.8967883586883545
1733513254168955600,2.88795556640625,0.031859878450632095,-1.0383857488632202,-0.8851509094238281
1733513254179031600,2.898031494140625,-0.01743525080382824,-0.6806854009628296,-0.8509043455123901
1733513254189106700,2.908106689453125,-0.05575414374470711,-0.49495095014572144,-0.832981526851654
1733513254199182800,2.918182861328125,-0.07909689843654633,-0.47854936122894287,-0.8466644287109375
1733513254209257700,2.9282578125,-0.08151637762784958,-0.6132714748382568,-0.8892174959182739
1733513254219333600,2.938333740234375,-0.06828361004590988,-0.8674710988998413,-0.9281834959983826
1733513254229408800,2.94840869140625,-0.051181063055992126,-1.1654138565063477,-0.9382569193840027
1733513254239483600,2.958483642578125,-0.024476591497659683,-1.4675828218460083,-0.9043970108032227
1733513254249559600,2.9685595703125,0.011237462982535362,-1.722458839416504,-0.8222014904022217
1733513254259634700,2.978634765625,0.05080427974462509,-1.8642194271087646,-0.6866112351417542
1733513254269710600,2.988710693359375,0.09874491393566132,-1.8700886964797974,-0.5093831419944763
1733513254279785700,2.99878564453125,0.14619171619415283,-1.7425713539123535,-0.32372575998306274
1733513254289861600,3.008861572265625,0.17869560420513153,-1.500189185142517,-0.16360746324062347
1733513254299936800,3.018936767578125,0.19168461859226227,-1.1691739559173584,-0.056224044412374496
1733513254310012700,3.0290126953125,0.18048256635665894,-0.7812737226486206,-0.01114658173173666
1733513254320087600,3.039087646484375,0.15312325954437256,-0.3654769957065582,0.0011073206551373005
1733513254330163700,3.049163818359375,0.10913743078708649,0.02493656426668167,-0.004301292821764946
1733513254340238600,3.059238525390625,0.04578204080462456,0.32890111207962036,-0.0302259661257267
1733513254350314500,3.069314453125,-0.03427710756659508,0.47349822521209717,-0.09416180849075317
1733513254360389600,3.0793896484375,-0.12634989619255066,0.4620729982852936,-0.19464457035064697
1733513254370465800,3.0894658203125,-0.21189142763614655,0.3400075435638428,-0.30035823583602905
1733513254380540700,3.099540771484375,-0.28090935945510864,0.13323260843753815,-0.3679148852825165
1733513254390616600,3.109616455078125,-0.30718091130256653,-0.16873683035373688,-0.3842989206314087
1733513254400691700,3.119691650390625,-0.2875107526779175,-0.5367975831031799,-0.35135236382484436
1733513254410767600,3.129767578125,-0.2554425597190857,-0.8883276581764221,-0.27548930048942566
1733513254420842800,3.1398427734375,-0.22910110652446747,-1.1353799104690552,-0.13612833619117737
1733513254430917600,3.149917724609375,-0.2420419305562973,-1.2380799055099487,0.07313887029886246
1733513254440993500,3.15999365234375,-0.2985449731349945,-1.3457106351852417,0.22831614315509796
1733513254451068700,3.170068603515625,-0.4133218824863434,-1.590704083442688,0.22094158828258514
1733513254461144600,3.18014453125,-0.558574378490448,-1.9114325046539307,0.15617650747299194
1733513254471219500,3.190219482421875,-0.7546072602272034,-2.1455867290496826,0.21345284581184387
1733513254481295600,3.200295654296875,-0.947226345539093,-2.196751117706299,0.46938806772232056
1733513254491370800,3.210370849609375,-1.1041988134384155,-2.018362045288086,0.9414592385292053
1733513254501446700,3.22044677734375,-1.2116481065750122,-1.4842032194137573,1.6327111721038818
1733513254511521500,3.230521484375,-1.2354272603988647,-0.758803129196167,2.360694169998169
1733513254521597700,3.24059765625,-1.0462982654571533,0.0876842513680458,2.9760520458221436
1733513254531672800,3.2506728515625,-0.7261312007904053,0.904921293258667,3.452711820602417
1733513254541748700,3.260748779296875,-0.44070231914520264,1.6841094493865967,3.7909162044525146
1733513254551823600,3.27082373046875,-0.25801560282707214,2.47979474067688,3.9850783348083496
1733513254561899800,3.280899658203125,-0.18970409035682678,3.3625986576080322,4.067374229431152
1733513254571974700,3.290974609375,-0.25812867283821106,4.276151180267334,4.030771732330322
1733513254582050600,3.301050537109375,-0.3381747901439667,4.713723182678223,3.840876817703247
1733513254592125700,3.311125732421875,-0.29555410146713257,4.54288387298584,3.481403350830078
1733513254602200800,3.321200927734375,-0.14502404630184174,4.0517354011535645,2.9546687602996826
1733513254612276500,3.3312763671875,0.017403485253453255,3.272967576980591,2.4713542461395264
1733513254622351600,3.3413515625,0.11348354071378708,2.349827527999878,2.1303977966308594
1733513254632427800,3.351427734375,0.07140292972326279,1.5393505096435547,1.8875237703323364
1733513254642502700,3.361502685546875,-0.13320337235927582,1.0108181238174438,1.6066179275512695
1733513254652578600,3.37157861328125,-0.33882230520248413,0.5871009826660156,1.3021235466003418
1733513254662653700,3.38165380859375,-0.4422100782394409,0.016033288091421127,1.0474187135696411
1733513254672729900,3.391729736328125,-0.4989282190799713,-0.6451257467269897,0.8282175660133362
1733513254682804500,3.401804443359375,-0.5771563649177551,-1.2087393999099731,0.612807035446167
1733513254692880600,3.411880615234375,-0.6872929930686951,-1.5766420364379883,0.41210246086120605
1733513254702955800,3.421955810546875,-0.810440182685852,-1.671316146850586,0.24932318925857544
1733513254713031700,3.43203173828125,-0.9181530475616455,-1.428562879562378,0.15531334280967712
1733513254723106600,3.4421064453125,-0.9691664576530457,-0.8483151793479919,0.14301297068595886
1733513254733182700,3.4521826171875,-0.9408506751060486,-0.06651899218559265,0.20028477907180786
1733513254743257900,3.4622578125,-0.8677278757095337,0.7426807284355164,0.32458794116973877
1733513254753333500,3.47233349609375,-0.7642941474914551,1.4289803504943848,0.5107753872871399
1733513254763408600,3.48240869140625,-0.6632328629493713,1.8516820669174194,0.7250252962112427
1733513254773483800,3.49248388671875,-0.5835596323013306,2.025454044342041,0.9124066233634949
1733513254783559700,3.5025595703125,-0.5171321034431458,2.019655227661133,1.0339645147323608
1733513254793634600,3.512634521484375,-0.47909677028656006,1.9240820407867432,1.053881287574768
1733513254803710700,3.522710693359375,-0.46419793367385864,1.8034170866012573,0.9636169075965881
1733513254813785600,3.53278564453125,-0.4432380497455597,1.6686803102493286,0.7968239784240723
1733513254823861500,3.542861572265625,-0.4160826504230499,1.4666122198104858,0.5838298797607422
1733513254833936600,3.5529365234375,-0.38305437564849854,1.198354721069336,0.357706218957901
1733513254844012800,3.5630126953125,-0.3553878366947174,0.8993996381759644,0.14984892308712006
1733513254854087700,3.573087646484375,-0.34143632650375366,0.5722255110740662,-0.03996441513299942
1733513254864163600,3.58316357421875,-0.32452037930488586,0.2064070850610733,-0.23667789995670319
1733513254874238700,3.59323876953125,-0.2921704351902008,-0.1518820971250534,-0.4531164765357971
1733513254884315000,3.60331494140625,-0.24262166023254395,-0.48497438430786133,-0.698159396648407
1733513254894389500,3.613389404296875,-0.19484376907348633,-0.7638376951217651,-0.9669913649559021
1733513254904465700,3.623465576171875,-0.14144931733608246,-0.9750699996948242,-1.2642096281051636
1733513254914540800,3.633540771484375,-0.09245514869689941,-1.1247320175170898,-1.580843210220337
1733513254924616400,3.643616455078125,-0.023853614926338196,-1.149640679359436,-1.9248238801956177
1733513254934691600,3.653691650390625,0.12897400557994843,-0.9224264025688171,-2.281541109085083
1733513254944767500,3.663767578125,0.3347378969192505,-0.6282650232315063,-2.253061056137085
1733513254954842600,3.673842529296875,0.4752393364906311,-0.41158223152160645,-1.4570443630218506
1733513254964918500,3.68391845703125,0.6018802523612976,0.06824631243944168,-0.6368862390518188
1733513254974993400,3.693993408203125,0.6801926493644714,0.6425436735153198,-0.01800728216767311
1733513254985068500,3.704068603515625,0.6246768832206726,1.0134265422821045,0.30001166462898254
1733513254995144700,3.714144775390625,0.4568577706813812,1.2553746700286865,0.31517329812049866
1733513255005219600,3.724219482421875,0.24490052461624146,1.4729362726211548,0.1428326964378357
1733513255015295500,3.73429541015625,0.050281230360269547,1.5482869148254395,-0.0952664166688919
1733513255025370600,3.74437060546875,-0.09779106080532074,1.3692708015441895,-0.2664775848388672
1733513255035446500,3.754446533203125,-0.2353784739971161,1.0273494720458984,-0.30767667293548584
1733513255045521400,3.764521484375,-0.38149377703666687,0.6494590044021606,-0.2419481724500656
1733513255055597600,3.77459765625,-0.5105745196342468,0.34935346245765686,-0.2040596455335617
1733513255065672700,3.784672607421875,-0.5415657758712769,0.07107742875814438,-0.2502215802669525
1733513255075748400,3.794748291015625,-0.42814385890960693,-0.23637573421001434,-0.37588736414909363
1733513255085823500,3.804823486328125,-0.20920811593532562,-0.5117862820625305,-0.5162661075592041
1733513255095899600,3.814899658203125,0.03466392681002617,-0.7382518649101257,-0.592786967754364
1733513255105974500,3.824974609375,0.2272021472454071,-0.9227126836776733,-0.6104123592376709
1733513255116050400,3.835050537109375,0.32935622334480286,-1.00291109085083,-0.7002192139625549
1733513255126125600,3.84512548828125,0.3842550218105316,-0.9052851796150208,-1.0799198150634766
1733513255136201700,3.85520166015625,0.4517056941986084,-0.5687095522880554,-1.7695690393447876
1733513255146276400,3.8652763671875,0.4658428728580475,-0.18020804226398468,-2.4613397121429443
1733513255156352500,3.8753525390625,0.36240488290786743,0.03244509547948837,-2.831841230392456
1733513255166427600,3.885427734375,0.10578892379999161,-0.02084639109671116,-2.786442995071411
1733513255176503300,3.89550341796875,-0.15322346985340118,-0.3819601237773895,-2.432135581970215
1733513255186578400,3.905578369140625,-0.3207855224609375,-1.0004991292953491,-1.8243807554244995
1733513255196653600,3.915653564453125,-0.39466214179992676,-1.6978355646133423,-1.0514826774597168
1733513255206729700,3.925729736328125,-0.36976367235183716,-2.4146533012390137,-0.2639043927192688
1733513255216804600,3.9358046875,-0.26202282309532166,-2.972858428955078,0.3861348628997803
1733513255226880500,3.945880615234375,-0.15411259233951569,-3.3340888023376465,0.8257042765617371
1733513255236955600,3.95595556640625,-0.013009796850383282,-3.451500415802002,1.0694905519485474
1733513255247031600,3.966031494140625,0.200575590133667,-3.331610918045044,1.1304941177368164
1733513255257106400,3.9761064453125,0.5704407691955566,-3.246290922164917,1.0719306468963623
1733513255267182600,3.9861826171875,1.1188323497772217,-3.1038715839385986,1.0101902484893799
1733513255277257500,3.996257568359375,1.6202070713043213,-2.39837384223938,0.9118597507476807
1733513255287333400,4.00633349609375,1.8408901691436768,-0.8874349594116211,0.633850634098053
1733513255297408500,4.016408447265625,1.742247462272644,1.2598106861114502,0.1360490918159485
1733513255307484700,4.026484619140625,1.3449840545654297,3.72029447555542,-0.5094087719917297
1733513255317559600,4.0365595703125,0.8085156083106995,5.585458755493164,-0.9823195934295654
1733513255327635500,4.046635498046875,0.4556344151496887,6.388869285583496,-1.1313823461532593
1733513255337710600,4.056710693359375,0.3715384602546692,6.621840953826904,-1.052125096321106
1733513255347786500,4.066786376953125,0.41955864429473877,6.525218486785889,-0.8828078508377075
1733513255357861600,4.076861572265625,0.4834984838962555,6.072296142578125,-0.6993666291236877
1733513255367937500,4.0869375,0.5814080238342285,5.195289134979248,-0.6175617575645447
1733513255378012400,4.097012451171875,0.7613785862922668,3.335428476333618,-1.1761319637298584
1733513255388088600,4.107088623046875,0.7379570007324219,0.8642398715019226,-1.9593932628631592
1733513255398163500,4.11716357421875,0.38184016942977905,-1.1114951372146606,-2.3187453746795654
1733513255408239600,4.127239501953125,-0.06395569443702698,-2.268090009689331,-2.12202787399292
1733513255418314500,4.137314453125,-0.3716442584991455,-2.715163469314575,-1.6278352737426758
1733513255428389600,4.1473896484375,-0.4975970685482025,-2.6783814430236816,-1.0739597082138062
1733513255438465500,4.157465576171875,-0.47253724932670593,-2.3858206272125244,-0.5772618055343628
1733513255448540400,4.16754052734375,-0.4192102551460266,-1.9802842140197754,-0.20835186541080475
1733513255458616600,4.177616455078125,-0.41139522194862366,-1.623329520225525,-0.0333707258105278
1733513255468691700,4.187691650390625,-0.4295967221260071,-1.4714264869689941,-0.0995621308684349
1733513255478767600,4.197767578125,-0.41790199279785156,-1.480342984199524,-0.3396519422531128
1733513255488842500,4.207842529296875,-0.35745659470558167,-1.5301114320755005,-0.6130439639091492
1733513255498918700,4.217918701171875,-0.266275554895401,-1.457900881767273,-0.8168516755104065
1733513255508993500,4.22799365234375,-0.2107003927230835,-1.2049882411956787,-0.9312828779220581
1733513255519069400,4.2380693359375,-0.20601589977741241,-0.8547425866127014,-0.9609994888305664
1733513255529144600,4.24814453125,-0.23786623775959015,-0.4787599444389343,-0.9315864443778992
1733513255539220500,4.258220458984375,-0.26443180441856384,-0.16963402926921844,-0.8521621823310852
1733513255549295400,4.26829541015625,-0.2505321800708771,0.027991987764835358,-0.7666069865226746
1733513255559371500,4.27837158203125,-0.2143304944038391,0.07275839149951935,-0.7101317048072815
1733513255569446700,4.28844677734375,-0.1708264797925949,-0.048522789031267166,-0.7263142466545105
1733513255579522600,4.2985224609375,-0.14250215888023376,-0.31732895970344543,-0.8208181262016296
1733513255589597400,4.308597412109375,-0.14847759902477264,-0.7105544209480286,-0.9697192907333374
1733513255599673600,4.318673583984375,-0.18616452813148499,-1.1846413612365723,-1.1226118803024292
1733513255609748500,4.32874853515625,-0.2521402835845947,-1.6899058818817139,-1.2393330335617065
1733513255619824600,4.33882470703125,-0.2950264811515808,-2.151240587234497,-1.3190662860870361
1733513255629899500,4.3488994140625,-0.26556241512298584,-2.5065419673919678,-1.3706461191177368
1733513255639974700,4.358974609375,-0.16990512609481812,-2.728288173675537,-1.3661174774169922
1733513255650050600,4.369050537109375,0.0021134926937520504,-2.772557258605957,-1.26823091506958
1733513255660125400,4.37912548828125,0.22645685076713562,-2.584451675415039,-1.0260674953460693
1733513255670201600,4.38920166015625,0.45075753331184387,-2.166337728500366,-0.649411678314209
1733513255680276700,4.39927685546875,0.6279190182685852,-1.5663323402404785,-0.211013525724411
1733513255690352400,4.409352294921875,0.7495178580284119,-0.8430768251419067,0.17729534208774567
1733513255700427500,4.419427490234375,0.7882130742073059,-0.06453421711921692,0.4233818054199219
1733513255710503700,4.429503662109375,0.7066776752471924,0.6724979281425476,0.47520875930786133
1733513255720578600,4.43957861328125,0.52454674243927,1.2577738761901855,0.33158448338508606
1733513255730654500,4.449654541015625,0.27777403593063354,1.608771562576294,0.06455680727958679
1733513255740729600,4.4597294921875,0.02304028533399105,1.6665395498275757,-0.2265285700559616
1733513255750805500,4.469805419921875,-0.20040307939052582,1.4534870386123657,-0.429775595664978
1733513255760880400,4.47988037109375,-0.3842434883117676,1.0345572233200073,-0.48260951042175293
1733513255770956500,4.48995654296875,-0.5486295223236084,0.4818674623966217,-0.39266929030418396
1733513255781031700,4.50003173828125,-0.7163013219833374,-0.11681193858385086,-0.22347252070903778
1733513255791107300,4.510107421875,-0.8813936114311218,-0.7357292771339417,-0.04920058697462082
1733513255801182500,4.520182373046875,-1.0409071445465088,-1.3524667024612427,0.09685938060283661
1733513255811258600,4.530258544921875,-1.1816881895065308,-1.966691255569458,0.24560825526714325
1733513255821333800,4.540333740234375,-1.2290527820587158,-2.646832227706909,0.818595290184021
1733513255831409400,4.550409423828125,-1.2453320026397705,-2.441112756729126,1.846374273300171
1733513255841484500,4.560484619140625,-1.2698861360549927,-1.4901906251907349,2.78792667388916
1733513255851560700,4.570560791015625,-1.2556740045547485,-0.4738411009311676,3.547807216644287
1733513255861635300,4.58063525390625,-1.051374077796936,0.4363040626049042,4.022906303405762
1733513255871711500,4.59071142578125,-0.7013096213340759,1.2444086074829102,4.27695894241333
1733513255881786600,4.60078662109375,-0.3956008553504944,1.9142191410064697,4.461101531982422
1733513255891861500,4.610861572265625,-0.22248238325119019,2.5710525512695312,4.631397724151611
1733513255901937400,4.6209375,-0.1772664338350296,3.133415460586548,4.817173480987549
1733513255912012500,4.631012451171875,-0.1337578147649765,3.511655569076538,4.913740634918213
1733513255922088700,4.641088623046875,-0.08294657617807388,3.6521072387695312,4.757660388946533
1733513255932163600,4.65116357421875,-0.10612725466489792,3.3807597160339355,4.242732524871826
1733513255942239000,4.661239013671875,-0.16449148952960968,3.093299388885498,3.405409336090088
1733513255952314000,4.671314208984375,-0.1500285267829895,2.5628890991210938,2.5739009380340576
1733513255962390300,4.681390380859375,-0.1522091180086136,1.8937216997146606,1.848026156425476
1733513255972465200,4.691465087890625,-0.22037476301193237,1.3395363092422485,1.301767110824585
1733513255982541000,4.701541015625,-0.3006403148174286,0.8590554594993591,0.9628141522407532
1733513255992616200,4.7116162109375,-0.3568406403064728,0.35713323950767517,0.7387672662734985
1733513256002692000,4.721692138671875,-0.38983482122421265,-0.17646995186805725,0.5776715874671936
1733513256012767000,4.73176708984375,-0.4398144483566284,-0.6531465649604797,0.4639262855052948
1733513256022843100,4.741843017578125,-0.5374943614006042,-1.018296718597412,0.3995302617549896
1733513256032918000,4.75191796875,-0.6696724891662598,-1.141650915145874,0.38049471378326416
1733513256042994000,4.761993896484375,-0.7919694185256958,-0.9048082232475281,0.3904605507850647
1733513256053069000,4.772069091796875,-0.8738749623298645,-0.3501415252685547,0.42791831493377686
1733513256063145200,4.782145263671875,-0.9140346646308899,0.4433739483356476,0.5391116738319397
1733513256073220000,4.79222021484375,-0.9197407960891724,1.2764232158660889,0.7265414595603943
1733513256083296000,4.8022958984375,-0.8707442283630371,1.967329740524292,0.9915206432342529
1733513256093371100,4.81237109375,-0.7849370241165161,2.377037286758423,1.2692279815673828
1733513256103447000,4.822447021484375,-0.7006456255912781,2.5768635272979736,1.4717295169830322
1733513256113522200,4.832522216796875,-0.6391962766647339,2.6429672241210938,1.5404009819030762
1733513256123598000,4.84259814453125,-0.5902761220932007,2.5199337005615234,1.461958408355713
1733513256133673200,4.852673095703125,-0.5528212785720825,2.260302782058716,1.2472209930419922
1733513256143749000,4.8627490234375,-0.5360566973686218,1.902103304862976,0.9350873231887817
1733513256153824000,4.872823974609375,-0.541692316532135,1.4734699726104736,0.5751418471336365
1733513256163900200,4.882900146484375,-0.5465214252471924,1.0466281175613403,0.2301734983921051
1733513256173975000,4.89297509765625,-0.5481424927711487,0.6463266611099243,-0.07502239942550659
1733513256184050200,4.90305029296875,-0.5492644906044006,0.2718904912471771,-0.34431031346321106
1733513256194126000,4.9131259765625,-0.5448843240737915,-0.09810688346624374,-0.582720935344696
1733513256204201000,4.923200927734375,-0.5436581969261169,-0.45172327756881714,-0.8076712489128113
1733513256214277000,4.933277099609375,-0.5332058072090149,-0.8726420998573303,-1.0659842491149902
1733513256224352000,4.94335205078125,-0.5035975575447083,-1.3558841943740845,-1.3731623888015747
1733513256234428200,4.95342822265625,-0.4775797724723816,-1.7267050743103027,-1.7203710079193115
1733513256244503000,4.9635029296875,-0.42363423109054565,-2.005988121032715,-2.125673294067383
1733513256254579000,4.973578857421875,-0.28750911355018616,-2.136826753616333,-2.5381617546081543
1733513256264654000,4.983654052734375,-0.0587100088596344,-2.202528238296509,-2.5964879989624023
1733513256274730000,4.99372998046875,0.17391008138656616,-2.160226821899414,-2.081017255783081
1733513256284805000,5.00380517578125,0.3491261303424835,-1.5867013931274414,-1.5861496925354004
1733513256294881000,5.013881103515625,0.5131368637084961,-0.5401783585548401,-1.1498640775680542
1733513256304956000,5.023955810546875,0.7122816443443298,0.5345967411994934,-0.7799357175827026
1733513256315032000,5.034031982421875,0.8735243082046509,1.1296087503433228,-0.4484492242336273
1733513256325107200,5.044107177734375,0.9020984172821045,1.2749465703964233,-0.21647164225578308
1733513256335183000,5.05418310546875,0.7879621386528015,1.3964571952819824,-0.15667228400707245
1733513256345258000,5.064258056640625,0.5819735527038574,1.5212137699127197,-0.23662890493869781
1733513256355334100,5.074334228515625,0.3657967448234558,1.399137020111084,-0.34407472610473633
1733513256365409000,5.084408935546875,0.16561758518218994,1.1236889362335205,-0.44587352871894836
1733513256375485200,5.094485107421875,-0.027445295825600624,0.8623809814453125,-0.5297926068305969
1733513256385560000,5.10456005859375,-0.2176690399646759,0.5180318355560303,-0.5808815956115723
1733513256395636000,5.114635986328125,-0.3291696608066559,0.026248354464769363,-0.6256434321403503
1733513256405711000,5.124711181640625,-0.29336026310920715,-0.5660583972930908,-0.6702178120613098
1733513256415787000,5.134787109375,-0.1660204529762268,-1.1529256105422974,-0.6459282636642456
1733513256425862100,5.144862060546875,-0.03088579699397087,-1.6999725103378296,-0.49300500750541687
1733513256435938000,5.15493798828125,0.054863497614860535,-2.134359121322632,-0.3210321366786957
1733513256446013000,5.165012939453125,0.049096155911684036,-2.415412187576294,-0.30782073736190796
1733513256456088000,5.175088134765625,0.03379000350832939,-2.3865387439727783,-0.7208388447761536
1733513256466164200,5.185164306640625,0.07547992467880249,-1.8372606039047241,-1.5520532131195068
1733513256476238800,5.19523876953125,0.08675141632556915,-1.086310863494873,-2.233004093170166
1733513256486315000,5.20531494140625,0.009550373069941998,-0.7563285231590271,-2.331263780593872
1733513256496390100,5.21539013671875,-0.10022492706775665,-0.828062891960144,-1.938974142074585
1733513256506466000,5.225466064453125,-0.2127954214811325,-1.0854007005691528,-1.2835893630981445
1733513256516541000,5.235541015625,-0.24854671955108643,-1.3398367166519165,-0.5762811899185181
1733513256526617000,5.2456171875,-0.17352573573589325,-1.359316349029541,-0.040123503655195236
1733513256536692200,5.255692138671875,-0.04575106129050255,-0.9409589767456055,0.25799494981765747
1733513256546768100,5.26576806640625,0.13284237682819366,-0.1714169830083847,0.3647935688495636
1733513256556843000,5.275843017578125,0.35881665349006653,0.33136969804763794,0.3897300660610199
1733513256566919200,5.285919189453125,0.6654900908470154,0.4780515730381012,0.40015289187431335
1733513256576994300,5.295994384765625,1.0496304035186768,0.5831322073936462,0.39503389596939087
1733513256587070000,5.306070068359375,1.444490909576416,0.9048681259155273,0.2760968506336212
1733513256597145000,5.31614501953125,1.693446159362793,1.4561764001846313,0.030418744310736656
1733513256607221200,5.32622119140625,1.6054047346115112,2.1502552032470703,-0.28751954436302185
1733513256617296000,5.3362958984375,1.2482753992080688,2.801978588104248,-0.6508365869522095
1733513256627372000,5.3463720703125,0.777115523815155,3.425109386444092,-0.9720161557197571
1733513256637447200,5.356447265625,0.3717555105686188,3.888821601867676,-1.1593059301376343
1733513256647523000,5.366523193359375,0.16791261732578278,3.9071991443634033,-1.2253319025039673
1733513256657598000,5.376597900390625,0.12369181960821152,3.474586248397827,-1.3152588605880737
1733513256667674000,5.386674072265625,0.3373074233531952,2.1883938312530518,-1.7371094226837158
1733513256677749200,5.396749267578125,0.5236104130744934,0.42125603556632996,-2.3059821128845215
1733513256687825000,5.406824951171875,0.4908180832862854,-1.1850311756134033,-2.6156082153320312
1733513256697900000,5.416900146484375,0.2828104496002197,-2.302011013031006,-2.5266330242156982
1733513256707976200,5.42697607421875,-0.015881448984146118,-2.898104667663574,-2.151378870010376
1733513256718051000,5.437051025390625,-0.2461564987897873,-3.145796298980713,-1.6413825750350952
1733513256728127000,5.447126953125,-0.34008508920669556,-3.1336400508880615,-1.1333465576171875
1733513256738202000,5.4572021484375,-0.33976030349731445,-2.986400604248047,-0.7367052435874939
1733513256748278000,5.467278076171875,-0.3311191499233246,-2.7662618160247803,-0.47957491874694824
1733513256758353000,5.477352783203125,-0.33107098937034607,-2.4772112369537354,-0.348139226436615
1733513256768429000,5.487428955078125,-0.3262762427330017,-2.1228177547454834,-0.29865261912345886
1733513256778504200,5.497504150390625,-0.2753647267818451,-1.686826229095459,-0.3093930184841156
1733513256788579000,5.5075791015625,-0.17400453984737396,-1.1843117475509644,-0.3564864695072174
1733513256798655000,5.517655029296875,-0.0765748918056488,-0.6205529570579529,-0.43949317932128906
1733513256808730000,5.527730224609375,-0.043652892112731934,-0.022811224684119225,-0.5317456722259521
1733513256818806300,5.53780615234375,-0.07312792539596558,0.5176429152488708,-0.5978953242301941
1733513256828881200,5.547881103515625,-0.12021314352750778,0.925959050655365,-0.6233788132667542
1733513256838957000,5.55795703125,-0.16467413306236267,1.138023018836975,-0.6256614923477173
1733513256849032200,5.5680322265625,-0.1915140002965927,1.1387628316879272,-0.6329771876335144
1733513256859108000,5.578108154296875,-0.20680344104766846,0.9428103566169739,-0.6701503396034241
1733513256869183000,5.588182861328125,-0.19603705406188965,0.590584397315979,-0.7456746697425842
1733513256879259100,5.598259033203125,-0.17100699245929718,0.15964509546756744,-0.8461870551109314
1733513256889334000,5.608333984375,-0.12433455884456635,-0.32786092162132263,-0.9427178502082825
1733513256899410000,5.618409912109375,-0.07540974766016006,-0.8107372522354126,-1.0195001363754272
1733513256909485000,5.628485107421875,-0.04205232113599777,-1.2420181035995483,-1.0810471773147583
1733513256919561200,5.638561279296875,-0.03371204808354378,-1.6180000305175781,-1.1538437604904175
1733513256929636000,5.648635986328125,-0.02752978727221489,-1.9473145008087158,-1.257067084312439
1733513256939712500,5.65871240234375,0.013618722558021545,-2.207359790802002,-1.3794084787368774
1733513256949787600,5.66878759765625,0.106102854013443,-2.3284757137298584,-1.466484785079956
1733513256959863600,5.678863525390625,0.2496728003025055,-2.2660510540008545,-1.4317277669906616
1733513256969938400,5.6889384765625,0.4089202284812927,-2.001751661300659,-1.2214150428771973
1733513256980014600,5.6990146484375,0.5170902609825134,-1.5774695873260498,-0.8655087351799011
1733513256990089700,5.70908984375,0.5282299518585205,-1.0668692588806152,-0.4825531244277954
1733513257000165400,5.719165283203125,0.4457707107067108,-0.5793201327323914,-0.2144266963005066
1733513257010240500,5.729240478515625,0.3014718294143677,-0.2161715179681778,-0.15897515416145325
1733513257020316700,5.739316650390625,0.14484794437885284,-0.04440203309059143,-0.2957901954650879
1733513257030391800,5.749391845703125,0.037727080285549164,-0.034017037600278854,-0.4820586144924164
1733513257040467500,5.759467529296875,0.007594859227538109,-0.10273163765668869,-0.5869050025939941
1733513257050542600,5.76954248046875,-0.038037076592445374,-0.21142801642417908,-0.5879199504852295
1733513257060618800,5.77961865234375,-0.17458418011665344,-0.39432206749916077,-0.5353348851203918
1733513257070693400,5.789693359375,-0.404411256313324,-0.6542713046073914,-0.4397711455821991
1733513257080769500,5.79976953125,-0.6955068111419678,-0.9615402221679688,-0.27763527631759644
1733513257090844700,5.8098447265625,-1.009604573249817,-1.2939159870147705,-0.02068391814827919
1733513257100920600,5.819920654296875,-1.2848068475723267,-1.782637119293213,0.4650535583496094
1733513257110995500,5.829995361328125,-1.4592313766479492,-2.4181270599365234,1.6394404172897339
1733513257121071600,5.840071533203125,-1.670201063156128,-2.0874640941619873,2.788149356842041
1733513257131146800,5.850146728515625,-1.8254992961883545,-1.1735516786575317,3.614475727081299
1733513257141222400,5.860222412109375,-1.8124384880065918,-0.04319203272461891,4.136163234710693
1733513257151297500,5.870297607421875,-1.6642998456954956,1.2065476179122925,4.478602409362793
1733513257161372700,5.88037255859375,-1.4340300559997559,2.492499828338623,4.753527641296387
1733513257171448600,5.890448486328125,-1.1216918230056763,3.6385982036590576,4.994440078735352
1733513257181523500,5.9005234375,-0.8086948990821838,4.638999938964844,5.204059600830078
1733513257191599600,5.910599609375,-0.5686652660369873,5.434971332550049,5.277560710906982
1733513257201674500,5.920674560546875,-0.5787955522537231,6.167141914367676,5.05118989944458
1733513257211750400,5.93075048828125,-0.6882855892181396,6.46254825592041,4.511118412017822
1733513257221825500,5.940825439453125,-0.6650797128677368,5.803239822387695,3.750523805618286
1733513257231901700,5.950901611328125,-0.5325733423233032,4.235680103302002,2.8676154613494873
1733513257241976600,5.9609765625,-0.3945295214653015,1.9821091890335083,2.119532346725464
1733513257252052500,5.971052490234375,-0.37513425946235657,0.03783940151333809,1.6109514236450195
1733513257262127600,5.981127685546875,-0.42447999119758606,-1.1995930671691895,1.2534401416778564
1733513257272203800,5.991203857421875,-0.4614742398262024,-2.163419246673584,1.0035133361816406
1733513257282278700,6.001278564453125,-0.5415295362472534,-2.8542463779449463,0.7385838031768799
1733513257292354600,6.0113544921875,-0.6883469223976135,-3.2613649368286133,0.47301173210144043
1733513257302429700,6.0214296875,-0.832297682762146,-3.474112033843994,0.23756390810012817
1733513257312505600,6.031505615234375,-0.9289520382881165,-3.475407123565674,0.08360549807548523
1733513257322580500,6.04158056640625,-0.9561667442321777,-3.149954319000244,-0.029355870559811592
1733513257332656600,6.05165673828125,-0.8754085302352905,-2.463956594467163,-0.11040704697370529
1733513257342731500,6.0617314453125,-0.7334967255592346,-1.4139341115951538,-0.15039095282554626
1733513257352807400,6.071807373046875,-0.565060555934906,-0.12060476839542389,-0.13217918574810028
1733513257362882600,6.081882568359375,-0.39698585867881775,1.0923349857330322,-0.028723174706101418
1733513257372958700,6.091958740234375,-0.2210736721754074,2.00146222114563,0.1708541214466095
1733513257383033600,6.10203369140625,-0.06559005379676819,2.566089391708374,0.4488391578197479
1733513257393109500,6.112109619140625,0.014400120824575424,2.854168653488159,0.7293893694877625
1733513257403184600,6.1221845703125,0.013890757225453854,2.9072518348693848,0.95556640625
1733513257413260500,6.132260498046875,-0.023615606129169464,2.778778553009033,1.0714507102966309
1733513257423335700,6.142335693359375,-0.050030406564474106,2.520838499069214,1.0596752166748047
1733513257433411600,6.15241162109375,-0.06351132690906525,2.1862170696258545,0.9295403957366943
1733513257443486700,6.16248681640625,-0.07403737306594849,1.7478907108306885,0.7225172519683838
1733513257453562600,6.172562744140625,-0.1241530030965805,1.2789199352264404,0.4540855586528778
1733513257463637500,6.182637451171875,-0.20750118792057037,0.810564398765564,0.17888058722019196
1733513257473713700,6.192713623046875,-0.29179075360298157,0.3300286829471588,-0.09646683186292648
1733513257483788500,6.20278857421875,-0.35843807458877563,-0.16599246859550476,-0.3669778108596802
1733513257493864400,6.212864501953125,-0.39159923791885376,-0.6318182349205017,-0.6431806087493896
1733513257503939600,6.222939697265625,-0.37184327840805054,-0.999944269657135,-0.9368332028388977
1733513257514015700,6.233015625,-0.2887185513973236,-1.2172456979751587,-1.2449798583984375
1733513257524090600,6.243090576171875,-0.1690777987241745,-1.2859159708023071,-1.587873935699463
1733513257534166500,6.25316650390625,-0.02682558074593544,-1.1751739978790283,-1.9941397905349731
1733513257544241700,6.26324169921875,0.1001618355512619,-0.8177764415740967,-2.5072519779205322
1733513257554317600,6.273317626953125,0.2316865622997284,-0.17999142408370972,-3.062065601348877
1733513257564392400,6.283392333984375,0.37739983201026917,0.7059385776519775,-2.3727827072143555
1733513257574468600,6.293468505859375,0.34937965869903564,0.9088349342346191,-0.7206414937973022
1733513257584543500,6.30354345703125,0.2935870587825775,0.43472230434417725,0.503031313419342
1733513257594619400,6.313619384765625,0.33270516991615295,0.15582408010959625,0.8756749629974365
1733513257604694500,6.323694580078125,0.43873125314712524,0.3859858214855194,0.8115444779396057
1733513257614770700,6.333770751953125,0.5559065937995911,0.7285064458847046,0.64571613073349
1733513257624845600,6.343845458984375,0.5981313586235046,0.8169782161712646,0.38682442903518677
1733513257634921500,6.35392138671875,0.528243899345398,0.6627534627914429,0.13097375631332397
1733513257644996600,6.36399658203125,0.36679527163505554,0.5031201839447021,-0.028379224240779877
1733513257655071500,6.374071533203125,0.20653797686100006,0.386078804731369,-0.08416339755058289
1733513257665147600,6.384147705078125,0.13555660843849182,0.18054592609405518,-0.06860800832509995
1733513257675222500,6.394222412109375,0.18227218091487885,-0.23557725548744202,-0.02879108116030693
1733513257685298700,6.404298583984375,0.2690185308456421,-0.7357968091964722,-0.024023227393627167
1733513257695373600,6.41437353515625,0.33654457330703735,-1.2242441177368164,-0.06358928233385086
1733513257705449500,6.424449462890625,0.38390541076660156,-1.642842173576355,-0.10012894868850708
1733513257715524600,6.434524658203125,0.4385998249053955,-1.9014596939086914,-0.15379776060581207
1733513257725600500,6.4446005859375,0.5265259742736816,-1.9768650531768799,-0.2956267297267914
1733513257735675600,6.454675537109375,0.6241334676742554,-1.8760242462158203,-0.6485317945480347
1733513257745751600,6.46475146484375,0.689593493938446,-1.571339726448059,-1.287027359008789
1733513257755826400,6.474826416015625,0.6436321139335632,-1.2411178350448608,-1.9191361665725708
1733513257765902600,6.484902587890625,0.4665141701698303,-1.160712480545044,-2.2378220558166504
1733513257775977700,6.494977783203125,0.19574740529060364,-1.3222949504852295,-2.202512741088867
1733513257786053600,6.5050537109375,-0.025710677728056908,-1.605201244354248,-1.9363293647766113
1733513257796128500,6.51512841796875,-0.09147743880748749,-1.9101063013076782,-1.5475938320159912
1733513257806204700,6.52520458984375,-0.005839272402226925,-2.0923500061035156,-1.1526765823364258
1733513257816279600,6.535279541015625,0.15754513442516327,-2.0881030559539795,-0.8036419153213501
1733513257826355500,6.54535546875,0.33726269006729126,-2.028404951095581,-0.4900115728378296
1733513257836430600,6.5554306640625,0.5538514256477356,-2.2077503204345703,-0.16436342895030975
1733513257846506500,6.565506591796875,0.8299451470375061,-2.4749631881713867,0.19787397980690002
1733513257856581600,6.57558154296875,1.1043649911880493,-2.468451976776123,0.4933317303657532
1733513257866657500,6.585657470703125,1.3164353370666504,-1.9564125537872314,0.6042320132255554
1733513257876732700,6.595732666015625,1.4323188066482544,-0.6521883010864258,0.4308287799358368
1733513257886808600,6.60580859375,1.4181241989135742,1.2951300144195557,-0.09033020585775375
1733513257896883500,6.615883544921875,1.2457945346832275,3.2943975925445557,-0.8033037185668945
1733513257906959600,6.625959716796875,0.891736626625061,4.751636028289795,-1.3240938186645508
1733513257917034800,6.63603466796875,0.5371015667915344,5.508129596710205,-1.5003615617752075
1733513257927110700,6.646110595703125,0.3507647216320038,5.690106391906738,-1.470736026763916
1733513257937185500,6.656185546875,0.3108506202697754,5.02165412902832,-1.6116299629211426
1733513257947261700,6.66626171875,0.41342753171920776,3.15889310836792,-2.173076868057251
1733513257957336800,6.6763369140625,0.3614921569824219,1.0914353132247925,-2.667588472366333
1733513257967412700,6.686412841796875,0.15626251697540283,-0.6412935256958008,-2.6821277141571045
1733513257977488000,6.69648779296875,-0.12839451432228088,-1.7509512901306152,-2.2628326416015625
1733513257987563800,6.706563720703125,-0.3738044798374176,-2.3822383880615234,-1.640045166015625
1733513257997638700,6.716638671875,-0.4810827374458313,-2.7273428440093994,-1.0183643102645874
1733513258007714800,6.72671484375,-0.5026726722717285,-2.92920184135437,-0.526607871055603
1733513258017790000,6.7367900390625,-0.5181695818901062,-3.065091371536255,-0.2264898419380188
1733513258027865900,6.746865966796875,-0.5215504765510559,-3.1223928928375244,-0.09743406623601913
1733513258037940700,6.756940673828125,-0.473406046628952,-3.0982630252838135,-0.07627924531698227
1733513258048017000,6.767016845703125,-0.38556769490242004,-2.929774761199951,-0.09182051569223404
1733513258058091800,6.777091796875,-0.29650893807411194,-2.5954506397247314,-0.09657292813062668
1733513258068167700,6.787167724609375,-0.18750157952308655,-2.148009777069092,-0.10803446918725967
1733513258078242800,6.797242919921875,-0.11435146629810333,-1.5856319665908813,-0.15030443668365479
1733513258088318700,6.807318603515625,-0.1087498739361763,-0.9555970430374146,-0.23357172310352325
1733513258098393600,6.8173935546875,-0.14501839876174927,-0.3285483419895172,-0.33242881298065186
1733513258108469800,6.8274697265625,-0.16932272911071777,0.21966610848903656,-0.4176236391067505
1733513258118545000,6.837544921875,-0.16731977462768555,0.6253870129585266,-0.48500481247901917
1733513258128620800,6.847620849609375,-0.14129945635795593,0.843998372554779,-0.522973358631134
1733513258138695700,6.85769580078125,-0.12220006436109543,0.8943518400192261,-0.5382982492446899
1733513258148771800,6.867771728515625,-0.11479052156209946,0.8085768222808838,-0.5496535897254944
1733513258158847000,6.877846923828125,-0.11362192779779434,0.6185286045074463,-0.5683404207229614
1733513258168923000,6.8879228515625,-0.10992499440908432,0.33140090107917786,-0.61055988073349
1733513258178997800,6.897997802734375,-0.10432729870080948,-0.06139140576124191,-0.6850717067718506
1733513258189074000,6.908073974609375,-0.08180341124534607,-0.5334275960922241,-0.7970603108406067
1733513258199148800,6.918148681640625,-0.03709879145026207,-1.0497710704803467,-0.9572553038597107
1733513258209224700,6.928224609375,0.04477863013744354,-1.580743432044983,-1.1673671007156372
1733513258219299800,6.9382998046875,0.16225653886795044,-2.0579111576080322,-1.375529408454895
1733513258229375700,6.948375732421875,0.316707044839859,-2.364438772201538,-1.4916361570358276
1733513258239450600,6.95845068359375,0.4483111500740051,-2.420928478240967,-1.442225694656372
1733513258249526800,6.96852685546875,0.5243585109710693,-2.254753589630127,-1.2502120733261108
1733513258259602000,6.978601806640625,0.5740517377853394,-1.9594101905822754,-0.9983100295066833
1733513258269677800,6.988677734375,0.5842581391334534,-1.618154525756836,-0.7638641595840454
1733513258279752700,6.998752685546875,0.5387140512466431,-1.2757929563522339,-0.5818557143211365
1733513258289827800,7.008827880859375,0.4412948489189148,-0.9406077265739441,-0.4524417817592621
1733513258299903700,7.01890380859375,0.3084813952445984,-0.6128077507019043,-0.37141430377960205
1733513258309978600,7.028978515625,0.17717915773391724,-0.33063337206840515,-0.34565451741218567
1733513258320054800,7.0390546875,0.044463708996772766,-0.08979945629835129,-0.35935354232788086
1733513258330130000,7.0491298828125,-0.07006246596574783,0.0716019868850708,-0.39295241236686707
1733513258340205600,7.05920556640625,-0.1643703132867813,0.10819275677204132,-0.4347110390663147
1733513258350280700,7.06928076171875,-0.2612205743789673,0.043217092752456665,-0.4485103189945221
1733513258360356900,7.07935693359375,-0.3828292787075043,-0.11335094273090363,-0.4109986424446106
1733513258370432000,7.089431884765625,-0.5264469385147095,-0.31905004382133484,-0.3124723434448242
1733513258380507600,7.099507568359375,-0.6689348816871643,-0.5688066482543945,-0.1609555333852768
1733513258390582800,7.109582763671875,-0.8367230892181396,-0.8864848017692566,0.03229701146483421
1733513258400659000,7.119658935546875,-1.0202921628952026,-1.3315677642822266,0.25000429153442383
1733513258410733800,7.12973388671875,-1.1425632238388062,-2.0756490230560303,0.941966712474823
1733513258420809700,7.139809814453125,-1.2604402303695679,-2.0846567153930664,1.9850223064422607
1733513258430884900,7.149884765625,-1.397148609161377,-1.3514472246170044,2.892997980117798
1733513258440960800,7.159960693359375,-1.42252779006958,-0.3976968824863434,3.5399467945098877
1733513258451035600,7.17003564453125,-1.3204562664031982,0.5598676800727844,4.012950897216797
1733513258461111800,7.18011181640625,-1.0127371549606323,1.4803000688552856,4.381321430206299
1733513258471187000,7.19018701171875,-0.6615067720413208,2.6115689277648926,4.668323040008545
1733513258481262600,7.2002626953125,-0.3584464490413666,3.6495163440704346,4.880765914916992
1733513258491337700,7.210337646484375,-0.19024226069450378,4.591063976287842,4.974597454071045
1733513258501414000,7.220413818359375,-0.14040200412273407,5.6000075340271,4.79071569442749
1733513258511488800,7.23048876953125,-0.14373156428337097,6.3119025230407715,4.300264835357666
1733513258521564700,7.240564697265625,-0.12465134263038635,6.174237251281738,3.4880781173706055
1733513258531639800,7.250639892578125,-0.08476138859987259,5.126707553863525,2.5609922409057617
1733513258541716000,7.260716064453125,-0.16117039322853088,3.581136703491211,1.7579485177993774
1733513258551790600,7.27079052734375,-0.36069822311401367,2.0078790187835693,1.2436933517456055
1733513258561866800,7.28086669921875,-0.5104163289070129,0.6860423684120178,1.0076097249984741
1733513258571942000,7.29094189453125,-0.507542610168457,-0.5296111702919006,0.920453667640686
1733513258582017800,7.301017822265625,-0.48216962814331055,-1.5533838272094727,0.9126654863357544
1733513258592092700,7.3110927734375,-0.5669564604759216,-2.385786771774292,0.8866730332374573
1733513258602168800,7.3211689453125,-0.7587993741035461,-3.0524322986602783,0.8113705515861511
1733513258612244000,7.331243896484375,-1.0058166980743408,-3.4823122024536133,0.6607381105422974
1733513258622319600,7.341319580078125,-1.260986328125,-3.547074317932129,0.4288475811481476
1733513258632394800,7.351394775390625,-1.4536213874816895,-3.2758750915527344,0.18239256739616394
1733513258642471000,7.361470947265625,-1.5479049682617188,-2.6632118225097656,-0.0038121971301734447
1733513258652545800,7.3715458984375,-1.5287402868270874,-1.6268310546875,-0.08487934619188309
1733513258662621700,7.38162158203125,-1.3763798475265503,-0.34508463740348816,-0.03755497559905052
1733513258672696800,7.39169677734375,-1.1542346477508545,0.8287155032157898,0.17765533924102783
1733513258682773000,7.40177294921875,-0.8721408843994141,1.6184321641921997,0.5010243654251099
1733513258692847600,7.41184765625,-0.5633077621459961,1.973395586013794,0.8536244630813599
1733513258702923800,7.421923828125,-0.28248509764671326,2.078834295272827,1.1102458238601685
1733513258712999000,7.4319990234375,-0.06749794632196426,2.09915828704834,1.2102636098861694
1733513258723074600,7.442074462890625,0.09177959710359573,2.1658644676208496,1.1354846954345703
1733513258733149700,7.452149658203125,0.1790602058172226,2.2302703857421875,0.9329888224601746
1733513258743225900,7.462225830078125,0.21276943385601044,2.221687078475952,0.657985508441925
1733513258753300700,7.47230078125,0.2106439620256424,2.052948474884033,0.37169355154037476
1733513258763376600,7.482376708984375,0.2022733837366104,1.7052847146987915,0.11516323685646057
1733513258773451800,7.49245166015625,0.190416157245636,1.2701282501220703,-0.10183276236057281
1733513258783528000,7.50252783203125,0.18412230908870697,0.8130773901939392,-0.31080299615859985
1733513258793602800,7.512602783203125,0.19349053502082825,0.3958139717578888,-0.5451300144195557
1733513258803678700,7.5226787109375,0.21601209044456482,0.0445275716483593,-0.8151953220367432
1733513258813753900,7.53275390625,0.23256202042102814,-0.2541349530220032,-1.1153564453125
1733513258823830000,7.542830078125,0.22553738951683044,-0.5560146570205688,-1.4602848291397095
1733513258833904600,7.552904541015625,0.19303809106349945,-0.8986545205116272,-1.8654924631118774
1733513258843980800,7.562980712890625,0.14371395111083984,-1.325324296951294,-2.3701553344726562
1733513258854056000,7.573055908203125,0.14262640476226807,-1.8019174337387085,-2.9256107807159424
1733513258864131600,7.583131591796875,0.17467620968818665,-2.9526004791259766,-2.536694288253784
1733513258874206700,7.593206787109375,0.1889827698469162,-3.0251777172088623,-1.2639518976211548
1733513258884283000,7.603282958984375,0.3821317255496979,-1.2867575883865356,-0.41002288460731506
1733513258894357800,7.613357666015625,0.5918490290641785,0.46691641211509705,-0.009071198292076588
1733513258904433700,7.62343359375,0.6925545930862427,1.2767325639724731,0.014062084257602692
1733513258914508800,7.6335087890625,0.6695134043693542,1.5126274824142456,-0.12867993116378784
1733513258924585000,7.6435849609375,0.5538060069084167,1.595454454421997,-0.24568404257297516
1733513258934659800,7.653659912109375,0.36448541283607483,1.5862067937850952,-0.1950751096010208
1733513258944735200,7.6637353515625,0.1422816514968872,1.3666703701019287,0.004792478866875172
1733513258954810400,7.673810302734375,-0.021480020135641098,0.845805823802948,0.2079792618751526
1733513258964886300,7.68388623046875,-0.07926396280527115,0.15798988938331604,0.28787195682525635
1733513258974961400,7.69396142578125,-0.016201071441173553,-0.4859025180339813,0.22905820608139038
1733513258985037300,7.704037353515625,0.1488233059644699,-1.0039315223693848,0.08978661149740219
1733513258995112200,7.7141123046875,0.33056679368019104,-1.3968777656555176,-0.08880095183849335
1733513259005188400,7.724188232421875,0.44765371084213257,-1.6639126539230347,-0.3015528917312622
1733513259015263200,7.73426318359375,0.44342178106307983,-1.7675559520721436,-0.6170084476470947
1733513259025339400,7.74433935546875,0.3414672017097473,-1.6578168869018555,-1.1042370796203613
1733513259035414300,7.754414306640625,0.1618630737066269,-1.4133418798446655,-1.579361915588379
1733513259045490200,7.764490234375,-0.007348854560405016,-1.26259446144104,-1.823313593864441
1733513259055565300,7.7745654296875,-0.11545761674642563,-1.2092714309692383,-1.7695173025131226
1733513259065641200,7.78464111328125,-0.16837754845619202,-1.2555513381958008,-1.4797194004058838
1733513259075716400,7.79471630859375,-0.13645324110984802,-1.284053087234497,-1.075472354888916
1733513259085792300,7.804792236328125,-0.025516338646411896,-1.1639221906661987,-0.688342273235321
1733513259095867400,7.814867431640625,0.13300351798534393,-0.9380330443382263,-0.378872811794281
1733513259105943300,7.824943359375,0.350067675113678,-0.6176342368125916,-0.1464715451002121
1733513259116018200,7.83501806640625,0.5879496335983276,-0.3624956011772156,0.04797294735908508
1733513259126094300,7.84509423828125,0.8142373561859131,-0.30638545751571655,0.2289017140865326
1733513259136169200,7.855169189453125,1.027341604232788,-0.14306238293647766,0.3399009704589844
1733513259146245000,7.8652451171875,1.2361654043197632,0.33389830589294434,0.36746495962142944
1733513259156320300,7.8753203125,1.3486732244491577,1.0513889789581299,0.26925957202911377
1733513259166396400,7.885396484375,1.2620840072631836,1.9329309463500977,0.005713962949812412
1733513259176471300,7.89547119140625,0.9970678091049194,2.872640371322632,-0.39375659823417664
1733513259186547200,7.905547119140625,0.6494433283805847,3.777583122253418,-0.7971884608268738
1733513259196622300,7.915622314453125,0.33814582228660583,4.504833698272705,-1.0888621807098389
1733513259206698200,7.9256982421875,0.20895428955554962,4.67271089553833,-1.283200979232788
1733513259216773400,7.9357734375,0.24182263016700745,4.11981725692749,-1.6190826892852783
1733513259226849300,7.945849365234375,0.34119394421577454,2.914418935775757,-2.0662691593170166
1733513259236924200,7.955924072265625,0.27081575989723206,1.6684941053390503,-2.3657124042510986
1733513259247000300,7.966000244140625,0.14683179557323456,0.46807852387428284,-2.3171589374542236
1733513259257075200,7.9760751953125,0.00827843975275755,-0.4810081422328949,-1.9742976427078247
1733513259267151400,7.9861513671875,-0.13766518235206604,-1.1421384811401367,-1.4949345588684082
1733513259277226200,7.996226318359375,-0.24845318496227264,-1.667980670928955,-1.0090035200119019
1733513259287302100,8.00630224609375,-0.3192455768585205,-2.030982255935669,-0.6269446015357971
1733513259297377300,8.016377197265625,-0.40812766551971436,-2.3112094402313232,-0.3850535452365875
1733513259307453400,8.026453369140626,-0.47732672095298767,-2.4820895195007324,-0.2548483908176422
1733513259317528300,8.0365283203125,-0.46895527839660645,-2.475158452987671,-0.18143640458583832
1733513259327604200,8.046604248046876,-0.39692580699920654,-2.2920660972595215,-0.14696338772773743
1733513259337679400,8.056679443359375,-0.32407522201538086,-1.9470962285995483,-0.15377062559127808
1733513259347755300,8.06675537109375,-0.23675790429115295,-1.527986764907837,-0.20705382525920868
1733513259357830400,8.076830322265625,-0.17998790740966797,-1.094875454902649,-0.28563952445983887
1733513259367906300,8.08690625,-0.15160153806209564,-0.6296870708465576,-0.37148863077163696
1733513259377981200,8.096981201171875,-0.15251919627189636,-0.14225265383720398,-0.44571006298065186
1733513259388057300,8.107057373046874,-0.17235521972179413,0.3199794292449951,-0.5049558281898499
1733513259398132200,8.11713232421875,-0.17269320785999298,0.65822833776474,-0.5371537208557129
1733513259408208400,8.12720849609375,-0.1622067391872406,0.8303614854812622,-0.5475848317146301
1733513259418283300,8.137283203125,-0.13697177171707153,0.8539159893989563,-0.5613055229187012
1733513259428359200,8.147359130859375,-0.11244378238916397,0.7289509177207947,-0.6029632091522217
1733513259438434300,8.157434326171876,-0.10208947211503983,0.4907163083553314,-0.6851457357406616
1733513259448510200,8.16751025390625,-0.09567205607891083,0.1606888771057129,-0.8108370900154114
1733513259458585300,8.17758544921875,-0.08878132700920105,-0.2118288278579712,-0.988935112953186
1733513259468661200,8.1876611328125,-0.0810520350933075,-0.6121165752410889,-1.1989089250564575
1733513259478736400,8.197736328125,-0.06968050450086594,-1.0274347066879272,-1.4378741979599
1733513259488812300,8.207812255859375,-0.0458952821791172,-1.4457542896270752,-1.6585304737091064
1733513259498887400,8.217887451171874,0.002575247548520565,-1.8539625406265259,-1.8173707723617554
1733513259508963300,8.22796337890625,0.06833348423242569,-2.173069477081299,-1.8717759847640991
1733513259519038200,8.2380380859375,0.15295127034187317,-2.3527426719665527,-1.8095747232437134
1733513259529114400,8.2481142578125,0.228562131524086,-2.393739700317383,-1.633540391921997
1733513259539189200,8.258189208984374,0.2868189215660095,-2.291734457015991,-1.358422875404358
1733513259549265400,8.268265380859376,0.30067479610443115,-2.0385265350341797,-1.0214933156967163
1733513259559340300,8.27834033203125,0.29494142532348633,-1.690117597579956,-0.6811926364898682
1733513259569416200,8.288416259765626,0.27798667550086975,-1.2905142307281494,-0.4251568615436554
1733513259579491300,8.2984912109375,0.2486073076725006,-0.9032458662986755,-0.2708861827850342
1733513259589567200,8.308567138671876,0.210601344704628,-0.5299604535102844,-0.19831211864948273
1733513259599642400,8.318642333984375,0.1636379063129425,-0.20080362260341644,-0.1968369483947754
1733513259609718300,8.32871826171875,0.11521817743778229,0.028065789490938187,-0.2652468681335449
1733513259619793200,8.338793212890625,0.034013666212558746,0.10820849984884262,-0.36977481842041016
1733513259629869300,8.348869384765624,-0.09592995047569275,0.06463145464658737,-0.41210469603538513
1733513259639944200,8.358944091796875,-0.2552407681941986,-0.07182082533836365,-0.3440513610839844
1733513259650020400,8.369020263671874,-0.4294556975364685,-0.3210676908493042,-0.14985738694667816
1733513259660095200,8.37909521484375,-0.6048952341079712,-0.7015853524208069,0.25034135580062866
1733513259670171100,8.389171142578125,-0.7318827509880066,-1.3633233308792114,1.328715205192566
1733513259680246300,8.399246337890625,-0.9130755066871643,-1.3625260591506958,2.532554864883423
1733513259690322400,8.409322509765625,-1.088897705078125,-0.7551950812339783,3.372772216796875
1733513259700397300,8.419397216796876,-1.1572396755218506,0.06658486276865005,3.8461570739746094
1733513259710473200,8.42947314453125,-1.1415867805480957,0.9553461074829102,4.111879348754883
1733513259720548400,8.43954833984375,-1.0773404836654663,1.6337716579437256,4.329128265380859
1733513259730624300,8.449624267578125,-0.879367470741272,2.3042032718658447,4.521539688110352
1733513259740699400,8.459699462890624,-0.6003068685531616,2.9976534843444824,4.728960037231445
1733513259750775300,8.469775390625,-0.3322543203830719,3.779871702194214,4.965928077697754
1733513259760850200,8.47985009765625,-0.1682157665491104,4.572370529174805,5.067873001098633
1733513259770926300,8.48992626953125,-0.19506016373634338,4.895278453826904,4.880978107452393
1733513259781001200,8.500001220703124,-0.263506144285202,4.637777328491211,4.367274284362793
1733513259791077400,8.510077392578125,-0.2508159279823303,3.7063584327697754,3.5908589363098145
1733513259801152300,8.52015234375,-0.15093624591827393,2.268458843231201,2.6935856342315674
1733513259811228200,8.530228271484376,-0.1333194375038147,1.1418057680130005,1.872037649154663
1733513259821303300,8.54030322265625,-0.2693871557712555,0.6378045082092285,1.2796937227249146
1733513259831379200,8.550379150390626,-0.43944409489631653,0.3480139374732971,0.9591074585914612
1733513259841454300,8.560454345703125,-0.5309716463088989,0.013428857550024986,0.7660003304481506
1733513259851530200,8.5705302734375,-0.5229379534721375,-0.5065967440605164,0.5634418725967407
1733513259861605000,8.580605224609375,-0.5017757415771484,-1.1611981391906738,0.3584015667438507
1733513259871681300,8.590681396484374,-0.5581907629966736,-1.7956264019012451,0.17735829949378967
1733513259881756400,8.60075634765625,-0.716147780418396,-2.1755080223083496,0.04364270716905594
1733513259891832300,8.610832275390624,-0.9298632740974426,-2.208874225616455,-0.05501941964030266
1733513259901907200,8.6209072265625,-1.1161805391311646,-1.902157187461853,-0.0905579999089241
1733513259911983400,8.6309833984375,-1.2375249862670898,-1.2606841325759888,-0.03627638518810272
1733513259922058200,8.641058349609375,-1.2689056396484375,-0.21731124818325043,0.17768749594688416
1733513259932134400,8.651134521484375,-1.1918188333511353,1.007625937461853,0.6068181395530701
1733513259942209500,8.66120947265625,-1.0397738218307495,2.115713357925415,1.1488949060440063
1733513259952285200,8.67128515625,-0.8712970614433289,2.932352066040039,1.6297122240066528
1733513259962360300,8.6813603515625,-0.7372298836708069,3.407074451446533,1.9297869205474854
1733513259972436500,8.6914365234375,-0.6542452573776245,3.5848586559295654,2.0236241817474365
1733513259982511600,8.70151171875,-0.5947690606117249,3.487541675567627,1.928450345993042
1733513259992587300,8.711587158203125,-0.5389167070388794,3.1053638458251953,1.6765409708023071
1733513260002662400,8.721662353515624,-0.5039493441581726,2.58628249168396,1.3181476593017578
1733513260012738600,8.731738525390625,-0.4807681143283844,1.991721510887146,0.9059811234474182
1733513260022813400,8.7418134765625,-0.4693547487258911,1.3984661102294922,0.4844262897968292
1733513260032889300,8.751889404296875,-0.48153844475746155,0.8390557765960693,0.12324492633342743
1733513260042964500,8.761964599609374,-0.5188093781471252,0.3174631595611572,-0.15841874480247498
1733513260053040400,8.772040283203125,-0.5694003701210022,-0.174960657954216,-0.3994699716567993
1733513260063115300,8.782115234375,-0.6141937375068665,-0.6477808356285095,-0.6461650133132935
1733513260073191400,8.79219140625,-0.6253571510314941,-1.0634323358535767,-0.9094173908233643
1733513260083266600,8.8022666015625,-0.5833626389503479,-1.349758505821228,-1.1911261081695557
1733513260093342200,8.81234228515625,-0.49439844489097595,-1.5203752517700195,-1.5089242458343506
1733513260103417300,8.822417236328125,-0.33306676149368286,-1.5431184768676758,-1.8876286745071411
1733513260113493500,8.832493408203124,-0.10287484526634216,-1.3456354141235352,-2.339181661605835
1733513260123568400,8.842568359375,0.18327845633029938,-0.9466206431388855,-2.7862977981567383
1733513260133644300,8.852644287109374,0.4872697591781616,-0.5333079099655151,-2.3629415035247803
1733513260143719400,8.862719482421875,0.6217881441116333,-0.40181347727775574,-1.4013564586639404
1733513260153795600,8.872795654296874,0.6369122266769409,-0.22760945558547974,-0.6363360285758972
1733513260163870200,8.8828701171875,0.6859109401702881,0.3504108190536499,-0.36649706959724426
1733513260173946400,8.8929462890625,0.7451686859130859,1.124679446220398,-0.36390581727027893
1733513260184021500,8.903021484375,0.7767260670661926,1.6039717197418213,-0.42029881477355957
1733513260194097400,8.913097412109375,0.7624133825302124,1.6276389360427856,-0.5370084047317505
1733513260204172300,8.92317236328125,0.7169442772865295,1.3370881080627441,-0.7247651815414429
1733513260214248400,8.93324853515625,0.6654853224754333,0.9200957417488098,-0.9357346892356873
1733513260224323600,8.943323486328126,0.6288142204284668,0.4022984802722931,-1.0749865770339966
1733513260234399200,8.953399169921875,0.6111593246459961,-0.27323096990585327,-1.1123405694961548
1733513260244474400,8.963474365234376,0.5956953167915344,-1.001115083694458,-1.102970004081726
1733513260254550500,8.973550537109375,0.5822697877883911,-1.5934516191482544,-1.0820090770721436
1733513260264625400,8.98362548828125,0.5658968687057495,-2.002582311630249,-0.9915775656700134
1733513260274701300,8.993701416015625,0.4847772419452667,-2.3172919750213623,-0.7926886677742004
1733513260284776400,9.0037763671875,0.3154151141643524,-2.544788360595703,-0.5562654733657837
1733513260294852600,9.0138525390625,0.0909457877278328,-2.5597236156463623,-0.5085358023643494
1733513260304927200,9.02392724609375,-0.14134320616722107,-2.3367669582366943,-0.7788762450218201
1733513260315003400,9.03400341796875,-0.2994556128978729,-2.056363105773926,-1.1032335758209229
1733513260325078500,9.04407861328125,-0.4324291944503784,-1.8394198417663574,-1.2120305299758911
1733513260335154200,9.054154296875,-0.5291088819503784,-1.7957494258880615,-1.0816458463668823
1733513260345229300,9.064229248046875,-0.5816125869750977,-1.8831124305725098,-0.8001353740692139
1733513260355305500,9.074305419921876,-0.5231729745864868,-1.9898227453231812,-0.48564663529396057
1733513260365380600,9.084380615234375,-0.3373367488384247,-1.9700020551681519,-0.24946948885917664
1733513260375456300,9.094456298828124,-0.034134529531002045,-1.7906153202056885,-0.12675902247428894
1733513260385531400,9.104531494140625,0.3043975234031677,-1.569509506225586,-0.09979523718357086
1733513260395607600,9.114607666015624,0.6078876256942749,-1.5737804174423218,-0.1058315634727478
1733513260405682400,9.124682373046875,0.8506787419319153,-1.5858031511306763,-0.10831382870674133
1733513260415758300,9.13475830078125,1.045931100845337,-1.447158694267273,-0.12477881461381912
1733513260425833500,9.14483349609375,1.211824655532837,-1.0782188177108765,-0.21097053587436676
1733513260435909600,9.15490966796875,1.309860110282898,-0.3908446431159973,-0.3950546085834503
1733513260445984300,9.164984375,1.265577793121338,0.6169721484184265,-0.6473087668418884
1733513260456060400,9.175060302734375,1.0684751272201538,1.573550820350647,-0.9454906582832336
1733513260466135600,9.185135498046876,0.8042067885398865,2.3044164180755615,-1.1701968908309937
1733513260476211200,9.195211181640625,0.5860733985900879,2.7987918853759766,-1.2477220296859741
1733513260486286300,9.205286376953126,0.48796093463897705,2.9764750003814697,-1.2872636318206787
1733513260496362500,9.215362548828125,0.5543510913848877,2.846442937850952,-1.4466445446014404
1733513260506437400,9.225437255859376,0.7539383172988892,2.268291473388672,-1.8158869743347168
1733513260516513300,9.23551318359375,0.9356234073638916,1.3931025266647339,-2.246018409729004
1733513260526588400,9.24558837890625,0.8967116475105286,0.42686283588409424,-2.477621555328369
1733513260536664600,9.25566455078125,0.6119781732559204,-0.4542376399040222,-2.398872137069702
1733513260546739500,9.265739501953124,0.20779970288276672,-1.2253508567810059,-2.1050846576690674
1733513260556815400,9.2758154296875,-0.10715638101100922,-1.8688856363296509,-1.6828126907348633
1733513260566890500,9.285890380859374,-0.24027352035045624,-2.329784870147705,-1.2003505229949951
1733513260576966400,9.29596630859375,-0.23888681828975677,-2.596245050430298,-0.7404628396034241
1733513260587041300,9.306041259765625,-0.2150975912809372,-2.619220495223999,-0.3699939548969269
1733513260597117400,9.316117431640626,-0.24902519583702087,-2.40887451171875,-0.09104780107736588
1733513260607192600,9.326192626953125,-0.30826908349990845,-2.0390002727508545,0.12808533012866974
1733513260617268200,9.336268310546876,-0.33061379194259644,-1.5565118789672852,0.28086474537849426
1733513260627343400,9.34634326171875,-0.3124309480190277,-1.0337153673171997,0.37261292338371277
1733513260637419500,9.35641943359375,-0.27114954590797424,-0.5534805059432983,0.41330042481422424
1733513260647494400,9.366494384765625,-0.25339066982269287,-0.182058647274971,0.41709446907043457
1733513260657570300,9.3765703125,-0.2589641213417053,0.07564319670200348,0.4081946909427643
1733513260667645400,9.3866455078125,-0.27675768733024597,0.23558737337589264,0.3834545910358429
1733513260677721600,9.3967216796875,-0.2942839562892914,0.3255593478679657,0.3527190387248993
1733513260687796500,9.40679638671875,-0.3020467460155487,0.3777759373188019,0.3107868432998657
1733513260697872400,9.416872314453125,-0.3113211989402771,0.4062563180923462,0.24397026002407074
1733513260707947500,9.426947509765625,-0.30733543634414673,0.40341290831565857,0.10833979398012161
1733513260718023400,9.4370234375,-0.2798718512058258,0.3419458270072937,-0.08036620914936066
1733513260728098300,9.447098388671876,-0.21487654745578766,0.16152846813201904,-0.31471794843673706
1733513260738174500,9.457174560546875,-0.11042044311761856,-0.12131521850824356,-0.5509741306304932
1733513260748249300,9.467249267578126,0.02624402567744255,-0.5078067779541016,-0.7295249104499817
1733513260758325200,9.4773251953125,0.13881930708885193,-0.9711528420448303,-0.8182414770126343
1733513260768401400,9.4874013671875,0.19107571244239807,-1.404241681098938,-0.8187960386276245
1733513260778476500,9.4974765625,0.18198421597480774,-1.7467846870422363,-0.7722093462944031
1733513260788552400,9.507552490234374,0.16009679436683655,-1.9396321773529053,-0.7267153263092041
1733513260798627300,9.51762744140625,0.20003356039524078,-2.0173728466033936,-0.6828629374504089
1733513260808703500,9.527703369140625,0.26897427439689636,-2.076353073120117,-0.6575924754142761
1733513260818778600,9.537778564453125,0.2238246351480484,-2.1308577060699463,-0.6969425082206726
1733513260828854300,9.547854248046875,0.04175211116671562,-2.2343900203704834,-0.8315966725349426
1733513260838929400,9.557929443359376,-0.2214161455631256,-2.405132532119751,-0.9665489196777344
1733513260849005600,9.568005615234375,-0.4857127070426941,-2.608736276626587,-0.901735246181488
1733513260859080200,9.578080078125,-0.6799998879432678,-2.8237366676330566,-0.48635587096214294
1733513260869156400,9.58815625,-0.8092923760414124,-3.0171332359313965,0.4031311273574829
1733513260879231500,9.5982314453125,-0.9182683825492859,-2.9538161754608154,1.5814461708068848
1733513260889307400,9.608307373046875,-0.9837042689323425,-2.251059055328369,2.6035237312316895
1733513260899382300,9.61838232421875,-0.8798977136611938,-1.034515619277954,3.1965723037719727
1733513260909458400,9.62845849609375,-0.6182751059532166,0.40847331285476685,3.4279000759124756
1733513260919533600,9.638533447265624,-0.3196766674518585,1.8602654933929443,3.521348476409912
1733513260929609200,9.648609130859375,-0.11982843279838562,3.177870273590088,3.6407926082611084
1733513260939684400,9.658684326171874,7.683411240577698e-7,4.257523059844971,3.797075033187866
1733513260949760800,9.6687607421875,0.08205755054950714,5.022136211395264,3.90248703956604
1733513260959835600,9.678835693359375,0.08717604726552963,5.536498069763184,3.851116418838501
1733513260969911800,9.688911865234376,0.0029285158962011337,5.780766487121582,3.5161983966827393
1733513260979986700,9.698986572265625,-0.1235671117901802,5.5592041015625,2.906355857849121
1733513260990062600,9.7090625,-0.25619015097618103,4.607662200927734,2.3016974925994873
1733513261000137700,9.7191376953125,-0.38476571440696716,3.02030086517334,1.9538073539733887
1733513261010213600,9.729213623046874,-0.5629274845123291,1.1698486804962158,1.913880705833435
1733513261020288800,9.739288818359375,-0.8422091603279114,-0.4335545599460602,1.9698728322982788
1733513261030364700,9.74936474609375,-1.1557010412216187,-1.7855496406555176,1.9389866590499878
1733513261040439600,9.759439453125,-1.4326359033584595,-2.9072072505950928,1.7360756397247314
1733513261050515700,9.769515625,-1.6633855104446411,-3.805891752243042,1.335241675376892
1733513261060590800,9.7795908203125,-1.8494064807891846,-4.661470413208008,0.7908193469047546
1733513261070666800,9.789666748046875,-1.9335532188415527,-5.07589864730835,0.05487203225493431
1733513261080741600,9.79974169921875,-1.9703259468078613,-5.021938800811768,-0.6907443404197693
1733513261090817800,9.80981787109375,-1.9810442924499512,-4.302946090698242,-1.1606553792953491
1733513261100892700,9.819892578125,-1.8637309074401855,-2.707167148590088,-0.6306133270263672
1733513261110968600,9.829968505859375,-1.5679506063461304,-0.46441447734832764,0.6821467876434326
1733513261121043700,9.840043701171876,-1.262771725654602,1.692317008972168,1.851941704750061
1733513261131119600,9.85011962890625,-1.0015650987625122,2.9920406341552734,2.315025568008423
1733513261141194500,9.860194580078126,-0.7805311679840088,3.4000346660614014,2.17543888092041
1733513261151270700,9.870270751953125,-0.5780941843986511,3.1318771839141846,1.798556923866272
1733513261161345800,9.880345703125,-0.40102800726890564,2.5398800373077393,1.3853203058242798
1733513261171421700,9.890421630859375,-0.25634023547172546,1.8353888988494873,1.022891879081726
1733513261181496600,9.90049658203125,-0.17320938408374786,1.2151930332183838,0.7283398509025574
1733513261191572700,9.91057275390625,-0.14896230399608612,0.7649160623550415,0.4979519844055176
1733513261201647900,9.92064794921875,-0.14275261759757996,0.4582967460155487,0.3140135705471039
1733513261211723800,9.930723876953126,-0.12515577673912048,0.21815596520900726,0.14137311279773712
1733513261221798700,9.940798583984375,-0.12567269802093506,0.002269480377435684,-0.02749127335846424
1733513261231874800,9.950874755859376,-0.13556531071662903,-0.1917295753955841,-0.22313964366912842
1733513261241949700,9.96094970703125,-0.12761950492858887,-0.35067927837371826,-0.41514265537261963
1733513261252025600,9.971025634765626,-0.09244254231452942,-0.4528888165950775,-0.582366406917572
1733513261262100700,9.981100830078125,-0.029178354889154434,-0.49882060289382935,-0.7221717238426208
1733513261272176600,9.9911767578125,0.06011667102575302,-0.5010775923728943,-0.8161392211914062
1733513261282251500,10.00125146484375,0.16675148904323578,-0.4604584574699402,-0.8889082074165344
1733513261292327700,10.01132763671875,0.2909044325351715,-0.44957980513572693,-0.9489853382110596
1733513261302402800,10.02140283203125,0.395766943693161,-0.42473384737968445,-0.9757644534111023
1733513261312478700,10.031478759765625,0.46280911564826965,-0.29209551215171814,-0.9837318062782288
1733513261322553600,10.0415537109375,0.48785853385925293,-0.06010568514466286,-0.9766680002212524
1733513261332629800,10.051629638671875,0.4859996736049652,0.16959862411022186,-0.9236575365066528
1733513261342705000,10.061704833984376,0.4607638418674469,0.40972310304641724,-0.8244507908821106
1733513261352780800,10.07178076171875,0.3874610662460327,0.5293039679527283,-0.6600506901741028
1733513261362855700,10.081855712890626,0.24440564215183258,0.33514460921287537,-0.4566749632358551
1733513261372931800,10.091931884765625,0.04778610169887543,-0.10777590423822403,-0.29187560081481934
1733513261383007700,10.1020078125,-0.155935600399971,-0.4794386923313141,-0.22335565090179443
1733513261393082600,10.11208251953125,-0.3212592601776123,-0.552519679069519,-0.21740449965000153
1733513261403158800,10.12215869140625,-0.3854699432849884,-0.3645545244216919,-0.21630941331386566
1733513261413233700,10.132233642578125,-0.37147748470306396,-0.036686379462480545,-0.21529267728328705
1733513261423309800,10.142309814453125,-0.35766899585723877,0.29660850763320923,-0.18708820641040802
1733513261433384700,10.152384765625,-0.35899239778518677,0.5714629888534546,-0.17572592198848724
1733513261443460600,10.162460693359375,-0.302749365568161,0.5661004781723022,-0.2044832706451416
1733513261453535700,10.17253564453125,-0.21455544233322144,0.08759503066539764,-0.18868602812290192
1733513261463611600,10.182611572265625,-0.205344095826149,-0.7820320129394531,0.10534879565238953
1733513261473686800,10.192686767578126,-0.33925947546958923,-1.5270346403121948,0.6728479862213135
1733513261483762700,10.2027626953125,-0.3978540897369385,-1.3531049489974976,0.8056678175926208
1733513261493837600,10.212837646484376,-0.15206173062324524,-0.4733641743659973,-0.0002612890675663948
1733513261503913700,10.222913818359375,0.31189820170402527,0.10297556221485138,-0.6508707404136658
1733513261513988600,10.232988525390626,0.7527148723602295,0.4138060212135315,-0.7255241274833679
1733513261524064800,10.243064697265625,0.9719231128692627,0.7820321917533875,-0.28223374485969543
1733513261534139600,10.2531396484375,0.9468289017677307,1.2527350187301636,0.5315721035003662
1733513261544215600,10.263215576171875,0.7392533421516418,1.6171475648880005,1.1790426969528198
1733513261554290700,10.273290771484374,0.41834282875061035,1.8720179796218872,1.3714631795883179
1733513261564366800,10.283366943359376,0.08258559554815292,1.9830836057662964,1.1846797466278076
1733513261574441700,10.293441650390625,-0.14592266082763672,1.865514874458313,0.7802099585533142
1733513261584517600,10.303517578125,-0.22288455069065094,1.4255313873291016,0.21028685569763184
1733513261594592800,10.3135927734375,-0.09670829772949219,0.6631121635437012,-0.5043271780014038
1733513261604668700,10.323668701171876,0.17792671918869019,-0.10527157783508301,-1.1025621891021729
1733513261614743800,10.333743896484375,0.4546661376953125,-0.5574823021888733,-1.422326683998108
1733513261624819700,10.34381982421875,0.6893153786659241,-0.7663947939872742,-1.590126872062683
1733513261634894600,10.35389453125,0.8628714680671692,-1.0172044038772583,-1.8040965795516968
1733513261644970800,10.363970703125,0.9503821730613708,-1.569170594215393,-2.163486957550049
1733513261655045600,10.374045654296875,0.9180190563201904,-2.384939432144165,-2.5767762660980225
1733513261665121800,10.384121826171874,0.7622017860412598,-3.194870948791504,-2.7674174308776855
1733513261675196700,10.39419677734375,0.534928023815155,-3.762115478515625,-2.5495965480804443
1733513261685272600,10.4042724609375,0.31203338503837585,-3.786379814147949,-1.8833175897598267
1733513261695347700,10.41434765625,0.13059119880199432,-2.882457971572876,-1.2117817401885986
1733513261705423600,10.424423583984375,0.012523419223725796,-1.3522586822509766,-0.8649181723594666
1733513261715498800,10.434498779296876,0.03558369725942612,0.023453716188669205,-0.6847167015075684
1733513261725574700,10.44457470703125,0.1923762410879135,0.8322488069534302,-0.49710869789123535
1733513261735649500,10.4546494140625,0.38069456815719604,1.1642584800720215,-0.32106834650039673
1733513261745725700,10.4647255859375,0.5240805149078369,1.264416217803955,-0.22895759344100952
1733513261755800800,10.47480078125,0.6151877045631409,1.2185505628585815,-0.2517620623111725
1733513261765876700,10.484876708984375,0.6740919947624207,1.053984522819519,-0.36717307567596436
1733513261775951600,10.49495166015625,0.7113551497459412,0.8145796656608582,-0.5334678292274475
1733513261786027800,10.50502783203125,0.7294124364852905,0.566220223903656,-0.7106233835220337
1733513261796102700,10.5151025390625,0.7448691129684448,0.35687270760536194,-0.8900805711746216
1733513261806178800,10.5251787109375,0.7766627073287964,0.21067605912685394,-1.051497459411621
1733513261816253700,10.535253662109374,0.815990686416626,0.03524518385529518,-1.2089637517929077
1733513261826329600,10.54532958984375,0.844231367111206,-0.15961644053459167,-1.3312678337097168
1733513261836405800,10.55540576171875,0.8455166816711426,-0.4415895938873291,-1.3804824352264404
1733513261846480600,10.565480712890626,0.834196150302887,-0.5988247990608215,-1.284109354019165
1733513261856556500,10.575556640625,0.8152956366539001,-0.5074151754379272,-1.052977442741394
1733513261866631700,10.585631591796876,0.747161328792572,-0.2810182273387909,-0.8192008137702942
1733513261876707800,10.595707763671875,0.663496196269989,0.06462869793176651,-0.619385302066803
1733513261886782700,10.60578271484375,0.5930377244949341,0.4869093596935272,-0.4778744876384735
1733513261896858600,10.615858642578125,0.5663028359413147,0.868617057800293,-0.4038047790527344
1733513261906933800,10.625933837890624,0.5749391913414001,1.1594867706298828,-0.36248156428337097
1733513261917009700,10.636009765625,0.5975777506828308,1.3801225423812866,-0.32384029030799866
1733513261927084800,10.646084716796874,0.6301863193511963,1.521435260772705,-0.29788991808891296
1733513261937160700,10.65616064453125,0.6785485148429871,1.5887324810028076,-0.28281983733177185
1733513261947236400,10.666236328125,0.7106364369392395,1.579357624053955,-0.29034966230392456
1733513261957312000,10.67631201171875,0.7321844696998596,1.4997174739837646,-0.36675530672073364
1733513261967387100,10.68638720703125,0.760167121887207,1.3155122995376587,-0.5181283354759216
1733513261977463300,10.69646337890625,0.8109038472175598,1.0281418561935425,-0.7219845056533813
1733513261987538200,10.7065380859375,0.8778181672096252,0.6649439334869385,-0.9527639150619507
1733513261997614000,10.716614013671874,0.9735232591629028,0.2429593950510025,-1.2114489078521729
1733513262007689200,10.726689208984375,1.0836036205291748,-0.2176036834716797,-1.4733574390411377
1733513262017765400,10.736765380859374,1.158953070640564,-0.6886101961135864,-1.7036162614822388
1733513262027840300,10.74684033203125,1.1458865404129028,-1.1602301597595215,-1.8609126806259155
1733513262037916200,10.756916259765624,1.0151304006576538,-1.7057443857192993,-1.9161630868911743
1733513262047991300,10.7669912109375,0.746978223323822,-2.3977978229522705,-1.8064544200897217
1733513262058067200,10.777067138671875,0.3460240364074707,-3.193434238433838,-1.3892576694488525
1733513262068142000,10.78714208984375,-0.0710802674293518,-3.7797021865844727,-0.5411739945411682
1733513262078218200,10.79721826171875,-0.409282922744751,-3.6959290504455566,0.5743846297264099
1733513262088293400,10.80729345703125,-0.6956315636634827,-2.8242082595825195,1.517886757850647
1733513262098369000,10.817369140625,-0.9550260901451111,-1.2532825469970703,2.0106263160705566
1733513262108444200,10.827444091796876,-1.12419855594635,0.6169646978378296,2.182284355163574
1733513262118520300,10.837520263671875,-1.1841025352478027,2.1242921352386475,2.3018994331359863
1733513262128595200,10.84759521484375,-1.134920358657837,3.016031503677368,2.4681060314178467
1733513262138671000,10.857671142578125,-1.0614720582962036,3.3857502937316895,2.6696012020111084
1733513262148746200,10.867746337890624,-1.0830327272415161,3.359821319580078,2.864445447921753
1733513262158822400,10.877822509765625,-1.1964917182922363,3.088435649871826,3.0031609535217285
1733513262168897000,10.88789697265625,-1.3095653057098389,2.7622735500335693,3.112539052963257
1733513262178973200,10.89797314453125,-1.3227765560150146,2.522470474243164,3.201540231704712
1733513262189048300,10.90804833984375,-1.2201939821243286,2.400866746902466,3.204599142074585
1733513262199124200,10.918124267578126,-1.0594087839126587,2.319363594055176,3.039266586303711
1733513262209199000,10.92819921875,-0.9258749485015869,2.1390974521636963,2.664350986480713
1733513262219275300,10.938275146484376,-0.8448330163955688,1.7298486232757568,2.095975875854492
1733513262229351200,10.94835107421875,-0.7802143692970276,1.1584405899047852,1.4272964000701904
1733513262239426000,10.958426025390626,-0.7551255226135254,0.4865225851535797,0.8126113414764404
1733513262249502200,10.968502197265625,-0.778472900390625,-0.21650904417037964,0.36050859093666077
1733513262259577300,10.978577392578124,-0.8039757013320923,-0.8885175585746765,0.0943673774600029
1733513262269653000,10.988653076171875,-0.8403372168540955,-1.547563910484314,-0.06095323711633682
1733513262279728000,10.99872802734375,-0.8900217413902283,-2.1736958026885986,-0.18067122995853424
1733513262289804300,11.00880419921875,-0.9521591663360596,-2.6731181144714355,-0.295915812253952
1733513262299879400,11.01887939453125,-1.0327486991882324,-3.039318561553955,-0.4215257465839386
1733513262309955000,11.028955078125,-1.1193493604660034,-3.2606875896453857,-0.5526006817817688
1733513262320030200,11.0390302734375,-1.1929631233215332,-3.2417757511138916,-0.6365432143211365
1733513262330106400,11.0491064453125,-1.2267568111419678,-2.892794370651245,-0.5399490594863892
1733513262340181000,11.059180908203125,-1.1669726371765137,-2.054752826690674,-0.16300612688064575
1733513262350257200,11.069257080078126,-1.0047178268432617,-0.808899462223053,0.3644457161426544
1733513262360332300,11.079332275390625,-0.7846667170524597,0.5251629948616028,0.8391141891479492
1733513262370408200,11.089408203125,-0.5621963739395142,1.658143401145935,1.1536623239517212
1733513262380483000,11.099483154296875,-0.40827861428260803,2.3496744632720947,1.2884618043899536
1733513262390559200,11.109559326171874,-0.325381338596344,2.5999724864959717,1.306142807006836
1733513262400634400,11.11963427734375,-0.28306958079338074,2.5831594467163086,1.2728897333145142
1733513262410710000,11.1297099609375,-0.27615416049957275,2.4144601821899414,1.2016794681549072
1733513262420785200,11.13978515625,-0.29856860637664795,2.198090076446533,1.10349440574646
1733513262430861300,11.149861328125,-0.3398324251174927,1.9761916399002075,0.977160632610321
1733513262440936200,11.159936279296875,-0.40427666902542114,1.7834714651107788,0.8177643418312073
1733513262451012000,11.17001220703125,-0.47096726298332214,1.6350764036178589,0.6226696968078613
1733513262461087200,11.180087158203126,-0.5258325934410095,1.4660283327102661,0.39833706617355347
1733513262471163400,11.190163330078125,-0.5333275198936462,1.2641119956970215,0.14044347405433655
1733513262481238000,11.200238037109376,-0.4504337012767792,1.0153892040252686,-0.15570460259914398
1733513262491314200,11.210314208984375,-0.3050581216812134,0.7241010665893555,-0.4650382101535797
1733513262501389300,11.220389404296874,-0.12603013217449188,0.43010959029197693,-0.7773442268371582
1733513262511465200,11.23046533203125,0.01911480911076069,0.203901469707489,-1.0959382057189941
1733513262521540000,11.2405400390625,0.14803656935691833,0.09743566066026688,-1.425595998764038
1733513262531616300,11.2506162109375,0.2558935284614563,0.16877855360507965,-1.7882639169692993
1733513262541691400,11.26069140625,0.3452130854129791,0.30869364738464355,-2.146981716156006
1733513262551767000,11.27076708984375,0.464399129152298,0.5390346646308899,-2.5302984714508057
1733513262561842200,11.28084228515625,0.7662394642829895,0.8216297626495361,-3.1376311779022217
1733513262571918300,11.29091845703125,1.1313530206680298,0.26567861437797546,-3.2783401012420654
1733513262581994200,11.300994140625,0.7502328753471375,-1.8306949138641357,-0.9566503763198853
1733513262592069000,11.311069091796876,0.4166106879711151,-1.4583820104599,0.3509158492088318
1733513262602145300,11.321145263671875,0.0363050140440464,0.15334030985832214,0.7625554203987122
1733513262612220200,11.33122021484375,-0.21551844477653503,1.3327711820602417,0.7725750803947449
1733513262622296000,11.341296142578125,-0.3020945191383362,2.0974619388580322,0.6835366487503052
1733513262632371200,11.35137109375,-0.2706433832645416,2.454512119293213,0.6840724945068359
1733513262642447400,11.361447265625,-0.21713873744010925,2.5138700008392334,0.7625535130500793
1733513262652522000,11.37152197265625,-0.2255801558494568,2.307865858078003,0.9705243110656738
1733513262662598100,11.38159814453125,-0.26771223545074463,1.919154405593872,1.1594204902648926
1733513262672673300,11.39167333984375,-0.22234155237674713,1.4139196872711182,1.2069247961044312
1733513262682749200,11.401749267578126,-0.00038245925679802895,0.4903714060783386,1.1754820346832275
1733513262692824000,11.411823974609375,0.3624386191368103,-0.7082579731941223,0.8251529932022095
1733513262702900200,11.421900146484376,0.7257656455039978,-1.9189791679382324,0.19695614278316498
1733513262712975400,11.431975341796875,0.8725425601005554,-2.8655436038970947,-0.19049464166164398
1733513262723051300,11.44205126953125,0.6924744844436646,-3.3266243934631348,-0.06375247985124588
1733513262733126100,11.452126220703125,0.1680312156677246,-3.1533665657043457,0.4106028378009796
1733513262743202300,11.462202392578124,-0.46342363953590393,-2.54164457321167,0.6441115736961365
1733513262753277200,11.472277099609375,-0.8120998740196228,-1.7936588525772095,0.5668596625328064
1733513262763353000,11.48235302734375,-0.7469367384910583,-1.123133897781372,0.37037625908851624
1733513262773428200,11.49242822265625,-0.28037139773368835,-0.5189887285232544,0.15354835987091064
1733513262783504100,11.502504150390624,0.39786863327026367,0.179909810423851,-0.10141413658857346
1733513262793579000,11.5125791015625,1.046829104423523,0.9947203993797302,-0.4582611918449402
1733513262803655200,11.5226552734375,1.44325852394104,1.9198905229568481,-0.8552157878875732
1733513262813730300,11.532730224609375,1.5462547540664673,2.515123128890991,-1.1087348461151123
1733513262823806200,11.54280615234375,1.446618676185608,2.421572208404541,-1.0500200986862183
1733513262833881000,11.552881103515626,1.2272391319274902,1.9088338613510132,-0.8293214440345764
1733513262843957200,11.562957275390625,0.9571807980537415,1.2996653318405151,-0.6762839555740356
1733513262854032400,11.573032470703126,0.6966621279716492,0.9430223703384399,-0.7648689150810242
1733513262864108000,11.58310791015625,0.4993206858634949,0.9654906988143921,-1.069728136062622
1733513262874184200,11.59318408203125,0.46272456645965576,1.1721251010894775,-1.4067414999008179
1733513262884259300,11.60325927734375,0.621009349822998,1.3135040998458862,-1.6670607328414917
1733513262894335200,11.613335205078124,0.765882134437561,1.2515310049057007,-1.9185419082641602
1733513262904410000,11.62341015625,0.7441684007644653,1.0827231407165527,-2.1397533416748047
1733513262914486300,11.633486328125,0.5369097590446472,0.8098439574241638,-2.376580238342285
1733513262924561200,11.64356103515625,0.2666192352771759,0.3418503999710083,-2.7437148094177246
1733513262934637300,11.65363720703125,0.18017272651195526,-0.3761274516582489,-3.1454343795776367
1733513262944711700,11.663711669921875,0.3138367533683777,-1.281882405281067,-3.4054014682769775
1733513262954787800,11.673787841796875,0.3737887442111969,-1.9964990615844727,-3.4498085975646973
1733513262964862500,11.683862548828126,0.29378071427345276,-2.265561580657959,-3.251620054244995
1733513262974938600,11.693938720703125,0.12448357790708542,-2.304696559906006,-2.8981852531433105
1733513262985013800,11.704013671875,-0.0328698605298996,-2.2261745929718018,-2.489258050918579
1733513262995089700,11.714089599609375,-0.1497674435377121,-2.1008026599884033,-2.131803035736084
1733513263005164500,11.72416455078125,-0.17745420336723328,-1.9584840536117554,-1.8719292879104614
1733513263015240700,11.73424072265625,-0.11874295771121979,-1.8092851638793945,-1.7077385187149048
1733513263025315800,11.74431591796875,-0.014125635847449303,-1.6414287090301514,-1.5904219150543213
1733513263035391500,11.7543916015625,0.08481452614068985,-1.358923316001892,-1.4667139053344727
1733513263045466600,11.764466552734374,0.1515565812587738,-1.0081863403320312,-1.3128464221954346
1733513263055542800,11.774542724609375,0.16728919744491577,-0.6370114684104919,-1.1380231380462646
1733513263065617700,11.78461767578125,0.134994775056839,-0.2912387549877167,-0.9840689301490784
1733513263075693600,11.794693603515626,0.07309092581272125,-0.011698739603161812,-0.8834158182144165
1733513263085768700,11.804768798828125,0.004506072495132685,0.16844895482063293,-0.8590134978294373
1733513263095844900,11.814844970703126,-0.05012841150164604,0.22976425290107727,-0.9242849349975586
1733513263105919500,11.82491943359375,-0.07106748223304749,0.16209068894386292,-1.0616755485534668
1733513263115995600,11.83499560546875,-0.05027351900935173,-0.024390242993831635,-1.239362120628357
1733513263126070800,11.84507080078125,-0.007174652069807053,-0.2870323061943054,-1.402332067489624
1733513263136146400,11.855146484375,0.04928728938102722,-0.6107813715934753,-1.531449794769287
1733513263146221600,11.8652216796875,0.1282258778810501,-0.9782917499542236,-1.6125110387802124
1733513263156297700,11.875297607421874,0.26495978236198425,-1.3278965950012207,-1.5673997402191162
1733513263166373600,11.88537353515625,0.41145092248916626,-1.5389279127120972,-1.324522852897644
1733513263176448500,11.895448486328124,0.4670768976211548,-1.5464966297149658,-0.9496003985404968
1733513263186524700,11.905524658203126,0.4185080826282501,-1.4127894639968872,-0.5304012894630432
1733513263196599800,11.915599853515625,0.3211548924446106,-1.2269638776779175,-0.1156245544552803
1733513263206675700,11.92567578125,0.21470199525356293,-1.0852869749069214,0.2954399883747101
1733513263216750600,11.93575048828125,0.08795708417892456,-0.9502444863319397,0.7044575810432434
1733513263226826800,11.94582666015625,-0.09721865504980087,-0.6970171928405762,1.127395749092102
1733513263236902000,11.95590185546875,-0.3387199640274048,-0.2629597783088684,1.4573390483856201
1733513263246977500,11.9659775390625,-0.631094753742218,0.2699413597583771,1.6030795574188232
1733513263257052700,11.976052734375,-0.8987245559692383,0.8412445783615112,1.6928088665008545
1733513263267128800,11.98612890625,-1.0676815509796143,1.4024661779403687,1.932737946510315
1733513263277203500,11.996203369140625,-1.128386378288269,1.9422073364257812,2.32059907913208
1733513263287279600,12.006279541015624,-1.1120848655700684,2.4476864337921143,2.756558656692505
1733513263297354800,12.016354736328125,-1.0225632190704346,2.6999778747558594,3.1580538749694824
1733513263307430700,12.0264306640625,-0.8731752038002014,2.8383562564849854,3.4568209648132324
1733513263317505500,12.036505615234375,-0.6810206770896912,2.9411580562591553,3.713350534439087
1733513263327581700,12.046581787109375,-0.4930439889431,2.9665305614471436,4.017658710479736
1733513263337656800,12.05665673828125,-0.3678474426269531,2.9833385944366455,4.408507347106934
1733513263347732500,12.066732421875,-0.39258870482444763,2.9784791469573975,4.792099952697754
1733513263357807600,12.0768076171875,-0.5027601718902588,2.7003209590911865,5.106460094451904
1733513263367883800,12.0868837890625,-0.6123707294464111,2.2139804363250732,5.1556220054626465
1733513263377958700,12.096958740234374,-0.6838670372962952,1.5184258222579956,4.8037333488464355
1733513263388034600,12.10703466796875,-0.7911252975463867,0.8682774901390076,4.040097713470459
1733513263398109700,12.117109619140624,-0.9312595129013062,0.5890107154846191,3.051736354827881
1733513263408185600,12.127185546875,-0.9777433276176453,0.5172845125198364,2.13835072517395
1733513263418260500,12.137260498046874,-0.9274711012840271,0.5581192970275879,1.4831218719482422
1733513263428336600,12.147336669921875,-0.817611038684845,0.6285129189491272,1.099249243736267
1733513263438412500,12.15741259765625,-0.6838511228561401,0.6130993366241455,0.9209710359573364
1733513263448487700,12.16748779296875,-0.5992757081985474,0.4644302725791931,0.8652604222297668
1733513263458563600,12.1775634765625,-0.5746361613273621,0.23806478083133698,0.8388226628303528
1733513263468638700,12.187638671875,-0.5905040502548218,0.09025323390960693,0.776087760925293
1733513263478714600,12.197714599609375,-0.5950271487236023,0.03695858269929886,0.6552748084068298
1733513263488789500,12.20778955078125,-0.5756485462188721,0.052551884204149246,0.4994131326675415
1733513263498865700,12.21786572265625,-0.5452182292938232,0.09084760397672653,0.3524077236652374
1733513263508940800,12.22794091796875,-0.45184916257858276,0.19866831600666046,0.27362945675849915
1733513263519016700,12.2380166015625,-0.3056245744228363,0.4533708989620209,0.2615051567554474
1733513263529091600,12.248091552734374,-0.16279153525829315,0.8278438448905945,0.30179664492607117
1733513263539167700,12.258167724609375,-0.06388939172029495,1.2727129459381104,0.3650156557559967
1733513263549242600,12.26824267578125,-0.020654207095503807,1.7836333513259888,0.46523529291152954
1733513263559318500,12.278318603515626,-0.03216812014579773,2.288969039916992,0.584534764289856
1733513263569393700,12.2883935546875,-0.0895078033208847,2.661421775817871,0.7004968523979187
1733513263579469600,12.298469482421876,-0.18059402704238892,2.8132927417755127,0.7675057053565979
1733513263589544700,12.308544677734375,-0.28690338134765625,2.6885621547698975,0.7405577301979065
1733513263599620600,12.31862060546875,-0.38468214869499207,2.331366539001465,0.6169881224632263
1733513263609695700,12.32869580078125,-0.4514814615249634,1.8580191135406494,0.3991343080997467
1733513263619771600,12.338771728515624,-0.4884527921676636,1.3828240633010864,0.13310450315475464
1733513263629846500,12.348846435546875,-0.5038115382194519,0.9544566869735718,-0.15142442286014557
1733513263639922700,12.358922607421874,-0.5086273550987244,0.565015435218811,-0.4409193694591522
1733513263649997800,12.368997802734375,-0.49227938055992126,0.20095375180244446,-0.7343695163726807
1733513263660073700,12.37907373046875,-0.4624037742614746,-0.15084050595760345,-1.0313527584075928
1733513263670148600,12.389148681640625,-0.4135717451572418,-0.508866012096405,-1.3412212133407593
1733513263680224800,12.399224853515625,-0.35941076278686523,-0.9261907935142517,-1.7050644159317017
1733513263690300700,12.40930078125,-0.2556096911430359,-1.3423625230789185,-2.168586254119873
1733513263700375600,12.41937548828125,-0.07631157338619232,-1.5357612371444702,-2.7914750576019287
1733513263710451700,12.42945166015625,0.15634450316429138,-1.3686116933822632,-3.5353221893310547
1733513263720526600,12.439526611328125,0.42432188987731934,-0.47554123401641846,-2.6813864707946777
1733513263730602800,12.449602783203124,0.4763377904891968,0.48113930225372314,-1.263183355331421
1733513263740677600,12.459677734375,0.2553987503051758,0.8607969284057617,-0.3545479476451874
1733513263750753500,12.46975341796875,-0.03510794788599014,0.8938713669776917,0.06201115623116493
1733513263760828700,12.47982861328125,-0.22600573301315308,0.673132598400116,0.23809216916561127
1733513263770904600,12.489904541015624,-0.24907176196575165,0.360224187374115,0.22244702279567719
1733513263780979700,12.499979736328125,-0.13644641637802124,0.012447313405573368,0.12235823273658752
1733513263791055600,12.5100556640625,0.015367109328508377,-0.30228230357170105,-0.0013151904568076134
1733513263801130800,12.520130859375,0.07504907995462418,-0.49141865968704224,-0.13370518386363983
1733513263811206700,12.53020654296875,0.01575453206896782,-0.5498723387718201,-0.2208513468503952
1733513263821281800,12.54028173828125,-0.09293945133686066,-0.5483998656272888,-0.27995115518569946
1733513263831357700,12.550357666015625,-0.11140428483486176,-0.6339815855026245,-0.3376794755458832
1733513263841432600,12.5604326171875,0.03461311012506485,-0.776137113571167,-0.4182100296020508
1733513263851508700,12.5705087890625,0.2853705883026123,-0.8467486500740051,-0.4682091772556305
