time,seconds_elapsed,z,y,x
1733513251307523300,0.0265234375,-0.8109653774902225,0.07455225989818573,-3.115673229204118
1733513251317599200,0.03659912109375,-0.16588555872738361,0.23084639893770217,-2.464243164631724
1733513251327674400,0.04667431640625,0.20583134627714753,0.5320610500872135,-1.9883127286978064
1733513251337750500,0.05675048828125,0.3206339296296239,0.8913064499229192,-1.5796188228212296
1733513251347825400,0.066825439453125,0.25703122602999207,1.0582184290885925,-1.2830834155291317
1733513251357901300,0.0769013671875,0.14923866757005452,0.9258435102969408,-1.1748955741412936
1733513251367976400,0.0869765625,-0.04802358780428767,0.6946347077876329,-1.2031664867926388
1733513251378051300,0.09705126953125,-0.36531244478970765,0.563498390880227,-1.4488053081274033
1733513251388127200,0.107127197265625,-0.7614572502166033,0.5461106182277202,-1.8813254952713847
1733513251398202400,0.117202392578125,-1.108132506814599,0.5284019430577754,-2.3201506277784705
1733513251408278300,0.1272783203125,-1.2007497079744935,0.5574930129855871,-2.6827558594360945
1733513251418353400,0.137353515625,-0.8581140821561217,0.49716860040426253,-2.9049785146743057
1733513251428429300,0.14742919921875,-0.24014818802922963,0.2737748555600643,-2.8393630099475384
1733513251438504200,0.157504150390625,0.34238252784013745,-0.07439619255363941,-2.6983006345704195
1733513251448580400,0.167580322265625,0.7505706761516631,-0.45684711140990253,-2.5913763833776113
1733513251458655200,0.1776552734375,1.1105787309229374,-0.6976555169135332,-2.4745576378971337
1733513251468731400,0.1877314453125,1.437315653602779,-0.767895758831501,-2.4038822194322944
1733513251478806300,0.19780615234375,1.7641871624477206,-0.714593792232871,-2.44708847008273
1733513251488881400,0.20788134765625,2.0954045915424824,-0.5266477928668261,-2.498060094037652
1733513251498957300,0.217957275390625,2.4596049834370612,-0.31576749263703824,-2.4940906058847903
1733513251509032200,0.2280322265625,2.832953142905235,-0.21394728658497333,-2.480617960849404
1733513251519108400,0.2381083984375,3.19788886333704,-0.3070096011638641,-2.4803458659097553
1733513251529183500,0.24818359375,3.5056700333952904,-0.33145079945921896,-2.473391516727209
1733513251539259400,0.25825927734375,3.7536627974450587,-0.2575876908689737,-2.4574758624538777
1733513251549334300,0.268334228515625,3.9944188882395624,-0.21901392232477665,-2.515932143075764
1733513251559410400,0.278410400390625,4.248955959366262,-0.05621522369682788,-2.6032664353966712
1733513251569485300,0.2884853515625,4.131744415175914,0.38298926351666446,-2.6883713612303137
1733513251579561200,0.298561279296875,3.4738743806838985,1.16473351495862,-2.7024855190396306
1733513251589636400,0.30863623046875,2.5159298049882053,2.2304262254506346,-2.5995298792168495
1733513251599712300,0.318712158203125,1.675682949564606,2.7706840259969234,-2.471089669525623
1733513251609787100,0.328787109375,1.0439432354986666,2.163130804812908,-2.4863036052703857
1733513251619862300,0.3388623046875,0.5582090523004531,0.7574877620637417,-2.42698383968696
1733513251629938400,0.3489384765625,0.12447927017100155,-0.3060258508235216,-2.1088661306619643
1733513251640013300,0.359013427734375,-0.2571878778964281,-0.7867448362082242,-1.7259169068947433
1733513251650089200,0.369089111328125,-0.6884621566325426,-1.109910037881136,-1.4796221789345145
1733513251660164400,0.379164306640625,-1.2482453263819218,-0.9232254367530346,-1.188871200262755
1733513251670240500,0.389240478515625,-1.902136520370841,-0.6161293263494968,-1.0593479445751757
1733513251680315100,0.399315185546875,-4.004441392821073,-0.34074469750523567,-0.9019251668319106
1733513251690391300,0.409391357421875,-10.495265885889529,-0.028491934990882872,-0.4697788545016199
1733513251700466400,0.419466552734375,-14.947972439736127,0.3777525319069624,-0.7710625522993505
1733513251710542300,0.429542236328125,-14.702595995664595,0.9673445644646882,-1.4712214303359388
1733513251720617200,0.4396171875,-11.003153448706865,1.4365800328046083,-2.2335393890351054
1733513251730693400,0.449693359375,-7.1778025486230845,1.9852993722259997,-2.824661115378141
1733513251740768500,0.4597685546875,-4.953826522225142,2.6568366975426674,-3.1704072744324803
1733513251750844200,0.46984423828125,-4.058251308941841,2.9142548770636316,-3.3873575422257183
1733513251760919300,0.479919189453125,-3.868755157524347,2.7149393424212933,-3.5223709928274154
1733513251770994400,0.489994384765625,-3.7139030339866874,2.4643787737101315,-3.4514687798693773
1733513251781070300,0.5000703125,-3.0942753441274164,2.62501415682435,-3.057539312404394
1733513251791145200,0.510145263671875,-2.4359353540360926,2.898435376641154,-2.50977566627264
1733513251801221400,0.520221435546875,-1.833946196720004,2.876490086814761,-2.1707759127385913
1733513251811296300,0.530296142578125,-1.0300508306812495,2.731924964013696,-2.146479529741406
1733513251821372200,0.5403720703125,-0.2031423994541168,2.8043448880583046,-2.1031107820056376
1733513251831447300,0.550447265625,0.6313385859191417,3.116774176183343,-1.8726400845125317
1733513251841523500,0.5605234375,1.4407038347363472,3.4562779337167737,-1.6590040558338164
1733513251851598300,0.570598388671875,2.197601814213395,3.350677040082216,-1.7707964975848793
1733513251861674200,0.58067431640625,3.070485887739062,2.9740181486308574,-2.089301013970375
1733513251871749400,0.590749267578125,3.8009593861490485,2.330299389088154,-2.259900449477136
1733513251881825300,0.6008251953125,3.9692046597450967,1.426035842436552,-1.7820339309141038
1733513251891900400,0.610900390625,3.917075244057178,0.4359674049884081,-1.4841550000585615
1733513251901975300,0.620975341796875,3.910605463521182,-0.19575053563714026,-1.4315996140435336
1733513251912051500,0.631051513671875,3.8346076809898015,-0.48643736303150653,-1.3916671243667602
1733513251922126300,0.641126220703125,3.470445867539942,-0.5592898332744837,-1.1627701059311628
1733513251932202200,0.6512021484375,2.9088351901024576,-0.6412474009931087,-0.8085852774206549
1733513251942277400,0.66127734375,2.28058521784842,-0.8310141860455275,-0.48208340560570356
1733513251952353500,0.671353515625,1.7698510334283113,-0.8786521355330944,-0.31719032851438966
1733513251962428400,0.681428466796875,1.4603867325887083,-0.836969879579544,-0.24991876367628574
1733513251972504300,0.69150439453125,1.1933926232099532,-0.763690123835206,-0.08747597494707442
1733513251982579500,0.701579345703125,0.8843880488365888,-0.6440870083332061,0.07983137847804464
1733513251992655600,0.711655517578125,0.6164233408600092,-0.4885077395647764,0.21372633731067178
1733513252002730500,0.72173046875,0.47741088375002144,-0.379385101544857,0.38113472169116136
1733513252012806400,0.731806396484375,0.41101182743012904,-0.5428139147698879,0.5470209014730528
1733513252022881500,0.741881591796875,0.576206773544848,-0.7991238407880067,0.845695476218313
1733513252032957400,0.75195751953125,0.7290525256961584,-1.0078513468980788,1.2909605786450207
1733513252043032300,0.7620322265625,0.8485662093490361,-1.1398662002056836,1.725560494672507
1733513252053107500,0.772107421875,0.9125476831331849,-1.1101865167349576,2.088867883250117
1733513252063183400,0.782183349609375,0.9279019041314721,-0.9085983609855175,2.2863277070231733
1733513252073258500,0.792258544921875,0.9420198613330721,-0.7742489272505044,2.2037813796311614
1733513252083334400,0.80233447265625,1.0747311724722384,-0.7064069786459207,1.8699205964207648
1733513252093409300,0.8124091796875,1.359313253250718,-0.7661965536981821,1.4347529635079204
1733513252103485400,0.8224853515625,1.7494120565116404,-0.7415536953508853,1.1175144484702497
1733513252113560300,0.832560302734375,2.1223948897987603,-0.5794441480308771,1.0777495704453437
1733513252123636500,0.842636474609375,2.43826204341799,-0.6572574555516243,1.1251427513916046
1733513252133711400,0.85271142578125,2.739907779461145,-0.8926075956493615,1.1970453735638409
1733513252143787300,0.862787353515625,3.0814772373527286,-1.164058392176032,1.2640028674840926
1733513252153862400,0.8728623046875,3.3640517777010794,-1.6601614091753958,1.2220754045978188
1733513252163938600,0.8829384765625,3.4454034884810447,-2.169624843007326,1.1491137018267064
1733513252174013400,0.893013427734375,3.3569080434262752,-2.6182190898567437,1.1265333289671688
1733513252184088600,0.903088623046875,3.0972143201887605,-2.974941693216562,1.1544764709688722
1733513252194164500,0.91316455078125,2.8062305556744334,-3.1783588179588316,1.1580532334771008
1733513252204239400,0.9232392578125,2.611243405625224,-3.088137864285707,1.0996176303170622
1733513252214315500,0.9333154296875,2.44187117382586,-2.651881705483794,0.9047127517238259
1733513252224390400,0.943390380859375,2.2881188282236455,-1.971483028319478,0.5465718790639191
1733513252234466300,0.95346630859375,2.1268948315665126,-1.1194500196427106,0.10682049855738877
1733513252244541400,0.96354150390625,1.8449355005070567,-0.13247136490345002,-0.35382454383075235
1733513252254617300,0.973617431640625,0.9331526642665267,1.1040373464554547,-0.9385287312816828
1733513252264692200,0.983692138671875,-2.7209052650883794,3.0121733995020388,-2.1507912554606796
1733513252274768400,0.993768310546875,-8.65396406570971,5.252156557849049,-3.3582761169090865
1733513252284843500,1.003843505859375,-9.974569110381603,5.385842559239268,-2.4817943111523983
1733513252294919400,1.01391943359375,-6.497557016193866,3.4498423477113245,-0.94153879981786
1733513252304994300,1.023994384765625,-3.68810516038537,2.116039383292198,0.06052154258862137
1733513252315069400,1.0340693359375,-2.371920562504232,1.4193530036717652,0.8202662897989154
1733513252325145600,1.0441455078125,-1.664523111516237,0.7999158679485321,1.3897608523540197
1733513252335220200,1.05422021484375,-0.8329252803638577,0.27977205014824863,1.6092871081151068
1733513252345296400,1.06429638671875,0.351065015989542,0.3508329607993364,1.6457660963371394
1733513252355371500,1.07437158203125,1.241150399684906,1.2443500725090504,1.8151957574121653
1733513252365447400,1.084447509765625,1.7069088395640253,2.4958190371125935,2.1490195696130394
1733513252375522300,1.094522216796875,1.8700012604415415,3.7800826023370027,2.590278943529725
1733513252385598500,1.104598388671875,1.5565888064980506,4.761356907954812,3.312179259383678
1733513252395673600,1.114673583984375,0.6010264497637748,4.917047235882282,4.140785215243697
1733513252405749200,1.124749267578125,-0.7005591294005513,3.7640415681183335,4.520193113142252
1733513252415824400,1.134824462890625,-1.4580509831175208,1.5689005910605192,4.124417141027748
1733513252425900500,1.144900634765625,-1.3421060978621244,-0.22971125742793083,3.6100516143679617
1733513252435975400,1.154975341796875,-0.9972364293813705,-1.1339069995403288,3.4306849350377915
1733513252446050300,1.16505029296875,-0.442206007117033,-1.5612036068171262,3.155528269730508
1733513252456126500,1.17512646484375,0.38604923560917376,-1.9164350948363542,2.592313371966779
1733513252466201300,1.185201416015625,1.2399760952085255,-2.3306524403095246,1.9332788237400351
1733513252476277200,1.19527734375,2.0841852783918378,-2.68611189186573,1.4090246480114756
1733513252486352400,1.205352294921875,3.0499317600101232,-2.7566753743886947,1.0213688539884984
1733513252496428500,1.215428466796875,3.750214118295908,-2.5199767422914503,0.9666304248459636
1733513252506503400,1.22550341796875,4.044242657333612,-2.0989853726387024,1.2577514058738946
1733513252516579300,1.235579345703125,4.263656392630934,-1.5779004745960235,1.4889961564794183
1733513252526654500,1.245654541015625,4.489220467251539,-0.8635042507618665,1.4540502230435608
1733513252536730400,1.25573046875,4.6679771979898215,0.12727496530413626,1.2083818102881312
1733513252546805500,1.265805419921875,4.6973283801585435,1.113134260624647,0.7351509887017309
1733513252556881400,1.27588134765625,4.380518100470304,1.9770669659316538,0.11281656063441187
1733513252566956500,1.28595654296875,3.859169583055377,2.545660049602389,-0.6246867998797446
1733513252577031400,1.296031494140625,3.111425216370821,2.7548072424292562,-1.1984896540880203
1733513252587107300,1.306107421875,2.3572552005529404,2.5456962899595497,-1.7166776616454122
1733513252597182500,1.316182373046875,1.9486681160517036,1.8885639220923185,-2.268432277109474
1733513252607258400,1.32625830078125,1.686667869437486,1.0106517912715673,-2.6987992317423224
1733513252617333500,1.33633349609375,1.4134183529257773,0.3630769408226013,-3.5347041124388574
1733513252627409400,1.346409423828125,0.7886907095789909,0.005925298395752907,-4.2295504171505565
1733513252637484300,1.356484375,-0.3854728970259428,-0.3576999239593744,-3.8312303135111927
1733513252647560400,1.366560546875,-1.4134645301550626,-0.6506248856693506,-3.2949151131108403
1733513252657635300,1.37663525390625,-1.8877379926621913,-0.7794763065099716,-3.163480982300639
1733513252667711500,1.38671142578125,-1.959285810047388,-0.8300017941325902,-2.8566479067474604
1733513252677786400,1.396786376953125,-1.876431001228094,-0.8287859886020421,-2.279063707369566
1733513252687862300,1.4068623046875,-1.7280092029988765,-0.8140624667227268,-1.6897250650510192
1733513252697937400,1.4169375,-1.4871253941714764,-0.8534948979228735,-1.3917951346606015
1733513252708013300,1.427013427734375,-1.2523860794484614,-0.8860504290908574,-1.322923550747335
1733513252718088400,1.43708837890625,-1.0800655192375181,-0.7955009741157293,-1.3577294911906121
1733513252728163600,1.44716357421875,-1.0222796852231024,-0.5910784717231988,-1.3227053779520093
1733513252738239500,1.457239501953125,-1.0615232427876442,-0.408253468632698,-1.092336168072
1733513252748314400,1.467314453125,-1.0763689297419041,-0.1482441035747528,-0.9477101088639348
1733513252758390500,1.477390625,-1.0798142478901893,0.10173895750939846,-0.8801839482102543
1733513252768465400,1.48746533203125,-0.9740448658209293,0.26783026794195175,-0.7272465722527355
1733513252778541300,1.497541259765625,-0.8652443724274634,0.2926636804252863,-0.5293593899130821
1733513252788616400,1.507616455078125,-0.7348142310280352,0.20814123065471649,-0.3014944544715807
1733513252798692400,1.5176923828125,-0.6505319466888905,0.13197218320965767,-0.11135141998529434
1733513252808767200,1.527767333984375,-0.6201742178261279,-0.011133388432860374,-0.006821534849423915
1733513252818843400,1.537843505859375,-0.6149731420516967,-0.2762280939310789,0.022949119406961836
1733513252828918500,1.54791845703125,-0.614772212652117,-0.557235823354125,0.0010353709297254681
1733513252838994400,1.557994384765625,-0.6490531063079834,-0.784333683413267,-0.06334990701549686
1733513252849069300,1.5680693359375,-0.719820075513795,-0.9326754021435976,-0.08065590140237472
1733513252859144400,1.57814453125,-0.8056056040227413,-0.9441671024948358,-0.023561890143598427
1733513252869220600,1.588220703125,-0.9083892482794821,-0.8248182540148496,0.09264245433215983
1733513252879295200,1.598295166015625,-1.0548704338349402,-0.5951449905097485,0.19454886822979897
1733513252889371400,1.608371337890625,-1.2813571762584148,-0.2086328135639429,0.1819407858681865
1733513252899446500,1.618446533203125,-1.7039432677567004,0.3166846074819565,0.013406639727624133
1733513252909522200,1.628522216796875,-2.2450106311202047,0.7959031251758336,-0.2498746322736144
1733513252919597300,1.638597412109375,-2.85189282117486,1.0607757123559713,-0.5453323273316025
1733513252929673500,1.648673583984375,-3.380039912688732,1.1557920836120843,-0.9059204470131546
1733513252939748600,1.65874853515625,-3.75936656204462,1.089042021897435,-1.353633307918161
1733513252949824500,1.668824462890625,-3.9483156009733675,0.8546388072609901,-1.774165097235143
1733513252959899600,1.678899658203125,-3.9123175281360743,0.6113017600625753,-2.0790692505523563
1733513252969975600,1.6889755859375,-3.758938399760425,0.4729875143498182,-2.2220193393722174
1733513252980050700,1.69905078125,-3.84053210260272,0.6586930413126945,-2.2621387299232185
1733513252990126600,1.709126708984375,-4.289503073810041,1.3880834206610917,-2.327889405336976
1733513253000201500,1.719201416015625,-4.9958969007134435,2.83838978100121,-2.4488589868865906
1733513253010276600,1.729276611328125,-5.601491973567009,4.808721885719895,-2.8378911838293073
1733513253020352500,1.7393525390625,-5.877116256386041,6.2583005163073535,-3.43287893795073
1733513253030427600,1.749427734375,-5.925070432215929,6.744639095139503,-4.117041936084628
1733513253040503600,1.759503662109375,-6.104489426255226,6.452131482058763,-4.867099255886673
1733513253050578700,1.76957861328125,-6.5448530203759665,5.786157636088133,-5.347921701645851
1733513253060654600,1.779654541015625,-7.1715984332859515,5.058104642823338,-5.011027249827981
1733513253070729500,1.7897294921875,-7.932435505777597,4.433127408629655,-3.7350516204774378
1733513253080805600,1.7998056640625,-8.425404316404462,3.8725814378142354,-1.8756059485808014
1733513253090880500,1.809880615234375,-8.066925809288024,3.371272668865323,-0.22666460147472098
1733513253100956700,1.819956787109375,-6.617941637462377,2.890042811349034,0.7607772320631891
1733513253111031600,1.830031494140625,-4.797874913012981,2.3249305555313824,1.4031876124210654
1733513253121107500,1.840107421875,-2.956934911882877,1.667783574616909,1.8286171106517315
1733513253131182600,1.8501826171875,-1.303006844139099,1.1450339582324027,1.8793170780584214
1733513253141258500,1.860258544921875,0.02376421234924346,0.8587894971996546,1.545956499455124
1733513253151333600,1.870333740234375,1.4115736018419265,0.7082488071203231,1.1267823352921753
1733513253161408800,1.88040869140625,2.6403923432201144,0.9462766419947147,0.9032911944881081
1733513253171484400,1.890484375,3.748949212926626,1.4832517676085233,0.24132788106678052
1733513253181559600,1.9005595703125,5.479330405753851,2.220692182421684,-0.3514288808658719
1733513253191635700,1.9106357421875,6.732701404586434,2.5988532951295373,-0.046356029051402584
1733513253201710300,1.92071044921875,7.689016625514626,3.2541303905189034,0.24995803624074905
1733513253211786500,1.930786376953125,8.625694833558798,3.990631478655338,0.13489007995035499
1733513253221861600,1.940861572265625,8.679764861920475,4.0691146482616665,-0.2802787575613707
1733513253231937500,1.9509375,8.130039560326933,3.7148049512624737,-0.8313470712617039
1733513253242012400,1.961012451171875,7.602151412010192,3.046569005578756,-1.498251914472133
1733513253252088600,1.971088623046875,7.123541381603479,2.2749276304781434,-2.0113336849316954
1733513253262163700,1.981163818359375,6.723395231580734,1.571849503993988,-2.383369592757523
1733513253272239600,1.991239501953125,6.409936600407958,0.9454191483825445,-2.62320564609766
1733513253282314500,2.001314453125,6.047925242990255,0.43042730651795863,-2.7493308568447827
1733513253292389600,2.0113896484375,5.624874018198251,0.0014086977541446686,-2.9205481319889426
1733513253302465800,2.0214658203125,5.123254868125915,-0.4257996467173099,-3.366127414931357
1733513253312540400,2.03154052734375,4.587470413601398,-0.6977665760725736,-3.9008439479634163
1733513253322616600,2.041616455078125,3.683668639242649,-0.9153945969969034,-4.3051083469599485
1733513253332691700,2.051691650390625,2.399972060251236,-0.8912316311210393,-4.468209243404865
1733513253342767400,2.061767333984375,0.9115998808890581,-0.7615203785806894,-4.226883536028862
1733513253352842500,2.071842529296875,-0.24004443539381026,-0.5620096136271954,-3.5217142824843526
1733513253362918700,2.081918701171875,-0.29692075334787366,-0.23495675686597822,-2.724281755784154
1733513253372993500,2.09199365234375,0.4896151162847876,-0.12514555206000805,-1.8680610861591993
1733513253383069400,2.1020693359375,1.5689005910605192,-0.118541623750329,-0.9404181982900947
1733513253393144600,2.11214453125,2.6729832379624248,-0.17707330769598484,-0.049958720585331316
1733513253403220700,2.122220703125,3.7372184431225057,-0.30467618978023525,0.7203866233553737
1733513253413295600,2.132295654296875,4.614404305495322,-0.5017758019387721,1.3300339672744272
1733513253423371500,2.14237158203125,5.2520718021750445,-0.8048620921790599,1.8855811068892478
1733513253433446700,2.15244677734375,5.7036716605812305,-1.0914952602684498,2.4428692449524996
1733513253443521500,2.162521484375,5.967855096453428,-1.352424078258872,2.9642876127332447
1733513253453597400,2.172597412109375,6.023624329948425,-1.5877455767840145,3.4010680876702066
1733513253463672600,2.182672607421875,5.878564701628685,-1.7743004140526055,3.823585059455037
1733513253473748700,2.192748779296875,5.619054518264532,-1.946695208543539,4.241804918567836
1733513253483823600,2.20282373046875,5.252127331754565,-2.062402485650778,4.671061720001697
1733513253493899500,2.2128994140625,4.8250236167013645,-2.073129631370306,5.157144862768054
1733513253503974700,2.222974609375,4.350741678626835,-1.9460978271722793,5.719315219914913
1733513253514050600,2.233050537109375,3.6776916106596587,-1.7714724971503018,6.22589345369935
1733513253524125700,2.243125732421875,2.8216712859123945,-1.6331921537071465,6.574398263812065
1733513253534201600,2.25320166015625,1.7955562603101134,-1.5641642101883888,6.643802054905891
1733513253544276500,2.2632763671875,0.3086749040275812,-1.2945125720381736,6.565596533197164
1733513253554352600,2.2733525390625,-2.9285058129951356,-1.1358201396852732,5.654105373379588
1733513253564427500,2.283427490234375,-8.167707319942116,-0.9417740698784589,3.537120233669877
1733513253574503700,2.293503662109375,-9.23653657489419,-0.9879548062950372,1.5977977458514272
1733513253584578600,2.30357861328125,-7.964275582152605,-1.2929647580742836,0.3724735685907304
1733513253594653700,2.31365380859375,-5.822845737016201,-1.4192892907857895,-0.851585118778795
1733513253604729600,2.3237294921875,-4.143068065483868,-1.0894108552098274,-2.7056170950636265
1733513253614804500,2.333804443359375,-3.188785811688006,-0.27635668874680996,-4.898883802682161
1733513253624880600,2.343880615234375,-2.3983894672349093,0.537239329507947,-7.117184706053138
1733513253634955500,2.35395556640625,-1.6274848819762466,1.0150187543094158,-8.828350910800696
1733513253645031700,2.36403173828125,-1.1284861435353755,1.060201711860299,-9.29606603770554
1733513253655106600,2.3741064453125,-0.7965940300494432,0.6966629987448454,-8.098729060783981
1733513253665182500,2.384182373046875,-0.11808218954503535,0.13334054895341396,-5.678804345828294
1733513253675257600,2.394257568359375,0.720370475938171,-0.5714373671859503,-3.7230674604341387
1733513253685333500,2.40433349609375,1.3271173491753636,-0.9613660745769739,-2.115448431661725
1733513253695408600,2.41440869140625,1.5346137060552834,-0.5139747737765312,-0.3794653271742165
1733513253705484500,2.424484619140625,1.7135405326634645,0.8823983363240957,1.1446041154477744
1733513253715559400,2.434559326171875,1.8437331389799714,2.8140578882992267,2.305436750510335
1733513253725635600,2.444635498046875,1.8598218117326497,4.801156418901682,3.17535846709907
1733513253735710700,2.454710693359375,1.9906582689106462,6.423765803796052,4.145504060459137
1733513253745785600,2.46478564453125,2.018418820887059,7.395264565330743,4.730499412876367
1733513253755861500,2.474861572265625,1.9840194154180586,7.822661710372567,4.942423084679246
1733513253765936600,2.4849365234375,1.7244634932160376,7.764383124405145,4.898185299023986
1733513253776012500,2.495012451171875,0.7986825267612934,6.82373835081756,4.509801482987403
1733513253786087400,2.50508740234375,-0.6639338645756244,4.63875402611494,3.736820968237519
1733513253796163600,2.51516357421875,-2.0317045650482175,1.7880618129014967,2.971969107146561
1733513253806238700,2.52523876953125,-2.7122826904326676,-0.48450142653286454,2.693023278689384
1733513253816314400,2.535314453125,-2.872074023938179,-2.2030676784038543,2.9027579160153865
1733513253826389500,2.545389404296875,-2.8575954167306423,-3.5491987939983605,3.261272371228039
1733513253836465700,2.555465576171875,-2.5320985572397707,-4.160376635420322,3.537898816826939
1733513253846540800,2.565540771484375,-1.9539117157936094,-4.176493072962761,3.673209496809542
1733513253856616400,2.575616455078125,-1.290970369386673,-4.124720800149441,3.6939421959757803
1733513253866691600,2.585691650390625,-0.8884598283201456,-4.004326826530694,3.8172748533949252
1733513253876767700,2.595767822265625,-0.7744377278208732,-3.4071874473333357,3.8833261191904542
1733513253886842400,2.60584228515625,-0.01979311676118523,-2.324994852939248,3.4639547519549727
1733513253896917500,2.61591748046875,1.1454016225010155,-0.9360346494436264,3.0248265448480844
1733513253906993700,2.62599365234375,1.6858026309102774,0.4005091381162405,2.607459210911393
1733513253917068500,2.636068603515625,1.6632529454499483,1.664782639235258,1.8720828890211878
1733513253927144400,2.64614453125,2.7463205691128967,2.370786297777295,1.0550167104378343
1733513253937219600,2.656219482421875,6.1113014443576335,2.722918650737405,0.028673063711449502
1733513253947295700,2.666295654296875,8.006500274419784,2.5616017150998114,-1.393070999815315
1733513253957371000,2.676370849609375,6.129501702436804,2.003098063766956,-1.4468788701094686
1733513253967446500,2.686446533203125,3.633473991009593,1.65006379353106,-0.7437513515256344
1733513253977521700,2.696521728515625,2.6405904961407183,1.3769237287431955,-0.5890912434287369
1733513253987597800,2.706597900390625,2.643938637524843,0.5311041877537965,-1.282843323162943
1733513253997672400,2.71667236328125,2.767568524324894,-0.47853111995160574,-2.2390334564067422
1733513254007748600,2.72674853515625,2.642487854194641,-0.9406804294228553,-2.740693376880884
1733513254017823700,2.73682373046875,3.100435035800934,-1.4389730654209851,-3.0215993994951247
1733513254027899600,2.746899658203125,3.638591480153799,-1.771205370646715,-3.32696590962708
1733513254037974500,2.756974609375,2.012251676559448,-1.2299953839421272,-3.6551363722413774
1733513254048050700,2.76705078125,0.011073182678222656,-0.5005605809301138,-3.732496383036673
1733513254058125800,2.777125732421875,-1.2252945858400315,0.22303426388204095,-3.7620305205568667
1733513254068200700,2.78720068359375,-2.0482488726139065,0.5106698870122433,-3.355393839471042
1733513254078276600,2.797276611328125,-2.451449734032154,0.41156478513777256,-2.552294957572222
1733513254088351700,2.807351806640625,-2.4872996305704116,0.2286100181877613,-1.7212508147798478
1733513254098427600,2.817427734375,-2.171689374321699,0.029138416200876233,-1.1944064764276145
1733513254108502500,2.82750244140625,-1.7130829981543123,-0.18217969092428682,-0.907262874598056
1733513254118578700,2.83757861328125,-1.1771908454716205,-0.3046364422917366,-0.6833321002677083
1733513254128653800,2.84765380859375,-0.9571789981506764,-0.28452479763329025,-0.6344890858393162
1733513254138729500,2.8577294921875,-1.0530653571743518,-0.21407120522558687,-0.6996368269238621
1733513254148804600,2.8678046875,-1.3296845693148671,-0.16777356443107128,-0.751761858697608
1733513254158880800,2.877880859375,-1.654560520428419,-0.11860475211441517,-0.7969520497068763
1733513254168955600,2.88795556640625,-1.996030025076866,-0.04404372438788414,-0.8017500976383686
1733513254179031600,2.898031494140625,-2.2852947107136248,-0.0027156886994838714,-0.7364504539277404
1733513254189106700,2.908106689453125,-2.495083124053478,0.007352700850367546,-0.5768311890535056
1733513254199182800,2.918182861328125,-2.650717922401428,0.0007107786178588867,-0.3209238159542903
1733513254209257700,2.9282578125,-2.796039416527748,0.09488485383093356,-0.11204519266942516
1733513254219333600,2.938333740234375,-2.946002014458179,0.2729682153522968,0.07835674848137424
1733513254229408800,2.94840869140625,-3.180892428089678,0.4780664250493049,0.1798081212210469
1733513254239483600,2.958483642578125,-3.3735353531002996,0.5923913078874349,0.17225103863868862
1733513254249559600,2.9685595703125,-3.559326512520015,0.5775403602361678,0.12826901784278452
1733513254259634700,2.978634765625,-3.7280677529394626,0.4503256006866693,0.01461455421266146
1733513254269710600,2.988710693359375,-3.855089035743475,0.2596487150520086,-0.16339719424406066
1733513254279785700,2.99878564453125,-3.8904575785055755,0.02836743182837963,-0.37875345257781445
1733513254289861600,3.008861572265625,-3.7619419654905792,-0.1336784026056528,-0.6376349826496094
1733513254299936800,3.018936767578125,-3.516101995560527,-0.17323709053397177,-0.9346133114036173
1733513254310012700,3.0290126953125,-3.2115453405067322,-0.08653846576809883,-1.232435178309679
1733513254320087600,3.039087646484375,-2.9241850271865726,0.16194938832223416,-1.5425646650597453
1733513254330163700,3.049163818359375,-2.719820100200176,0.501240964409709,-1.8380198758997022
1733513254340238600,3.059238525390625,-2.5643594893753527,0.8488754214286803,-2.0763797192074356
1733513254350314500,3.069314453125,-2.4634119745045897,1.1395301001191138,-2.217026499520987
1733513254360389600,3.0793896484375,-2.403861761166155,1.4819085363060236,-2.2638719834566117
1733513254370465800,3.0894658203125,-2.425413960021734,1.9024176753997801,-2.2357103033334016
1733513254380540700,3.099540771484375,-2.5557421754166483,2.4047446814805267,-2.144685193670541
1733513254390616600,3.109616455078125,-2.765139543612301,2.931268555706739,-1.9895691584996877
1733513254400691700,3.119691650390625,-3.009573153875768,3.240767051076889,-1.7899923425726592
1733513254410767600,3.129767578125,-3.1998402896657585,3.3454747952640056,-1.6596617890901864
1733513254420842800,3.1398427734375,-3.3977883353471756,3.4257214674115177,-1.7001210791200398
1733513254430917600,3.149917724609375,-3.6913609473109243,3.6424586769759655,-1.9161339199326932
1733513254440993500,3.15999365234375,-3.9833234937295314,3.9846284388482567,-2.2126037146426736
1733513254451068700,3.170068603515625,-4.141735355575382,4.177708878493309,-2.4721187203124164
1733513254461144600,3.18014453125,-4.347577077116072,3.982250019279122,-2.5022981699988245
1733513254471219500,3.190219482421875,-4.955604637813567,3.3706863934099673,-2.2800419047519562
1733513254481295600,3.200295654296875,-6.023080140069126,2.4973838022112846,-1.6978183551356196
1733513254491370800,3.210370849609375,-7.3663453448385,1.5030454323589801,-0.6730050597816706
1733513254501446700,3.22044677734375,-8.704848449772596,0.5020855985403061,0.6301525910049677
1733513254511521500,3.230521484375,-8.941317949289083,-0.36588439945876594,1.2358496629282831
1733513254521597700,3.24059765625,-7.045158165240287,-0.3390606899410486,1.9906988931819796
1733513254531672800,3.2506728515625,-4.558291080868244,-0.29277649314999576,2.678710091176629
1733513254541748700,3.260748779296875,-2.365740120303631,-0.3406652025282383,2.429050855219364
1733513254551823600,3.27082373046875,-0.5829681574385613,-0.11887070957422256,1.7035218274742363
1733513254561899800,3.280899658203125,0.8538637312352657,0.42869945981204505,0.8956061198782175
1733513254571974700,3.290974609375,2.1614918054342267,1.581737860801816,-0.1530561800315976
1733513254582050600,3.301050537109375,3.4846062025785445,3.1388083133369684,-1.0806867198757826
1733513254592125700,3.311125732421875,4.622393258422613,4.846660278970003,-1.0909742320690303
1733513254602200800,3.321200927734375,5.94631078864336,6.242078280302882,-0.8885453146465122
1733513254612276500,3.3312763671875,6.986057156974077,6.909480697771906,-1.1937614565223456
1733513254622351600,3.3413515625,7.149790506103634,6.90315091022849,-1.4772075190082192
1733513254632427800,3.351427734375,7.415388484948873,6.443494002094864,-2.0065642785727977
1733513254642502700,3.361502685546875,7.89464441204369,5.698304580590128,-2.960120556181669
1733513254652578600,3.37157861328125,8.141224971207976,4.882981884673238,-3.6757428146794435
1733513254662653700,3.38165380859375,7.742350156295299,3.809731890669465,-3.4847312902629373
1733513254672729900,3.391729736328125,6.950218950873613,2.2308242848575115,-2.8125015987679363
1733513254682804500,3.401804443359375,6.3410618016242974,0.676900313654542,-2.3379933045916257
1733513254692880600,3.411880615234375,5.8792006614446635,-0.467161584675312,-2.0077311303950847
1733513254702955800,3.421955810546875,5.412484482449293,-1.2410171286940574,-1.5985440341740846
1733513254713031700,3.43203173828125,4.807482407052815,-1.7846400217592715,-1.1159316362582146
1733513254723106600,3.4421064453125,4.0257074682116505,-2.2131676321357485,-0.5309957589432597
1733513254733182700,3.4521826171875,3.1055680147752165,-2.538396196079254,0.241961228800565
1733513254743257900,3.4622578125,2.1979051810741423,-2.522137135195732,1.0062371896997093
1733513254753333500,3.47233349609375,1.4881000844225287,-2.393388590207696,1.675141974555701
1733513254763408600,3.48240869140625,1.0486509747982025,-2.236395362988114,2.2495503203764557
1733513254773483800,3.49248388671875,1.1055258314475416,-2.1635925771057605,2.5826412882581353
1733513254783559700,3.5025595703125,1.6164122838199138,-2.1734739196509123,2.709654680016637
1733513254793634600,3.512634521484375,2.326486845062673,-2.2668325868278743,2.6985432111546395
1733513254803710700,3.522710693359375,3.190551067794859,-2.5498370430260895,2.525417764301598
1733513254813785600,3.53278564453125,3.9868548827260732,-2.830107690346241,2.342257245646417
1733513254823861500,3.542861572265625,4.666933826416731,-3.0272564023435113,2.285788339449465
1733513254833936600,3.5529365234375,5.123969738397002,-3.2082436686128375,2.357759496813267
1733513254844012800,3.5630126953125,5.388910714638233,-3.253382202500105,2.4375752301976084
1733513254854087700,3.573087646484375,5.4717924114644525,-3.2255215511500834,2.4754981336176396
1733513254864163600,3.58316357421875,5.519200643849373,-3.2412083651036023,2.543335990568995
1733513254874238700,3.59323876953125,5.548063165718316,-3.346887000149488,2.6344348961204287
1733513254884315000,3.60331494140625,5.437500850284099,-3.3700977798670526,2.7939962202623483
1733513254894389500,3.613389404296875,5.179359032663703,-3.2764608802706,2.9304122311383485
1733513254904465700,3.623465576171875,4.792023848897219,-3.0275702905982733,2.983370206604898
1733513254914540800,3.633540771484375,4.251998103541135,-2.6173803009450434,3.0945497771546244
1733513254924616400,3.643616455078125,3.474674298889935,-2.0572271288394925,3.283866480351984
1733513254934691600,3.653691650390625,2.321578030233085,-1.1506968062996863,3.5370097590327263
1733513254944767500,3.663767578125,0.15517156475037336,0.41942368194460866,3.5203505929157135
1733513254954842600,3.673842529296875,-8.66567554629147,3.0387334896475076,2.024943108089268
1733513254964918500,3.68391845703125,-15.073585024785995,5.586678435316681,-0.44281493279561396
1733513254974993400,3.693993408203125,-15.32348683732748,6.424790470668673,-2.330869590191543
1733513254985068500,3.704068603515625,-13.786388328719138,5.845434000921249,-4.327544050651788
1733513254995144700,3.714144775390625,-10.97869354571104,4.342824037370085,-6.101315472394227
1733513255005219600,3.724219482421875,-7.509516382932662,2.497685415506363,-6.901956147485971
1733513255015295500,3.73429541015625,-3.9553994217544792,1.0323650259077548,-6.633986178812385
1733513255025370600,3.74437060546875,-1.3338969263128935,0.19708090745806692,-5.570227651253342
1733513255035446500,3.754446533203125,0.3014246406383812,-0.2562023739904165,-4.111231203979253
1733513255045521400,3.764521484375,1.2548960164427756,-0.7591478042304516,-2.739257791119814
1733513255055597600,3.77459765625,1.7613029853135347,-1.3362678932279348,-1.61065649677217
1733513255065672700,3.784672607421875,2.2271045336820183,-1.3810644818097353,-0.5073883811235428
1733513255075748400,3.794748291015625,2.680571208873391,-0.46009471502900123,0.7265496029645204
1733513255085823500,3.804823486328125,3.073376348483562,1.0467273132592438,1.8969249232023953
1733513255095899600,3.814899658203125,3.330859702195227,2.469614920797944,2.844186776842177
1733513255105974500,3.824974609375,3.3772453135341403,3.5491333275467154,3.444683065252006
1733513255116050400,3.835050537109375,3.324892025962472,4.30840621946156,3.587527063348889
1733513255126125600,3.84512548828125,3.228616594555974,4.918734750577807,3.502186282932758
1733513255136201700,3.85520166015625,2.9483570531517267,5.704148630443215,3.5024034328147766
1733513255146276400,3.8652763671875,2.160229676543921,6.168039230623841,3.3555274027228355
1733513255156352500,3.8753525390625,0.8847497217558323,5.601660315871238,2.677470027987659
1733513255166427600,3.885427734375,-0.46525253618359563,3.5007828458756207,1.7404034051477908
1733513255176503300,3.89550341796875,-1.4718939227700232,0.527585950499773,1.12959249734208
1733513255186578400,3.905578369140625,-2.0104232920885083,-2.2464000396519896,1.2631814680986106
1733513255196653600,3.915653564453125,-2.20074420389235,-4.277379797556996,1.718858512815833
1733513255206729700,3.925729736328125,-1.975086021247506,-5.251290296408534,2.060882874868065
1733513255216804600,3.9358046875,-1.5311241103738547,-5.706461583560705,2.386300970034301
1733513255226880500,3.945880615234375,-0.9686538934975862,-5.954793954828381,2.619369428935647
1733513255236955600,3.95595556640625,-0.23937457330822942,-5.84813741466105,2.6308374561503527
1733513255247031600,3.966031494140625,0.604191051274538,-5.245126513081789,2.741398310279846
1733513255257106400,3.9761064453125,1.2614800710082053,-3.990062154334783,3.1386729965195057
1733513255267182600,3.9861826171875,1.432908650815487,-2.183237773296237,3.622046295805275
1733513255277257500,3.996257568359375,1.5431372042506932,-0.11946166120469569,3.5918779520347712
1733513255287333400,4.00633349609375,2.603369311249256,1.9600901121675967,2.4329993005841968
1733513255297408500,4.016408447265625,4.11153515536189,3.5667233447730537,0.9148990685649215
1733513255307484700,4.026484619140625,5.79201922159791,4.740952417829632,-0.6032418607909232
1733513255317559600,4.0365595703125,6.5291492552876464,5.147555196645856,-1.9035382038623094
1733513255327635500,4.046635498046875,5.0584080096840855,4.460566035175323,-2.2105957358211277
1733513255337710600,4.056710693359375,3.0687942813903093,3.129716659864783,-1.512511325971037
1733513255347786500,4.066786376953125,1.9315899938702583,1.8718237996935843,-1.1746025094788521
1733513255357861600,4.076861572265625,1.4206091412127018,0.5847609591394662,-1.4335649227671325
1733513255367937500,4.0869375,1.2825024007707833,-0.643279783603549,-1.8474755403786896
1733513255378012400,4.097012451171875,1.284088208657503,-1.6234312226712704,-1.9439140533924102
1733513255388088600,4.107088623046875,1.8608084846824406,-2.150450771459937,-2.6041964097231625
1733513255398163500,4.11716357421875,1.1680056684970854,-2.035394651737809,-3.8306653731048104
1733513255408239600,4.127239501953125,-0.22270404554698614,-1.4748311452656984,-4.8724371097832915
1733513255418314500,4.137314453125,-1.5686334645569324,-0.7305114923328161,-4.702114445391297
1733513255428389600,4.1473896484375,-2.1447359009444713,-0.14511457337737083,-3.886537774713337
1733513255438465500,4.157465576171875,-2.2020950339794156,-0.005045592951774597,-2.959980563189089
1733513255448540400,4.16754052734375,-2.03121473570466,-0.036331542575359345,-2.2723327916793523
1733513255458616600,4.177616455078125,-1.671239268028736,0.009269932648539543,-2.0282818971231578
1733513255468691700,4.187691650390625,-1.1425754591643809,0.025202245795726774,-1.9013836561769246
1733513255478767600,4.197767578125,-0.671027695294097,-0.12479133179485798,-1.5464349306218326
1733513255488842500,4.207842529296875,-0.49483643112964926,-0.3894891469299793,-1.1807382357548921
1733513255498918700,4.217918701171875,-0.6569746200222522,-0.6422153692424297,-0.9336842138599604
1733513255508993500,4.22799365234375,-0.9741967684470116,-0.8339899869859219,-0.90579616304636
1733513255519069400,4.2380693359375,-1.2938158219456672,-0.9641413845092057,-0.9683265612393617
1733513255529144600,4.24814453125,-1.6118145807661115,-1.0123492428392171,-0.9605397067554294
1733513255539220500,4.258220458984375,-1.8554688772201537,-0.9057008859783411,-0.7953068397831171
1733513255549295400,4.26829541015625,-2.025799724918604,-0.6058820731014013,-0.4443193460091948
1733513255559371500,4.27837158203125,-2.099153714942932,-0.230949274790287,-0.053807249239645895
1733513255569446700,4.28844677734375,-2.1372503674946723,0.16405717425644398,0.25834267395474014
1733513255579522600,4.2985224609375,-2.1402188619114457,0.546456070664525,0.45681379366219044
1733513255589597400,4.308597412109375,-2.1853367914021016,0.9126812463849783,0.5676389612836763
1733513255599673600,4.318673583984375,-2.351616756274551,1.3224240767925977,0.5954576731881126
1733513255609748500,4.32874853515625,-2.629515267635882,1.6421102041780948,0.5712914559092372
1733513255619824600,4.33882470703125,-2.9486785401910542,1.7491782477557658,0.5939858470698818
1733513255629899500,4.3488994140625,-3.2532617909908295,1.495539002251625,0.7136269930273293
1733513255639974700,4.358974609375,-3.5079856168612835,0.964685574388504,0.7802537936884909
1733513255650050600,4.369050537109375,-3.835669757263362,0.3804658825188875,0.7178301438055932
1733513255660125400,4.37912548828125,-4.249170186638832,-0.05181903456449508,0.518383785857819
1733513255670201600,4.38920166015625,-4.627892148099839,-0.26050854675173757,0.06056172846853733
1733513255680276700,4.39927685546875,-4.830599371007085,-0.2295551900833845,-0.6595986118502914
1733513255690352400,4.409352294921875,-4.7104713548481465,0.1618336529880762,-1.584758962188661
1733513255700427500,4.419427490234375,-4.279951109349727,1.1099176366657018,-2.5289307408586144
1733513255710503700,4.429503662109375,-3.671225337255001,2.3345523703575135,-3.496617542889714
1733513255720578600,4.43957861328125,-3.031568712584674,3.4491315690934656,-4.422696907769144
1733513255730654500,4.449654541015625,-2.5061957619592548,4.372442930564284,-5.157771470233798
1733513255740729600,4.4597294921875,-2.2871637194558976,4.924679922717809,-5.647435394096374
1733513255750805500,4.469805419921875,-2.438909109149873,5.149663567101955,-5.766977719321846
1733513255760880400,4.47988037109375,-2.86973096794337,5.024545487570762,-5.522603730291128
1733513255770956500,4.48995654296875,-3.4869802382335067,4.627642849513888,-5.159621482014656
1733513255781031700,4.50003173828125,-4.110158021789789,4.1150522235721345,-4.626109064075351
1733513255791107300,4.510107421875,-4.685950661575794,3.6585739454746244,-3.8462706462547183
1733513255801182500,4.520182373046875,-5.216989967399836,3.169277685880661,-2.9001418882980943
1733513255811258600,4.530258544921875,-5.998126316076517,2.6011153948426244,-1.794488338817656
1733513255821333800,4.540333740234375,-8.22396696730256,2.0085639279574155,-0.2000121934032999
1733513255831409400,4.550409423828125,-14.515561850446462,1.2865174816310405,2.4247347455859183
1733513255841484500,4.560484619140625,-15.249289966738223,0.636491146376729,3.4752506374731658
1733513255851560700,4.570560791015625,-11.482426326936483,0.14612170459330082,3.6932828552842136
1733513255861635300,4.58063525390625,-7.135312483417987,0.16966449274420736,3.4712919629752634
1733513255871711500,4.59071142578125,-3.464502156704664,0.41448038032352924,3.603551146432757
1733513255881786600,4.60078662109375,-0.852937775496766,0.7533370721250772,2.9788492220491167
1733513255891861500,4.610861572265625,0.6483411586463451,1.4529209267526864,1.8624401775375008
1733513255901937400,4.6209375,1.805416852328181,2.605344410714507,0.6478215917516499
1733513255912012500,4.631012451171875,2.932007975897193,4.120661295625567,-0.20483479125415904
1733513255922088700,4.641088623046875,4.253186436542868,5.689539674854278,-0.5147353828854858
1733513255932163600,4.65116357421875,6.289422215279936,7.122358309298753,-0.7868273999251425
1733513255942239000,4.661239013671875,8.357322129303217,8.436694941225648,-1.2963150914154946
1733513255952314000,4.671314208984375,10.098672459912299,9.287048618513346,-1.9236552553482353
1733513255962390300,4.681390380859375,10.321209295666216,9.055456369644403,-2.302100737955421
1733513255972465200,4.691465087890625,9.922693961715698,8.072872734993696,-2.8934160871744155
1733513255982541000,4.701541015625,8.905707122203706,6.62675739660263,-3.3861671633973716
1733513255992616200,4.7116162109375,7.5804340857207775,4.514005364418029,-3.4201413291916247
1733513256002692000,4.721692138671875,6.524189002531767,2.316868829628825,-3.0817426102906462
1733513256012767000,4.73176708984375,5.717186975714564,0.5059492882311344,-2.644570797948539
1733513256022843100,4.741843017578125,5.092020356428623,-0.70226797914505,-2.314610529308021
1733513256032918000,4.75191796875,4.528237011127174,-1.4147200831741094,-1.9733868161141872
1733513256042994000,4.761993896484375,3.9418993041902777,-1.8179945943504572,-1.5104333506532013
1733513256053069000,4.772069091796875,3.326471404108405,-2.084904824838042,-0.8391907704994082
1733513256063145200,4.782145263671875,2.6977602440834043,-2.1382810257166622,-0.07227660658378153
1733513256073220000,4.79222021484375,1.8736238348528742,-2.092851984450221,0.661039531373605
1733513256083296000,4.8022958984375,1.3052274427980184,-2.0574714589893817,1.4403414311647413
1733513256093371100,4.81237109375,1.2387643813312053,-1.8631050711870192,2.1385171725600958
1733513256103447000,4.822447021484375,1.9315256964623926,-1.7369728461772203,2.5134084698170422
1733513256113522200,4.832522216796875,3.1327246095091104,-1.8378835361689327,2.4566613312005994
1733513256123598000,4.84259814453125,4.463603210914135,-2.1483792258828878,2.2593574286416174
1733513256133673200,4.852673095703125,5.833232106474042,-2.60543208899796,2.0976734132573007
1733513256143749000,4.8627490234375,6.935120750463009,-3.13852540474236,1.9447955124020575
1733513256153824000,4.872823974609375,7.716103954404592,-3.6443788313835856,1.8532431639946996
1733513256163900200,4.882900146484375,8.055589007237554,-4.095037025025487,1.8930624025553464
1733513256173975000,4.89297509765625,7.964164522993564,-4.498737068137526,1.9946955616027116
1733513256184050200,4.90305029296875,7.630543978279829,-4.8977480766505,2.077127761095762
1733513256194126000,4.9131259765625,7.134664248642325,-5.262800116938353,2.1919313673615455
1733513256204201000,4.923200927734375,6.541206188306212,-5.510208359098434,2.3835686224609614
1733513256214277000,4.933277099609375,5.946080487018823,-5.527937492534518,2.647890590021014
1733513256224352000,4.94335205078125,5.462479808717966,-5.3211196194380515,3.0454747806012628
1733513256234428200,4.95342822265625,5.042352362418175,-4.722947974583506,3.3283500574618574
1733513256244503000,4.9635029296875,4.556438730999827,-3.6318010893613097,3.5305481618031855
1733513256254579000,4.973578857421875,3.588528349345922,-2.19938285241127,3.9642131350681185
1733513256264654000,4.983654052734375,1.4526538002490996,-0.24569150137007234,4.373426096382737
1733513256274730000,4.99372998046875,-5.734764133459329,2.3367659547537563,4.219751784452796
1733513256284805000,5.00380517578125,-10.58247421374321,4.696879467347264,2.9192490320891142
1733513256294881000,5.013881103515625,-11.29501808770895,6.065134151944518,1.0985139068588614
1733513256304956000,5.023955810546875,-11.243908662718534,6.862739989385008,-0.2982589431490749
1733513256315032000,5.034031982421875,-10.476918912816046,6.672602617454529,-1.6694368947818874
1733513256325107200,5.044107177734375,-10.12785880690813,5.67200518720746,-3.547318094818294
1733513256335183000,5.05418310546875,-8.728903279098867,4.138617808076739,-5.535462627342343
1733513256345258000,5.064258056640625,-6.05520780121386,2.591561384555697,-6.8806742900043725
1733513256355334100,5.074334228515625,-3.5926533203214404,1.3424866216123104,-7.093230414491892
1733513256365409000,5.084408935546875,-2.021873929776996,0.17336042465269563,-6.234070330414176
1733513256375485200,5.094485107421875,-0.5847479535274207,-1.0645219131469725,-4.666040676969289
1733513256385560000,5.10456005859375,0.5512801298201084,-2.1395506072610617,-3.0408520892366764
1733513256395636000,5.114635986328125,1.0281316261216997,-2.330664130747318,-1.7017594939768312
1733513256405711000,5.124711181640625,1.47311206638813,-1.187220072054863,-0.40223917677924037
1733513256415787000,5.134787109375,1.9854878805354237,0.6966495547413826,0.8811668217677623
1733513256425862100,5.144862060546875,2.2378268570959565,2.623101016679406,1.7457812987938521
1733513256435938000,5.15493798828125,2.4759213274657723,4.618460010626912,2.4361983888864516
1733513256446013000,5.165012939453125,2.8995108969181773,6.61844023463428,3.0448861670583485
1733513256456088000,5.175088134765625,3.1286434776753187,8.29666512376666,3.574640109246969
1733513256466164200,5.185164306640625,2.981875876393914,9.247254952785372,4.060663923041522
1733513256476238800,5.19523876953125,2.203603831107169,8.307154369077086,3.9178462284296747
1733513256486315000,5.20531494140625,0.8742109382152556,4.25898314012289,2.9128964481920003
1733513256496390100,5.21539013671875,-0.2555225019674748,-0.15574527298510074,2.209968543833494
1733513256506466000,5.225466064453125,-0.7359352709472179,-3.246693518516421,2.048316969414055
1733513256516541000,5.235541015625,-0.640530777156353,-5.2630245733439915,2.0837501018449665
1733513256526617000,5.2456171875,-0.3253922300726175,-6.246961376169324,2.3661960473775863
1733513256536692200,5.255692138671875,0.5301560932487249,-6.936842751950025,2.7720965231433508
1733513256546768100,5.26576806640625,1.864899553388357,-7.267075407791137,2.8661887652918696
1733513256556843000,5.275843017578125,3.159896694073081,-6.76907620178163,2.871667196702957
1733513256566919200,5.285919189453125,3.529290562957525,-5.190615755215287,2.891285797147453
1733513256576994300,5.295994384765625,3.5796453701883553,-3.191069830971956,2.9870895193889737
1733513256587070000,5.306070068359375,3.8654087697058914,-1.017054644051194,2.777977982397377
1733513256597145000,5.31614501953125,4.363929953762889,1.1383236469388007,2.159530880624801
1733513256607221200,5.32622119140625,5.022953249943256,3.4504853217899796,0.7121627656936645
1733513256617296000,5.3362958984375,5.265400654825568,5.098864523234963,-0.9352870459467172
1733513256627372000,5.3463720703125,5.1397927459508175,5.71172929483056,-2.3363306320764123
1733513256637447200,5.356447265625,4.415300075516105,5.3700686515241856,-3.1413869316533205
1733513256647523000,5.366523193359375,3.344345498973131,4.081775976914167,-3.1083637829735875
1733513256657598000,5.376597900390625,2.3096897317796943,2.118314927008748,-2.5344576875865457
1733513256667674000,5.386674072265625,1.8932307448595762,0.4996545720010996,-1.9318745099000632
1733513256677749200,5.396749267578125,1.8377783222287891,-0.852785288348794,-1.5655882516421378
1733513256687825000,5.406824951171875,1.1007669464826584,-1.4026947143375872,-2.3920750233910977
1733513256697900000,5.416900146484375,-0.32598201265931126,-1.4718021528333425,-3.123556383669376
1733513256707976200,5.42697607421875,-1.6112708292782305,-1.2358505397111177,-3.677659461955726
1733513256718051000,5.437051025390625,-2.5397253988564015,-0.9170651605576277,-3.5683132443130012
1733513256728127000,5.447126953125,-3.015438538777828,-0.8790168771922587,-2.997731617173552
1733513256738202000,5.4572021484375,-3.004781535685062,-0.805861624610424,-2.3894414600171148
1733513256748278000,5.467278076171875,-2.683586757302284,-0.7822364188730716,-1.9121859129592775
1733513256758353000,5.477352783203125,-2.2859727561056613,-0.6994564288556575,-1.691901824568212
1733513256768429000,5.487428955078125,-1.9723263472758232,-0.5587164173007011,-1.5194560305424034
1733513256778504200,5.497504150390625,-1.685755430767685,-0.39586569622457024,-1.3404432792164385
1733513256788579000,5.5075791015625,-1.44401807385087,-0.26529461198449134,-1.1437776014957577
1733513256798655000,5.517655029296875,-1.2842927913188933,-0.2689741772800684,-1.0774364859081804
1733513256808730000,5.527730224609375,-1.184347731488943,-0.355330272218585,-1.1643233997877687
1733513256818806300,5.53780615234375,-1.199570873453468,-0.4360416392683983,-1.2910058790914714
1733513256828881200,5.547881103515625,-1.2985279451593756,-0.5070709857374429,-1.2387408543251455
1733513256838957000,5.55795703125,-1.4199509695649146,-0.6081435882925987,-1.0236860448896885
1733513256849032200,5.5680322265625,-1.4859832383990288,-0.743823978370428,-0.7210217794537543
1733513256859108000,5.578108154296875,-1.4922703558444976,-0.8806891943186521,-0.38900545506626366
1733513256869183000,5.588182861328125,-1.4588931330300867,-0.8792220443755387,-0.07465970232803375
1733513256879259100,5.598259033203125,-1.4572072257697581,-0.7222855157792568,0.20301928453110157
1733513256889334000,5.608333984375,-1.5382218135498462,-0.44373336281478404,0.409811292533949
1733513256899410000,5.618409912109375,-1.738595771203935,-0.13280571142435074,0.5722569399405271
1733513256909485000,5.628485107421875,-2.0024153421998023,0.19198095397055148,0.5882479610050096
1733513256919561200,5.638561279296875,-2.2701805820815264,0.48433542231619353,0.4839604880565777
1733513256929636000,5.648635986328125,-2.5140683950304985,0.6295692381590604,0.3866444250233471
1733513256939712500,5.65871240234375,-2.7726082720577714,0.6423965710282326,0.3588547930829227
1733513256949787600,5.66878759765625,-3.075775810840726,0.5923714341431856,0.3275536824228242
1733513256959863600,5.678863525390625,-3.494426170325279,0.6124626205354928,0.1936465125625953
1733513256969938400,5.6889384765625,-3.97361838453412,0.7710492544263601,-0.14498838971443473
1733513256980014600,5.6990146484375,-4.421519680683314,0.9461363567411899,-0.6952696446903049
1733513256990089700,5.70908984375,-4.676330308054387,1.161369006961584,-1.4163744262523947
1733513257000165400,5.719165283203125,-4.601862511569261,1.7171207292377948,-2.24770527703166
1733513257010240500,5.729240478515625,-4.261758450055122,2.5327549753218888,-2.9668934113174674
1733513257020316700,5.739316650390625,-3.870200680157542,3.4387001914501187,-3.5538875363364815
1733513257030391800,5.749391845703125,-3.6961128180131313,4.407206200909615,-3.965049293631315
1733513257040467500,5.759467529296875,-3.9014907214343544,5.2311418268710375,-4.249423576878011
1733513257050542600,5.76954248046875,-4.358710465548932,5.5689434566617,-4.6090813569068905
1733513257060618800,5.77961865234375,-4.811012334744632,5.435341626423597,-5.220685899308323
1733513257070693400,5.789693359375,-5.212181690335274,5.030567816600203,-5.791434115186333
1733513257080769500,5.79976953125,-5.789282490110397,4.427546393626928,-6.055535133472085
1733513257090844700,5.8098447265625,-6.692735889422893,3.8661183792799707,-5.934408753925561
1733513257100920600,5.819920654296875,-8.22764244094491,3.427352868005633,-5.238564085826278
1733513257110995500,5.829995361328125,-12.68824939265251,3.1778122899919747,-3.3917367802232503
1733513257121071600,5.840071533203125,-18.179851250958443,3.0668934162050485,-0.8602533592071384
1733513257131146800,5.850146728515625,-14.92827054492235,2.8746447512090203,-0.11930022356528788
1733513257141222400,5.860222412109375,-9.615320787936449,2.6784534860670566,0.5272675322003663
1733513257151297500,5.870297607421875,-5.105354469776153,2.515449035733938,1.194595130867511
1733513257161372700,5.88037255859375,-1.9800269847810268,2.388218494093418,1.5343885189972817
1733513257171448600,5.890448486328125,0.30790764598213133,2.5932915693491694,1.4254351000644265
1733513257181523500,5.9005234375,1.9003753559172152,3.0171359903454777,0.7573590211175382
1733513257191599600,5.910599609375,3.325344445905089,3.829116390097141,0.18909604618400333
1733513257201674500,5.920674560546875,5.343716651171445,5.245369674187899,-0.6131679923258722
1733513257211750400,5.93075048828125,8.50582809868455,7.095515895080566,-1.7430073040358722
1733513257221825500,5.940825439453125,10.730410858803987,8.305297927555442,-1.9599511420883238
1733513257231901700,5.950901611328125,11.72875904881954,8.873694027349352,-1.4182849360488354
1733513257241976600,5.9609765625,12.205649415826796,9.240804169210792,-1.008097430613637
1733513257252052500,5.971052490234375,11.532200703930855,8.491813017335534,-0.6684888975314796
1733513257262127600,5.981127685546875,9.994667311036586,6.278284735193848,-0.6075254563942551
1733513257272203800,5.991203857421875,8.44014011324346,3.731184423655271,-0.12854315860904753
1733513257282278700,6.001278564453125,7.273121702218055,1.7270833203256128,0.7028386186398565
1733513257292354600,6.0113544921875,6.705882955765723,0.6758721396505832,0.8444389002859592
1733513257302429700,6.0214296875,6.253259599530696,0.22368600578904152,1.0493385917361826
1733513257312505600,6.031505615234375,5.775539211440086,-0.03646013739109039,1.5416525186508894
1733513257322580500,6.04158056640625,5.359197128897905,-0.14859598575234412,1.9005796463176607
1733513257332656600,6.05165673828125,4.8116959330946205,-0.21249065803587436,2.2076833555057642
1733513257342731500,6.0617314453125,4.068336649626493,-0.6001847382426262,2.6142466790944336
1733513257352807400,6.071807373046875,3.1184646134883165,-1.1809195106059311,2.717809344899654
1733513257362882600,6.081882568359375,2.0997107643038033,-1.6836720486223697,2.6785002478182314
1733513257372958700,6.091958740234375,1.325260177001357,-2.1127783356696366,2.530111475075781
1733513257383033600,6.10203369140625,0.9442834223508835,-2.3394997636318204,2.2620691718183457
1733513257393109500,6.112109619140625,1.0558546225666998,-2.558590258324146,1.8179697521701454
1733513257403184600,6.1221845703125,1.6090572448819875,-2.8559961648404597,1.2542550881907344
1733513257413260500,6.132260498046875,2.547763743883371,-3.2091075919657945,0.941411227915436
1733513257423335700,6.142335693359375,3.7931978122368455,-3.509676930949092,0.9206950414925813
1733513257433411600,6.15241162109375,4.99750667399764,-3.7782512952566143,1.1291764638870954
1733513257443486700,6.16248681640625,6.009808570563793,-4.050149251028895,1.4077970059126614
1733513257453562600,6.172562744140625,6.593178952127695,-4.314450760322809,1.6759259645402431
1733513257463637500,6.182637451171875,6.869681186825036,-4.594219303339719,1.8034081428542732
1733513257473713700,6.192713623046875,6.8378656603693955,-4.864463062164187,2.023822871887684
1733513257483788500,6.20278857421875,6.713736591875553,-5.018651168835163,2.375969253373146
1733513257493864400,6.212864501953125,6.541763822188973,-4.977951494178176,2.763172627453506
1733513257503939600,6.222939697265625,6.323312209922075,-4.70324666429162,3.13923442979455
1733513257514015700,6.233015625,5.969970481172203,-4.188308013918996,3.531526943707466
1733513257524090600,6.243090576171875,5.518554162639379,-3.443630633589625,3.9013551123559473
1733513257534166500,6.25316650390625,4.891254622977971,-2.598693720653653,4.263602032095194
1733513257544241700,6.26324169921875,3.8725329224973914,-1.6808856327742336,4.671869821514189
1733513257554317600,6.273317626953125,2.100647752892971,-0.13101298278868198,5.06572797730863
1733513257564392400,6.283392333984375,-2.2597470124810934,2.6994875062674284,5.283203438019752
1733513257574468600,6.293468505859375,-21.323185517287254,7.4119357141464945,2.692519713081419
1733513257584543500,6.30354345703125,-27.380403489279747,10.271679248821735,-1.183249122597277
1733513257594619400,6.313619384765625,-22.21633964090347,9.019787090370059,-3.081217417372763
1733513257604694500,6.323694580078125,-13.52515497482419,6.312636502128839,-3.559565289711952
1733513257614770700,6.333770751953125,-6.323112303435802,4.2973137475609775,-3.728281395690143
1733513257624845600,6.343845458984375,-2.21166935640201,2.882935609692335,-3.8825136337637898
1733513257634921500,6.35392138671875,0.32648265565782786,1.6016156967043875,-3.7999481632798906
1733513257644996600,6.36399658203125,1.8456673219129442,0.11275661060810088,-3.438709543800354
1733513257655071500,6.374071533203125,2.565584354995191,-1.5377748004347085,-2.857726349633932
1733513257665147600,6.384147705078125,2.919040065513551,-2.5950170779675243,-1.911045218491554
1733513257675222500,6.394222412109375,3.1722993717893955,-2.208803007185459,-0.6884693170256913
1733513257685298700,6.404298583984375,3.630497605547309,-0.7131926932632923,0.5534860423665493
1733513257695373600,6.41437353515625,4.309138040867448,1.3680103544473647,1.4267403374440968
1733513257705449500,6.424449462890625,4.911280927440524,3.4719670857578513,2.1866253699079157
1733513257715524600,6.434524658203125,5.155950100025534,5.266389665862918,2.7289298738509413
1733513257725600500,6.4446005859375,5.186407782131433,6.448624935242533,3.0194881064295767
1733513257735675600,6.454675537109375,4.953966807478666,6.76165452734828,3.1922739460647103
1733513257745751600,6.46475146484375,4.614019105570018,6.227288707450032,3.0862878525048494
1733513257755826400,6.474826416015625,4.070473077133298,4.339190649303793,2.405235387606919
1733513257765902600,6.484902587890625,3.0959277875095603,1.2885294059753418,1.3718898262292145
1733513257775977700,6.494977783203125,2.1360563354045152,-1.2483815199822186,0.8152401321999728
1733513257786053600,6.5050537109375,1.4330232171058654,-2.9358114598333835,0.858061182925105
1733513257796128500,6.51512841796875,1.028241223976016,-4.096395453897118,1.406458743046224
1733513257806204700,6.52520458984375,0.8924627072859554,-4.9294215642869466,2.0321046702817083
1733513257816279600,6.535279541015625,0.9703180273175239,-5.595842569503188,2.388489858380705
1733513257826355500,6.54535546875,1.2640326781004667,-5.745426981770992,2.409123042695224
1733513257836430600,6.5554306640625,1.3488146555900573,-5.090193725523353,2.420832915841788
1733513257846506500,6.565506591796875,1.0756581511240453,-3.8010599239140745,2.5332278535306454
1733513257856581600,6.57558154296875,0.9351222107738256,-1.9310376206845044,2.4377315898030996
1733513257866657500,6.585657470703125,1.406589383688569,-0.010501520270109177,1.9931383952885866
1733513257876732700,6.595732666015625,2.5352824479728935,1.7964859423756598,0.998043069589138
1733513257886808600,6.60580859375,4.013036202687025,3.4010891304582356,-0.3283942249001935
1733513257896883500,6.615883544921875,5.4689446208179,4.641443411329388,-1.5527920445635914
1733513257906959600,6.625959716796875,5.620640910673141,5.392965542986989,-2.4565286447316406
1733513257917034800,6.63603466796875,4.28695835776329,5.325920882239937,-3.2086262381896375
1733513257927110700,6.646110595703125,2.606023040628433,4.170989799371362,-3.1909011964067813
1733513257937185500,6.656185546875,1.6930612237364053,2.4062936644881963,-3.0718136292114853
1733513257947261700,6.66626171875,1.8176766144424676,0.7115683069318532,-2.837222198526561
1733513257957336800,6.6763369140625,1.8320950158953666,-0.6391401995807886,-2.8155013651058076
1733513257967412700,6.686412841796875,0.5487106081256643,-1.0592717375338077,-3.759544256699085
1733513257977488000,6.69648779296875,-1.289112758821249,-1.392635092616081,-3.863236686363816
1733513257987563800,6.706563720703125,-2.5045360120534896,-1.202404781705141,-3.8256244563281534
1733513257997638700,6.716638671875,-3.147702982932329,-1.0482581760883332,-3.126316496032476
1733513258007714800,6.72671484375,-3.2939047670245167,-0.9989338809490204,-2.1809859027162193
1733513258017790000,6.7367900390625,-3.0381846235930916,-0.9951958634644746,-1.521624460622668
1733513258027865900,6.746865966796875,-2.6089912427842616,-0.8824883526951074,-1.1890130929514766
1733513258037940700,6.756940673828125,-2.1871276203416286,-0.6244961726784706,-1.0525682213071732
1733513258048017000,6.767016845703125,-1.8700550364553927,-0.37232466163933275,-0.8359872252177447
1733513258058091800,6.777091796875,-1.650570427878946,-0.21030805329978464,-0.8515610803160816
1733513258068167700,6.787167724609375,-1.4784803154230117,-0.28528935226500035,-0.9175777862548827
1733513258078242800,6.797242919921875,-1.3296201257765292,-0.5639829595267772,-0.8951116143595427
1733513258088318700,6.807318603515625,-1.1132768839657305,-0.8348919042617082,-1.0594370110981166
1733513258098393600,6.8173935546875,-0.9735245682738721,-0.9193389507085085,-1.206692542026937
1733513258108469800,6.8274697265625,-0.9993673039302229,-0.743305507454276,-1.0887493225611746
1733513258118545000,6.837544921875,-1.0931436850626022,-0.49211657771170136,-0.7444350229408592
1733513258128620800,6.847620849609375,-1.1866681372605263,-0.37857612324953077,-0.33475137537457045
1733513258138695700,6.85769580078125,-1.2530651477538048,-0.45201837607920164,-0.03355839948403882
1733513258148771800,6.867771728515625,-1.3043278636097908,-0.6072662209361791,0.1741290709376335
1733513258158847000,6.877846923828125,-1.3364718913674354,-0.7067623679548501,0.34885197958257047
1733513258168923000,6.8879228515625,-1.3451229614652693,-0.6792027453780174,0.5210543567739426
1733513258178997800,6.897997802734375,-1.355855806273222,-0.536955836391449,0.6829979729425162
1733513258189074000,6.908073974609375,-1.3680138615787028,-0.3014993133097887,0.8528249627720564
1733513258199148800,6.918148681640625,-1.4700621772982179,-0.04330547324120998,0.9979616018507629
1733513258209224700,6.928224609375,-1.6106081275857984,0.11526596308052539,1.098322475939989
1733513258219299800,6.9382998046875,-1.8678375065363944,0.28659049799144265,1.1356971708927304
1733513258229375700,6.948375732421875,-2.3471957249619066,0.5767161843717098,1.028174296219647
1733513258239450600,6.95845068359375,-2.9597856251388786,1.0041998386532067,0.6186137635763734
1733513258249526800,6.96852685546875,-3.531839955179393,1.3786428076207637,-0.05192136242780834
1733513258259602000,6.978601806640625,-3.929401641666889,1.5045681118816137,-0.7792657324992119
1733513258269677800,6.988677734375,-4.072843897917866,1.5522826337367295,-1.4688957638673483
1733513258279752700,6.998752685546875,-4.0443770973682405,1.5630360829412937,-2.1749965991735456
1733513258289827800,7.008827880859375,-3.9508302141427993,1.6276789432436227,-2.8329847070872782
1733513258299903700,7.01890380859375,-3.8668686131253835,1.944688544896245,-3.3817344416469335
1733513258309978600,7.028978515625,-3.797024092526734,2.5633745699912307,-3.7943241859182715
1733513258320054800,7.0390546875,-3.766415311512351,3.4574826333314177,-4.107220507033169
1733513258330130000,7.0491298828125,-3.7932124252840875,4.4545957285940645,-4.345938369998335
1733513258340205600,7.05920556640625,-3.9154502732038496,5.158189987906813,-4.500610168533027
1733513258350280700,7.06928076171875,-4.123444204342365,5.203647670745849,-4.543142319314182
1733513258360356900,7.07935693359375,-4.422945037311315,4.729110588866472,-4.501010858288407
1733513258370432000,7.089431884765625,-4.821274785561859,4.166766628718376,-4.305435094696283
1733513258380507600,7.099507568359375,-5.310425791466236,3.7660628448128697,-3.9878853948175905
1733513258390582800,7.109582763671875,-5.950578967481851,3.4824107383608816,-3.500033488813042
1733513258400659000,7.119658935546875,-6.8484478446602814,3.247847949248552,-2.79976515905261
1733513258410733800,7.12973388671875,-9.347494027125835,2.9418431412130595,-1.4995610973745583
1733513258420809700,7.139809814453125,-15.842987681049108,2.688079392546415,0.9982836734119802
1733513258430884900,7.149884765625,-15.854221022725104,2.3711533775240183,2.0434005557999013
1733513258440960800,7.159960693359375,-11.543844379973411,1.8709820881724357,2.2867910867512227
1733513258451035600,7.17003564453125,-6.956410206729173,1.6518132675468922,2.707809052149951
1733513258461111800,7.18011181640625,-3.4627497600793835,1.570737743359804,2.223826242663711
1733513258471187000,7.19018701171875,-0.5596645118057727,1.796675911989808,1.7686032253243027
1733513258481262600,7.2002626953125,1.4040110576331615,2.027292593824863,0.8942405306134372
1733513258491337700,7.210337646484375,2.9104250896424055,2.357822186785936,0.14757796781621874
1733513258501414000,7.220413818359375,4.623806047829985,3.530441486558318,-0.9373821915950625
1733513258511488800,7.23048876953125,6.935898164576292,5.12052281281352,-2.0273928393289444
1733513258521564700,7.240564697265625,9.323602863928675,6.322457638919353,-3.2390967797771095
1733513258531639800,7.250639892578125,10.788487784719466,6.7562389320403335,-3.9297254667937755
1733513258541716000,7.260716064453125,11.138791753208636,6.854763019156455,-4.189904635460675
1733513258551790600,7.27079052734375,10.79784598017335,6.713817840418219,-4.752445579485595
1733513258561866800,7.28086669921875,9.474971821525692,5.97661532601416,-4.926735101681947
1733513258571942000,7.29094189453125,7.701278725716471,4.612014487749338,-4.061653226339817
1733513258582017800,7.301017822265625,6.466878384813666,3.0008722532868384,-2.9327170009493826
1733513258592092700,7.3110927734375,5.732665699875354,1.6370973444521426,-2.2097233369007707
1733513258602168800,7.3211689453125,5.454495239704847,0.7285451606959105,-1.6238935794860123
1733513258612244000,7.331243896484375,5.406771365499496,0.15472878941893578,-0.9616425534307956
1733513258622319600,7.341319580078125,5.310377860671282,-0.3992705362319946,-0.20214615495838223
1733513258632394800,7.351394775390625,4.953016374886036,-0.8424287295073271,0.7061356143586337
1733513258642471000,7.361470947265625,4.331144120970368,-1.2612924394816158,1.9112424946293234
1733513258652545800,7.3715458984375,3.300469240106642,-1.4653437704741954,3.0523467121973633
1733513258662621700,7.38162158203125,1.922375590801239,-1.5307693055868148,4.096006746840477
1733513258672696800,7.39169677734375,0.6724687609478831,-1.5988292808562516,5.081662044021487
1733513258682773000,7.40177294921875,-0.13969488641619682,-1.615613826918602,5.827534771615267
1733513258692847600,7.41184765625,-0.2620338566228747,-1.8191133692473171,6.069096041312814
1733513258702923800,7.421923828125,0.28726328268647194,-2.332274488553405,5.808452470004558
1733513258712999000,7.4319990234375,1.3937182116776703,-2.9616584332734344,5.158328519594669
1733513258723074600,7.442074462890625,2.845176080140471,-3.5152333960324524,4.357684629632533
1733513258733149700,7.452149658203125,4.309641606475412,-3.8001106603652235,3.5506682820290325
1733513258743225900,7.462225830078125,5.537453508898616,-3.902633461728692,2.8038042053103447
1733513258753300700,7.47230078125,6.3515598147630685,-4.023223834702372,2.2726351356267926
1733513258763376600,7.482376708984375,6.709386579972505,-4.1373219230473035,1.9613621779300272
1733513258773451800,7.49245166015625,6.7729451521694655,-4.29936132774055,1.822884704479575
1733513258783528000,7.50252783203125,6.761319596305489,-4.429140384820103,1.8010275313280522
1733513258793602800,7.512602783203125,6.7479872365236275,-4.432730518266558,1.8451655098706483
1733513258803678700,7.5226787109375,6.691214378944039,-4.234546033480763,1.8991911145687101
1733513258813753900,7.53275390625,6.3692947934180495,-3.7821138159036636,1.8881120866715906
1733513258823830000,7.542830078125,5.835685344845056,-3.167157040464878,1.7457001963816583
1733513258833904600,7.552904541015625,5.215540937635303,-2.307387300056219,1.6387511030085384
1733513258843980800,7.562980712890625,4.402393247669935,-1.0015449402302503,1.694066162995249
1733513258854056000,7.573055908203125,3.201873841319978,1.0327554865300654,1.9152689736664295
1733513258864131600,7.583131591796875,-0.1929883774474263,4.239373599767685,1.9970833335220812
1733513258874206700,7.593206787109375,-17.993021688401697,9.39051133107543,-0.8259338140413165
1733513258884283000,7.603282958984375,-22.33778692296743,11.798387296319007,-3.363679729518294
1733513258894357800,7.613357666015625,-15.500578265202044,8.644086230295896,-3.6951553711578247
1733513258904433700,7.62343359375,-10.35145596536994,4.453163649964332,-3.737147131451964
1733513258914508800,7.6335087890625,-6.177986039620637,1.3463994111418722,-3.6321170234426856
1733513258924585000,7.6435849609375,-3.1596140777394175,-0.6086638127744197,-3.7321225812882184
1733513258934659800,7.653659912109375,-1.015309553949535,-1.598662692117691,-3.493001398219168
1733513258944735200,7.6637353515625,0.30148017021790147,-1.7939806815564632,-3.1265403679162262
1733513258954810400,7.673810302734375,1.0087446424759925,-1.231700434294343,-2.471621292184293
1733513258964886300,7.68388623046875,1.6067267561078071,0.06439443849921227,-1.2902329950228333
1733513258974961400,7.69396142578125,2.280243857064843,1.8040765436351298,-0.16581483157873153
1733513258985037300,7.704037353515625,2.905349101552367,3.55059813940227,0.7960431181684136
1733513258995112200,7.7141123046875,3.3953882884681224,4.9499096410423515,1.6370049899935721
1733513259005188400,7.724188232421875,3.6892359179809686,5.85076659412086,2.204732981267571
1733513259015263200,7.73426318359375,3.773345987558365,6.347308002537488,2.287989648886025
1733513259025339400,7.74433935546875,3.5906565935462713,6.02534983856678,2.0350668810881674
1733513259035414300,7.754414306640625,3.0643788030356167,4.138068357500433,1.4899872133433818
1733513259045490200,7.764490234375,2.1981834134936333,0.7680196774721145,0.9988900418072938
1733513259055565300,7.7745654296875,1.3227788815796375,-1.7859487662702798,1.1249269166838376
1733513259065641200,7.78464111328125,0.7065490905303508,-3.4125475130617615,1.3834545918166636
1733513259075716400,7.79471630859375,0.40114275984466075,-4.540881096383929,1.6757047230049966
1733513259085792300,7.804792236328125,0.37114743455350396,-5.518811936792731,1.8809245132550596
1733513259095867400,7.814867431640625,0.5980547404766082,-6.378803795519471,2.0033923705384136
1733513259105943300,7.824943359375,0.9596867431879043,-6.866230754110217,2.1520783726617694
1733513259116018200,7.83501806640625,1.406628546655178,-6.403113476389646,2.1706845811933277
1733513259126094300,7.84509423828125,1.5330653075695038,-4.734584051841497,2.1651780927315354
1733513259136169200,7.855169189453125,1.7022031460911033,-2.5327497146248814,2.0425050682649015
1733513259146245000,7.8652451171875,2.089175341764092,-0.23173253412246703,1.6469915464788674
1733513259156320300,7.8753203125,2.72820565122962,1.9714561403125523,0.9999420350782573
1733513259166396400,7.885396484375,3.469859884345531,3.9820010129541155,0.14078417949024588
1733513259176471300,7.89547119140625,4.255758917379379,5.337563973760605,-1.0146114156175403
1733513259186547200,7.905547119140625,4.569426807388663,5.736771381628513,-2.0572915723778307
1733513259196622300,7.915622314453125,4.27504112547636,5.208256041324138,-2.7560660103186962
1733513259206698200,7.9256982421875,3.3419963054984807,3.715498778745532,-2.923573909550905
1733513259216773400,7.9357734375,2.3533061706662175,1.608786026725173,-2.3571505711346865
1733513259226849300,7.945849365234375,2.030883311793208,-0.15686463240385054,-1.9916173232011496
1733513259236924200,7.955924072265625,1.5213187556743621,-1.1830343108028172,-2.1130818486608565
1733513259247000300,7.966000244140625,0.4487830474197864,-1.2841542596310376,-2.76381735509783
1733513259257075200,7.9760751953125,-1.0487141031622886,-1.6626520569473504,-2.3864397939831017
1733513259267151400,7.9861513671875,-1.958805479184538,-1.6311299604803322,-2.3560291658893227
1733513259277226200,7.996226318359375,-2.3343127163827417,-1.3812100277602672,-2.2557089891366657
1733513259287302100,8.00630224609375,-2.522894675564766,-1.104001690620184,-1.9623148024797439
1733513259297377300,8.016377197265625,-2.3232103076100348,-0.850194687333703,-1.696176140886545
1733513259307453400,8.026453369140626,-1.9963924286484718,-0.6333218686908483,-1.4222916874721645
1733513259317528300,8.0365283203125,-1.7716567676760255,-0.47735856904089446,-1.1377961159333585
1733513259327604200,8.046604248046876,-1.572977631241083,-0.29051263987123965,-0.8727262526154518
1733513259337679400,8.056679443359375,-1.30319155305624,-0.16551614089310168,-0.7454900118865072
1733513259347755300,8.06675537109375,-0.9891665201723575,-0.19460779534280298,-0.7888808983888477
1733513259357830400,8.076830322265625,-0.768936207795143,-0.4785100771635771,-0.7987637753039598
1733513259367906300,8.08690625,-0.5764871979214251,-0.764648739734292,-0.9015526802577077
1733513259377981200,8.096981201171875,-0.4525065249223262,-0.9429904599308967,-0.9913812736123799
1733513259388057300,8.107057373046874,-0.43143465692959726,-0.9018407034188508,-0.9303294966045766
1733513259398132200,8.11713232421875,-0.44541057531200345,-0.7113602171391248,-0.6959368764273822
1733513259408208400,8.12720849609375,-0.4906276543281972,-0.5571364546328783,-0.33626473907958715
1733513259418283300,8.137283203125,-0.5174572090648114,-0.5294914918601512,-0.06352398494076915
1733513259428359200,8.147359130859375,-0.5210122711978853,-0.5457435384809971,0.12290146292764693
1733513259438434300,8.157434326171876,-0.5148926192738116,-0.4975345111072063,0.2452902636254206
1733513259448510200,8.16751025390625,-0.555094719672203,-0.34526714336574077,0.337631899246946
1733513259458585300,8.17758544921875,-0.6955261036694049,-0.11630582752227782,0.43882279441952704
1733513259468661200,8.1876611328125,-0.9844073429465293,0.2283352928996086,0.5080998903937638
1733513259478736400,8.197736328125,-1.3481354411542414,0.6555167493641376,0.5311110193533822
1733513259488812300,8.207812255859375,-1.8084309394523501,1.0647720885157586,0.5313679897891357
1733513259498887400,8.217887451171874,-2.376012654123455,1.305201723834872,0.5320625844571739
1733513259508963300,8.22796337890625,-2.99016381226778,1.3862620504528282,0.46952013050019736
1733513259519038200,8.2380380859375,-3.591634498667717,1.3925205263257026,0.2746786359993741
1733513259529114400,8.2481142578125,-4.0966009133413435,1.36954823153913,-0.022448289178777486
1733513259539189200,8.258189208984374,-4.524318668639659,1.3953069421738384,-0.3952867272928357
1733513259549265400,8.268265380859376,-4.848761342902481,1.5333815339118242,-0.8600607592444867
1733513259559340300,8.27834033203125,-5.069669408410787,1.7740677743405102,-1.3819858344383538
1733513259569416200,8.288416259765626,-5.0868461686611175,2.3387001376867294,-1.9087107841946183
1733513259579491300,8.2984912109375,-4.932719436788559,3.211408270123601,-2.427228315967321
1733513259589567200,8.308567138671876,-4.764705633860826,4.135491785010696,-2.907383822250366
1733513259599642400,8.318642333984375,-4.681448673981428,4.977952663221955,-3.3784020823538303
1733513259609718300,8.32871826171875,-4.660794300748408,5.425122430226207,-3.8467937933459875
1733513259619793200,8.338793212890625,-4.7172632069453595,5.221168714389204,-4.283623660382628
1733513259629869300,8.348869384765624,-4.999630826544761,4.574302888992428,-4.629488185119628
1733513259639944200,8.358944091796875,-5.589351453918218,4.0094139205366375,-4.8330043863222
1733513259650020400,8.369020263671874,-6.4841971838831896,3.6845460065990685,-4.776844399943948
1733513259660095200,8.37909521484375,-7.958194216412306,3.571756662765145,-4.458928204840421
1733513259670171100,8.389171142578125,-11.596135708224773,3.6235961555957794,-3.4701597440749405
1733513259680246300,8.399246337890625,-18.288287075757978,3.785602242541313,-1.4097592458963393
1733513259690322400,8.409322509765625,-16.644795061832664,3.510262037360668,-0.5308673833232372
1733513259700397300,8.419397216796876,-11.489240683126448,2.8572745142132043,-0.022295308840461076
1733513259710473200,8.42947314453125,-6.851522429800033,2.3955595045059916,0.6153376645151525
1733513259720548400,8.43954833984375,-3.667867843520641,1.8444594074279068,0.6611516134459525
1733513259730624300,8.449624267578125,-1.1035749896407128,1.732474950236082,0.9126220635436475
1733513259740699400,8.459699462890624,0.6376666198968887,1.8884131154447792,0.9443086298573762
1733513259750775300,8.469775390625,1.8953706794977188,2.0806950981885195,0.4712167052850127
1733513259760850200,8.47985009765625,3.3304163423418998,2.7586808689922093,-0.2302515200507827
1733513259770926300,8.48992626953125,5.551988230207562,4.21066188454628,-1.1875248271550982
1733513259781001200,8.500001220703124,8.182714334937929,5.778430841228365,-1.990711898794025
1733513259791077400,8.510077392578125,10.087681110298632,6.96913466374576,-2.238866283146292
1733513259801152300,8.52015234375,11.366855827951431,7.864273823699355,-2.0485230133801697
1733513259811228200,8.530228271484376,12.138639826393126,7.853962273043393,-2.53592366848588
1733513259821303300,8.54030322265625,11.428591860896349,6.978563001826405,-3.614738018618524
1733513259831379200,8.550379150390626,9.715043144926428,5.772697850534319,-3.999635746105015
1733513259841454300,8.560454345703125,8.159709891447424,4.377753311932087,-3.736390467865765
1733513259851530200,8.5705302734375,7.051689028313755,2.8926147076636552,-3.291939896692335
1733513259861605000,8.580605224609375,6.291722308915853,1.491558992704749,-2.7745868786543606
1733513259871681300,8.590681396484374,5.694285992598533,0.38892099165320393,-2.37733265068084
1733513259881756400,8.60075634765625,5.1348225563228125,-0.3632365152984857,-2.2010697825849057
1733513259891832300,8.610832275390624,4.4667450160712,-0.8058376592129468,-2.0750997623994945
1733513259901907200,8.6209072265625,3.7133401394069194,-1.349727094259858,-1.573764982226491
1733513259911983400,8.6309833984375,2.661090847855806,-1.6971084533005951,-0.7473973068125546
1733513259922058200,8.641058349609375,1.2372919706910848,-1.9078741872400045,0.1839583910346031
1733513259932134400,8.651134521484375,-0.5447995356291532,-1.7943617898285389,1.1441297028690576
1733513259942209500,8.66120947265625,-1.8076789520412682,-1.5351719244599342,2.178344156035781
1733513259952285200,8.67128515625,-1.5009873307853936,-1.2083575526297092,2.7661218326479196
1733513259962360300,8.6813603515625,0.08115531142503023,-1.0857792207092045,2.884405097723007
1733513259972436500,8.6914365234375,2.2113529839292165,-1.2566215250611303,2.516320557871461
1733513259982511600,8.70151171875,4.296502431178093,-1.5555618015378712,2.053472744742036
1733513259992587300,8.711587158203125,6.194568925631046,-1.911157446694374,1.7842422546133399
1733513260002662400,8.721662353515624,7.621307363379001,-2.3070260655283925,1.6375070942968128
1733513260012738600,8.731738525390625,8.441392743653058,-2.8020459634661674,1.5544240296795964
1733513260022813400,8.7418134765625,8.993725012874602,-3.355857657590508,1.5981920058660208
1733513260032889300,8.751889404296875,9.04563172572255,-3.862694250050187,1.7213140892744063
1733513260042964500,8.761964599609374,8.569227680927515,-4.320583563989401,1.8867665172815322
1733513260053040400,8.772040283203125,7.917392250424623,-4.64489092143476,2.0821955658793447
1733513260063115300,8.782115234375,7.365954299694299,-4.726397238254547,2.412167963349074
1733513260073191400,8.79219140625,6.8989937905490395,-4.516773660087585,2.9260531591460106
1733513260083266600,8.8022666015625,6.385991661196947,-4.008534215092658,3.4328765998631714
1733513260093342200,8.81234228515625,5.861006833106279,-3.298525412562489,3.8759327940687536
1733513260103417300,8.822417236328125,5.308132712092996,-2.4998288572758436,4.293836426839232
1733513260113493500,8.832493408203124,4.564684289036691,-1.510444310438633,4.812730536839366
1733513260123568400,8.842568359375,3.0490578997850415,-0.30282676252126695,5.325386044710874
1733513260133644300,8.852644287109374,-1.3274597328722477,1.8003151452749966,5.438814855492114
1733513260143719400,8.862719482421875,-12.740264826571941,4.759766423892975,4.005824371612071
1733513260153795600,8.872795654296874,-16.388410901534556,6.567437777149677,1.1646205561034382
1733513260163870200,8.8828701171875,-12.720568776977062,6.625521132805943,-0.4481856660485267
1733513260173946400,8.8929462890625,-7.4077639814198015,5.334166732537746,-0.9454407756924629
1733513260184021500,8.903021484375,-4.556382909159362,3.6612130618065595,-1.663960509197414
1733513260194097400,8.913097412109375,-3.2979081574469804,2.1025644001692534,-2.524915952259302
1733513260204172300,8.92317236328125,-2.0170260513544083,0.7109457911193371,-3.304182707671821
1733513260214248400,8.93324853515625,-0.5270835539355874,-0.41320203095078467,-3.8286426351055503
1733513260224323600,8.943323486328126,0.8756000544860959,-0.8809352780342101,-3.7935683991149065
1733513260234399200,8.953399169921875,1.535499402848631,-0.2232633964627981,-3.2070003905534743
1733513260244474400,8.963474365234376,1.554739671500027,1.2212871768295763,-2.409176672578603
1733513260254550500,8.973550537109375,1.5203095786318181,2.9756366897433995,-1.6682187511637805
1733513260264625400,8.98362548828125,1.6863544195741413,4.595229357165098,-0.9760394737042486
1733513260274701300,8.993701416015625,1.9026053069263695,5.76413577389419,-0.24498532586209473
1733513260284776400,9.0037763671875,2.0375053602814672,6.744020670980214,0.3785256717039272
1733513260294852600,9.0138525390625,2.047336433944106,7.351386845159531,0.886646056896448
1733513260304927200,9.02392724609375,2.15079914650619,6.80734660346508,1.1375783815294505
1733513260315003400,9.03400341796875,2.1102678141534326,4.1451662068068975,1.128443692633137
1733513260325078500,9.04407861328125,1.5092254361681638,0.19285832132697103,1.1765968251012264
1733513260335154200,9.054154296875,0.9192482036851346,-2.567487850528955,1.2601625586688519
1733513260345229300,9.064229248046875,0.614991919817403,-4.006601785725355,1.5661856330133974
1733513260355305500,9.074305419921876,0.5894559120226651,-4.631715798041224,1.9959715728878973
1733513260365380600,9.084380615234375,0.8075358414329588,-4.807408465033769,2.4778125480398536
1733513260375456300,9.094456298828124,1.214030191438645,-4.869667060548067,2.906012826158106
1733513260385531400,9.104531494140625,1.6114764348529278,-4.6005888383716345,3.193921421010792
1733513260395607600,9.114607666015624,1.910911362978816,-3.807621766647696,3.2317052082210775
1733513260405682400,9.124682373046875,1.7032780818462372,-2.507284433978796,3.124097358678281
1733513260415758300,9.13475830078125,1.6109364827573298,-0.9690314946383237,2.7232044819414614
1733513260425833500,9.14483349609375,1.554734118542075,0.5231798244953155,2.289457383351028
1733513260435909600,9.15490966796875,1.7903320959210394,1.7807535357147455,1.6607834865964948
1733513260445984300,9.164984375,2.120537279233336,2.5057465568870305,0.7104676522135734
1733513260456060400,9.175060302734375,2.377114916276932,2.7305840707987543,-0.4139611787550151
1733513260466135600,9.185135498046876,2.3550141436278818,2.487583708208799,-1.0946686296075583
1733513260476211200,9.195211181640625,1.7006325357735157,1.9915490802705287,-1.4022383488722145
1733513260486286300,9.205286376953126,0.9468109680671244,1.2980752329558134,-1.4353312017872928
1733513260496362500,9.215362548828125,0.4006821565955877,0.4811719898492098,-1.1623306185353546
1733513260506437400,9.225437255859376,0.12258593070507048,-0.07690028432905674,-1.010534156241268
1733513260516513300,9.23551318359375,-0.1703647499680519,-0.45939913398027415,-1.100014739875868
1733513260526588400,9.24558837890625,-0.803437027812004,-0.4231225364625454,-1.9441050459198652
1733513260536664600,9.25566455078125,-1.8473837704420089,-0.22199030778706072,-2.893827590584755
1733513260546739500,9.265739501953124,-2.815362541157007,0.07840425915122032,-3.794188284578919
1733513260556815400,9.2758154296875,-3.510387125045061,0.17508593327105043,-4.0964162044242025
1733513260566890500,9.285890380859374,-3.985411990441382,0.06475333493947982,-3.7741748395979404
1733513260576966400,9.29596630859375,-4.152998800128698,-0.2304524311840534,-3.1978806800305843
1733513260587041300,9.306041259765625,-4.02169881709218,-0.6351490841180085,-2.746814490109682
1733513260597117400,9.316117431640626,-3.622091596251726,-0.954765653398633,-2.556085582026839
1733513260607192600,9.326192626953125,-3.1685636923924085,-0.9863684138864278,-2.4405031003430486
1733513260617268200,9.336268310546876,-2.7051886405184864,-0.9016028030097484,-2.18932060034126
1733513260627343400,9.34634326171875,-2.279995289131254,-0.8529331723868846,-1.891506843676418
1733513260637419500,9.35641943359375,-1.9116789863504469,-0.7652227402299642,-1.5664821317419408
1733513260647494400,9.366494384765625,-1.6555498237267137,-0.6346493179023266,-1.2562675970569253
1733513260657570300,9.3765703125,-1.4502011463999747,-0.4705845448613167,-0.9865253580138087
1733513260667645400,9.3866455078125,-1.2853823401212692,-0.394264106246829,-0.7394004628397524
1733513260677721600,9.3967216796875,-1.111969746889919,-0.4135217644244432,-0.47693895538933573
1733513260687796500,9.40679638671875,-0.9630980129361152,-0.4602425990670919,-0.21782460294235498
1733513260697872400,9.416872314453125,-0.8128874315939844,-0.5183960973501205,0.041974124172749
1733513260707947500,9.426947509765625,-0.613753975520283,-0.5449310530543326,0.2750634705984965
1733513260718023400,9.4370234375,-0.43117600599341094,-0.5818026938557624,0.5477870270073414
1733513260728098300,9.447098388671876,-0.3766049693070352,-0.7062520803451537,0.8381857581753284
1733513260738174500,9.457174560546875,-0.4048338694475591,-0.8906547080159187,1.1756529683798551
1733513260748249300,9.467249267578126,-0.5682124137900769,-0.9993594128847122,1.3722297257080673
1733513260758325200,9.4773251953125,-0.9380079953432082,-0.9443763613313436,1.2221997616298497
1733513260768401400,9.4874013671875,-1.3102446864381432,-0.7101543484807014,0.8102664354406297
1733513260778476500,9.4974765625,-1.6358650261782108,-0.4638806633085012,0.27621653135744856
1733513260788552400,9.507552490234374,-1.8690907214678822,-0.2730933030366897,-0.17180176050122825
1733513260798627300,9.51762744140625,-2.0670599560678005,-0.14964520254433153,-0.5256864735540002
1733513260808703500,9.527703369140625,-2.392442249268293,-0.241855868729949,-0.7889682844113558
1733513260818778600,9.537778564453125,-2.7929297600746152,-0.32443595226109023,-1.3260026659317314
1733513260828854300,9.547854248046875,-3.224285871875286,0.06185235280096531,-2.1818740837275983
1733513260838929400,9.557929443359376,-4.005788131254911,0.9346212755143641,-2.8905989839270707
1733513260849005600,9.568005615234375,-5.582561647647619,2.0544640938669443,-3.1880323629721996
1733513260859080200,9.578080078125,-8.088806801706552,3.358407926595211,-2.971246930351853
1733513260869156400,9.58815625,-11.343780072790384,5.005094352647662,-2.4217739960841835
1733513260879231500,9.5982314453125,-14.864157845973967,6.952105203011632,-1.788538782763481
1733513260889307400,9.608307373046875,-15.717534085953234,8.134003203260898,-1.22581042640768
1733513260899382300,9.61838232421875,-12.177338682621716,7.472969151780009,-0.773348032888025
1733513260909458400,9.62845849609375,-6.843274825936556,5.923262506011128,-0.4461442964140325
1733513260919533600,9.638533447265624,-3.034388738441467,4.9881099000990385,-0.48163968042619526
1733513260929609200,9.648609130859375,-1.0181260726749897,4.467494957655668,-0.9290359496627002
1733513260939684400,9.658684326171874,0.24110358905792234,3.9783459975779056,-1.6414010329954325
1733513260949760800,9.6687607421875,1.3899649966239929,3.901469678646326,-2.3764140745311972
1733513260959835600,9.678835693359375,2.7732372176110744,4.348237879112363,-3.2973727353960274
1733513260969911800,9.688911865234376,4.417904705056547,5.332669771978259,-4.7213884701818225
1733513260979986700,9.698986572265625,6.405129492387175,6.630519964006543,-6.291006269600987
1733513260990062600,9.7090625,7.981805393624305,7.4831813337147235,-7.418239782726764
1733513261000137700,9.7191376953125,8.136362918129564,7.6039581691712135,-7.616669182184338
1733513261010213600,9.729213623046874,7.4969076612502334,6.793674051943421,-7.032004084634781
1733513261020288800,9.739288818359375,6.943427975559234,5.403082447853684,-6.093221013265848
1733513261030364700,9.74936474609375,6.934757762369513,3.9561037706315516,-4.926840315622091
1733513261040439600,9.759439453125,7.376031457072496,2.7121242850005625,-3.2861408550247546
1733513261050515700,9.769515625,7.867475250089168,1.7983078971058128,-1.6989197405062615
1733513261060590800,9.7795908203125,7.958996180444955,0.8651753988444805,-0.6032463177703321
1733513261070666800,9.789666748046875,7.781181114470958,0.36822950128018855,0.74037003852427
1733513261080741600,9.79974169921875,6.789579476106167,-0.029188100561499595,2.1236931129157544
1733513261090817800,9.80981787109375,4.623194053411484,-0.24260288770496843,3.23843422421515
1733513261100892700,9.819892578125,-0.641638446137309,-0.1612456239670515,4.704517414879799
1733513261110968600,9.829968505859375,-9.138633834546804,0.20055764365792272,6.487159540820121
1733513261121043700,9.840043701171876,-11.317668310934305,0.626748335519433,6.88963091892004
1733513261131119600,9.85011962890625,-7.311221423509717,0.5932347729742526,6.045706397897005
1733513261141194500,9.860194580078126,-0.994023897075653,0.12461129905283451,5.271016741141676
1733513261151270700,9.870270751953125,3.5326670536532996,-0.33311960945427416,4.483741743579507
1733513261161345800,9.880345703125,5.796323056271672,-0.8695201500505209,3.878315597552061
1733513261171421700,9.890421630859375,6.9545099260658025,-1.6943389885872602,3.4268133543014523
1733513261181496600,9.90049658203125,7.514439810809493,-2.6829385225266216,3.078873192334175
1733513261191572700,9.91057275390625,7.49131787841916,-3.6054397366583344,2.7012884182095527
1733513261201647900,9.92064794921875,7.083259055575728,-4.415747234761715,2.444322804761678
1733513261211723800,9.930723876953126,6.610429362136125,-4.971144736772775,2.4413227461628613
1733513261221798700,9.940798583984375,6.2012587786585085,-5.001150583457947,2.5281226393461225
1733513261231874800,9.950874755859376,5.873031617420912,-4.702695460149646,2.5990917800605295
1733513261241949700,9.96094970703125,5.532166508406401,-4.272077599495649,2.7575185472145676
1733513261252025600,9.971025634765626,4.974044549867511,-3.7815766402870414,2.9906755611822007
1733513261262100700,9.981100830078125,4.396934982264042,-3.3978204840511084,3.2076082933187484
1733513261272176600,9.9911767578125,3.842513047286868,-3.0969273199409244,3.4268528095290063
1733513261282251500,10.00125146484375,3.0952593867287037,-2.840469509884715,3.5376460111096497
1733513261292327700,10.01132763671875,2.295734856185317,-2.725752997380495,3.3899095647960897
1733513261302402800,10.02140283203125,1.4856725650146603,-2.670720845988393,2.9861522385388612
1733513261312478700,10.031478759765625,0.6894877002879977,-2.6143115610241887,2.269534393132478
1733513261322553600,10.0415537109375,-0.09103665397018193,-2.367679563933611,1.2584672990582884
1733513261332629800,10.051629638671875,-0.9473515777498484,-1.8689888685286045,0.15879413916170595
1733513261342705000,10.061704833984376,-1.9635627567142246,-1.1156401059657335,-0.8418917000211775
1733513261352780800,10.07178076171875,-3.2120319549798966,-0.1525625512957573,-1.863946782708168
1733513261362855700,10.081855712890626,-4.816761107529699,1.0331149674922226,-3.0804370806500314
1733513261372931800,10.091931884765625,-6.422182333996892,2.1703099026620385,-4.303737935389578
1733513261383007700,10.1020078125,-7.3709952164709565,3.0455460922718047,-5.20888849400878
1733513261393082600,10.11208251953125,-7.480681333592534,3.542106205388903,-5.585608175736666
1733513261403158800,10.12215869140625,-7.107378182309866,3.3751971488326786,-5.184727281698584
1733513261413233700,10.132233642578125,-6.133858144080638,2.266679442092776,-3.6880297570616003
1733513261423309800,10.142309814453125,-4.7275525457695124,0.9304705855756997,-2.0759959805868564
1733513261433384700,10.152384765625,-2.9776135427743196,-0.06131868431568145,-0.8986769786909222
1733513261443460600,10.162460693359375,-0.4778136193320155,-0.8686585647851228,0.16067746869027613
1733513261453535700,10.17253564453125,1.002899569709599,-0.4431844967603683,1.2963904947392642
1733513261463611600,10.182611572265625,0.1245113458096981,2.410494623309374,1.7770801078990102
1733513261473686800,10.192686767578126,-3.1473905559822914,6.762471104428172,1.43969144282341
1733513261483762700,10.2027626953125,-7.328404613500833,10.941887371361256,1.334985013810545
1733513261493837600,10.212837646484376,-5.728032779377698,11.137698697274923,2.6815347932085394
1733513261503913700,10.222913818359375,-2.2915508484989404,8.408423955509067,3.135500503963232
1733513261513988600,10.232988525390626,-1.4384025720566511,5.410721564429998,1.7494797149203716
1733513261524064800,10.243064697265625,-0.8555155900955199,2.8451667277902364,1.0452589942723511
1733513261534139600,10.2531396484375,-0.5772337785050272,0.38408816466927526,0.811348531588912
1733513261544215600,10.263215576171875,0.7069450310453772,-1.9999936680108308,0.7414831143327056
1733513261554290700,10.273290771484374,3.8747991138637063,-3.643700785991549,0.37784269440844653
1733513261564366800,10.283366943359376,6.310842604449391,-4.784940612637996,0.2502319212786853
1733513261574441700,10.293441650390625,7.440501883417367,-5.654248581242561,0.47463396638259286
1733513261584517600,10.303517578125,7.881012777054309,-6.231182792279124,0.9037680182196199
1733513261594592800,10.3135927734375,8.201331941646337,-6.592747574973106,1.4112883551597595
1733513261604668700,10.323668701171876,8.385061200100184,-6.3485074414551255,1.7939573006808758
1733513261614743800,10.333743896484375,8.143629109740257,-5.013176536816358,1.4111134369842708
1733513261624819700,10.34381982421875,7.776947422423959,-2.980275455459952,0.25437851956412194
1733513261634894600,10.35389453125,7.551964947083592,-1.0575357075214384,-0.9625536769263445
1733513261644970800,10.363970703125,7.261372227713466,0.7533271352529526,-2.26436911932379
1733513261655045600,10.374045654296875,6.444263817423582,2.598015090739727,-3.6927094393104314
1733513261665121800,10.384121826171874,4.4424458565950395,4.2377427836954595,-5.054289468449354
1733513261675196700,10.39419677734375,1.3281065063431858,5.155033569702506,-5.88940875172615
1733513261685272600,10.4042724609375,-2.8335698134988543,4.948315065327287,-5.646588421878218
1733513261695347700,10.41434765625,-6.519041118249297,3.989152638274431,-4.309191232359409
1733513261705423600,10.424423583984375,-6.437708988952636,2.7788176480919122,-2.9142645216748115
1733513261715498800,10.434498779296876,-4.253855714106559,1.6167279256403446,-1.3988491448253393
1733513261725574700,10.44457470703125,-2.488824648180604,0.8006003430813551,0.5238844656333327
1733513261735649500,10.4546494140625,-1.0343137488227336,0.1811485943108797,1.9674099336616693
1733513261745725700,10.4647255859375,-0.03753434249386191,-0.5293640660881996,2.5758999973043797
1733513261755800800,10.47480078125,0.46851073426194484,-1.2467810990482568,2.6457915719151495
1733513261765876700,10.484876708984375,0.7351650172270834,-1.6216127750724554,2.5971450299069283
1733513261775951600,10.49495166015625,0.7911095342237502,-1.6179332097768782,2.5311919637888667
1733513261786027800,10.50502783203125,0.738153020061925,-1.415188869729638,2.3843866608455775
1733513261796102700,10.5151025390625,0.605290025492385,-1.0583096145033837,2.0090899976581333
1733513261806178800,10.5251787109375,0.44190198266915975,-0.6445780067205429,1.2700219816431402
1733513261816253700,10.535253662109374,0.2411632833559066,-0.4245277270853519,0.34495815048180517
1733513261826329600,10.54532958984375,-0.16584581123888492,-0.2958212676733732,-0.5201629974247888
1733513261836405800,10.55540576171875,-0.7559481314063071,-0.23991408701241015,-1.3110263383351266
1733513261846480600,10.565480712890626,-1.399517253345251,-0.31658582328259943,-1.8856753610439598
1733513261856556500,10.575556640625,-2.069537159836292,-0.22143559651374817,-2.358443095163256
1733513261866631700,10.585631591796876,-2.5711300064235925,-0.2277864268451929,-2.5573209690406915
1733513261876707800,10.595707763671875,-2.619863349932432,-0.2843067709684372,-2.4178831261254845
1733513261886782700,10.60578271484375,-2.4963170497626064,-0.22181904287338255,-1.9776834903948008
1733513261896858600,10.615858642578125,-2.2510165935367343,-0.17907120351493358,-1.3869032709658144
1733513261906933800,10.625933837890624,-1.949067198371887,-0.1413426536232233,-0.7054686748825013
1733513261917009700,10.636009765625,-1.6717852114737033,-0.16525719769597053,-0.15804428890878333
1733513261927084800,10.646084716796874,-1.4085036928772925,-0.2991483662694692,0.2601123505083844
1733513261937160700,10.65616064453125,-1.1792343339979647,-0.47054245928525923,0.5735037251312285
1733513261947236400,10.666236328125,-1.0243804568946362,-0.7173673485994339,0.6763840346954763
1733513261957312000,10.67631201171875,-0.8527659991264342,-1.049539448070526,0.6166483087223023
1733513261967387100,10.68638720703125,-0.6294108327269554,-1.308504857033491,0.48289168978128577
1733513261977463300,10.69646337890625,-0.4962416217524558,-1.3996727361679075,0.34308855721764264
1733513261987538200,10.7065380859375,-0.4781307224571705,-1.3259697865754365,0.10442505478821694
1733513261997614000,10.716614013671874,-0.5719734102914109,-1.1639414877980947,-0.272944724878855
1733513262007689200,10.726689208984375,-0.7424445067107677,-0.8204442767143248,-0.89161032824032
1733513262017765400,10.736765380859374,-1.0879798725586385,-0.23158055843114853,-1.925360305700451
1733513262027840300,10.74684033203125,-1.609778983285278,0.4626590125590563,-3.287913417655229
1733513262037916200,10.756916259765624,-2.4777730928122996,1.1009919874101877,-4.8752603505104775
1733513262047991300,10.7669912109375,-4.175642009091377,1.4233020335584878,-6.526945607763529
1733513262058067200,10.777067138671875,-7.027882036268711,1.3748591974288225,-8.038308202090859
1733513262068142000,10.78714208984375,-11.011484054678679,1.0461375306725502,-8.854429939430952
1733513262078218200,10.79721826171875,-14.499330846613645,0.8474135321825742,-8.631167127490043
1733513262088293400,10.80729345703125,-15.747206755161285,1.391042854988575,-7.8963874563187355
1733513262098369000,10.817369140625,-14.27913677459359,2.963835777312517,-7.2487412941992275
1733513262108444200,10.827444091796876,-11.235251893532276,5.309899137243629,-6.782729464080929
1733513262118520300,10.837520263671875,-7.816402065455913,7.777761076894402,-6.051373337617516
1733513262128595200,10.84759521484375,-4.939982705789804,9.145733437418937,-4.893641225853562
1733513262138671000,10.857671142578125,-2.75718741556406,8.468063892957568,-3.7078935644388196
1733513262148746200,10.867746337890624,-1.2514362313777208,6.994501744714379,-2.9945459728747603
1733513262158822400,10.877822509765625,0.025461225525476038,5.759779332250356,-2.5136779344081877
1733513262168897000,10.88789697265625,1.2458359271526336,4.8173780703842635,-1.9198522098034618
1733513262178973200,10.89797314453125,2.333204462879896,4.069057949638366,-1.0652264081545173
1733513262189048300,10.90804833984375,3.410684057277441,3.529269520169496,-0.10447090322393923
1733513262199124200,10.918124267578126,4.742488541355729,3.2502573484778403,0.5959054534882307
1733513262209199000,10.92819921875,6.154654848393798,3.2884143529146908,0.9815483002535998
1733513262219275300,10.938275146484376,7.381946818596124,3.5171652408778664,1.1475237292215228
1733513262229351200,10.94835107421875,8.148948843458294,3.6053614107251164,1.2855065510228276
1733513262239426000,10.958426025390626,8.302919507986307,3.2688141649097204,1.4510449037477373
1733513262249502200,10.968502197265625,7.724922636154294,2.705495222249627,1.6192496992029248
1733513262259577300,10.978577392578124,6.6162997154742476,2.2939082252800462,1.5880300928138196
1733513262269653000,10.988653076171875,5.539568309095501,1.935436147904396,1.4392663492791353
1733513262279728000,10.99872802734375,4.760348023173213,1.557501829689741,1.2520381427936256
1733513262289804300,11.00880419921875,4.074078115887939,1.258960781663656,1.0663054355628787
1733513262299879400,11.01887939453125,3.387324224478006,1.011838370707631,0.9347852339044213
1733513262309955000,11.028955078125,2.808685255350172,0.7952016989082098,0.8946385900203138
1733513262320030200,11.0390302734375,1.9467755803033708,0.6051005673348904,1.1545507783140987
1733513262330106400,11.0491064453125,0.40484219888448714,0.6364169120967388,1.5472667052708566
1733513262340181000,11.059180908203125,-2.108263926985115,0.770928258395195,2.21724511070773
1733513262350257200,11.069257080078126,-4.018831737223267,0.9128963504403829,3.0083079562455413
1733513262360332300,11.079332275390625,-4.017683736231922,1.0034072269707917,3.527408986994624
1733513262370408200,11.089408203125,-2.7558921150565148,0.954220878997445,3.6609126175552604
1733513262380483000,11.099483154296875,-0.8968900952741503,0.7222299861997366,3.532845332829654
1733513262390559200,11.109559326171874,1.0436370921589433,0.36824703693687916,3.2539591256052254
1733513262400634400,11.11963427734375,2.695295023013651,-0.11574234842061996,2.9993297000199552
1733513262410710000,11.1297099609375,3.9947611258059736,-0.7587374698638916,2.7968513174325227
1733513262420785200,11.13978515625,4.980264447295665,-1.4844804326206444,2.6589307472124695
1733513262430861300,11.149861328125,5.73629207367897,-2.1186592104017734,2.562945823185146
1733513262440936200,11.159936279296875,6.316265798541903,-2.641976397541165,2.5160128070965406
1733513262451012000,11.17001220703125,6.783908444732427,-3.0284821447461843,2.461716568763554
1733513262461087200,11.180087158203126,7.139062775862216,-3.3494618190735577,2.453544368223846
1733513262471163400,11.190163330078125,7.305298463201522,-3.680706866827607,2.5747370910048484
1733513262481238000,11.200238037109376,7.265467972594499,-4.043811280179024,2.8243361212074753
1733513262491314200,11.210314208984375,7.033558912861347,-4.495416399282217,3.105854722762108
1733513262501389300,11.220389404296874,6.576801233300566,-5.0913452336460345,3.283275820982456
1733513262511465200,11.23046533203125,5.980340484017133,-5.829994439727067,3.2408050449997186
1733513262521540000,11.2405400390625,5.360909778034687,-6.47711044049263,3.041827948531508
1733513262531616300,11.2506162109375,4.768928219991922,-6.78112378244996,2.89025616183877
1733513262541691400,11.26069140625,4.018169473922252,-6.54794280308485,2.76751036439687
1733513262551767000,11.27076708984375,2.739063729852438,-5.7923453848123545,2.816135279095173
1733513262561842200,11.28084228515625,1.3498453138120472,-4.1213925325095655,2.867975940969586
1733513262571918300,11.29091845703125,-0.899402954877913,-0.8386182313084601,2.468131988763809
1733513262581994200,11.300994140625,-27.29947526460886,6.853301129910349,-4.218850159437954
1733513262592069000,11.311069091796876,-42.18572569992542,15.196692349016665,-10.169660305327177
1733513262602145300,11.321145263671875,-21.836580445349217,11.657833162724971,-7.175453939670324
1733513262612220200,11.33122021484375,-10.010636449062824,6.126431793472171,-5.3007548768013715
1733513262622296000,11.341296142578125,-4.081467933878303,1.9422966813236473,-3.226002612665295
1733513262632371200,11.35137109375,-0.9194196147292852,-0.820348999646306,-1.81786322305575
1733513262642447400,11.361447265625,0.38623336000442504,-2.0622727217912673,-0.9631870794590562
1733513262652522000,11.37152197265625,1.0461049435772,-2.6992747402995825,-0.9073482878591865
1733513262662598100,11.38159814453125,1.8004145139962433,-3.526797577098012,-0.9555896100673824
1733513262672673300,11.39167333984375,3.0235438115611672,-3.820449684038758,-0.9961609821695834
1733513262682749200,11.401749267578126,3.806912157073617,-1.9059172079533337,-0.5888477169964462
1733513262692824000,11.411823974609375,4.711853749117255,1.57443835144341,0.332158509337157
1733513262702900200,11.421900146484376,5.76730622062385,5.457639382949472,1.1597672708533704
1733513262712975400,11.431975341796875,6.229084943217039,8.180915176561474,1.759728283342719
1733513262723051300,11.44205126953125,5.612210935980081,8.592799695172905,2.1001738517709074
1733513262733126100,11.452126220703125,4.6142374244958155,6.847748171958327,1.8975247887916862
1733513262743202300,11.462202392578124,4.468254251590371,3.5637738473176954,1.141632479225844
1733513262753277200,11.472277099609375,4.928481653088331,0.4727952066481113,1.3888880150422453
1733513262763353000,11.48235302734375,5.347632947832346,-1.4822183329075573,2.6400024671196936
1733513262773428200,11.49242822265625,5.757962638217211,-1.8626964903861283,3.9932945603847503
1733513262783504100,11.502504150390624,6.284865867149829,-1.489419642588496,4.840535074087978
1733513262793579000,11.5125791015625,7.091723517060279,-1.2008148821651934,4.923400988823175
1733513262803655200,11.5226552734375,8.180700657027959,-0.656937137556076,4.348545922148228
1733513262813730300,11.532730224609375,8.743723831611872,0.10822948857247829,3.0687323220700025
1733513262823806200,11.54280615234375,8.01518276256919,0.965605027320981,1.820580957581848
1733513262833881000,11.552881103515626,6.835839122977853,1.7671932123959064,0.9771303376808762
1733513262843957200,11.562957275390625,6.218249076426029,2.174833517566323,-0.04094133792575449
1733513262854032400,11.573032470703126,5.977878477817773,2.3949697219192982,-0.7824550300598144
1733513262864108000,11.58310791015625,6.141863755881786,2.6796359738498925,-1.3082070431306958
1733513262874184200,11.59318408203125,5.8677194824874395,2.8162340632945297,-1.4209335508614778
1733513262884259300,11.60325927734375,4.980260355642438,2.763169997105002,-1.0801772359836845
1733513262894335200,11.613335205078124,3.8994998398780822,2.4481179592609403,-0.7044135398063808
1733513262904410000,11.62341015625,3.3004233551383018,2.183576211470365,-1.122490994773805
1733513262914486300,11.633486328125,2.7536002047270536,1.6896347564190626,-1.8510753184363244
1733513262924561200,11.64356103515625,2.3987479252837596,0.9603256256133318,-2.490038992406428
1733513262934637300,11.65363720703125,2.1060890671640635,0.1648182217568159,-2.860568879583478
1733513262944711700,11.663711669921875,1.0011340213418007,-0.9017448418289422,-2.0728154508545993
1733513262954787800,11.673787841796875,-0.34016660535633564,-1.416936590179801,-1.7799942417800425
1733513262964862500,11.683862548828126,-1.4625065012216567,-1.3046399982988834,-2.3229680232867596
1733513262974938600,11.693938720703125,-2.526509358930588,-1.1152280180335044,-2.9918250234782695
1733513262985013800,11.704013671875,-3.233856833297014,-1.0603110174536705,-3.0701904119238255
1733513262995089700,11.714089599609375,-3.5839375144243237,-1.056104213413596,-2.727050635975599
1733513263005164500,11.72416455078125,-3.6995629584670064,-0.8157242624551058,-2.2399274826370177
1733513263015240700,11.73424072265625,-3.7075042728602883,-0.3244815449684858,-1.7726532313674688
1733513263025315800,11.74431591796875,-3.65136445248723,-0.12447335188686846,-1.4311604919739067
1733513263035391500,11.7543916015625,-3.732816408771276,0.07719079170823097,-1.3627043569937347
1733513263045466600,11.764466552734374,-3.9139153187215325,0.23587445623278616,-1.4876407963477074
1733513263055542800,11.774542724609375,-4.043904803681373,0.16080430994033812,-1.6197333910666405
1733513263065617700,11.78461767578125,-4.1228608514964575,-0.0833762023448944,-1.7182818819716572
1733513263075693600,11.794693603515626,-4.1190693502590054,-0.32424422908127304,-1.6898105513773858
1733513263085768700,11.804768798828125,-3.989019951805472,-0.4172463379055261,-1.5160469527512788
1733513263095844900,11.814844970703126,-3.7941000217735765,-0.3627934477061033,-1.2377587114199995
1733513263105919500,11.82491943359375,-3.6475334960222243,-0.2112251681447029,-0.9692698334388434
1733513263115995600,11.83499560546875,-3.6188860782086847,-0.03254617881774902,-0.6872096723534167
1733513263126070800,11.84507080078125,-3.7833927497982978,0.24060090023279188,-0.5235507036343217
1733513263136146400,11.855146484375,-4.146378797467053,0.6384077936530113,-0.5261908428795635
1733513263146221600,11.8652216796875,-4.628471993814409,1.2072656657397747,-0.6342777081109583
1733513263156297700,11.875297607421874,-5.206745636761188,1.8293419177949428,-0.8260827940579504
1733513263166373600,11.88537353515625,-6.004259119743108,2.4309189871788024,-1.2591107115283608
1733513263176448500,11.895448486328124,-6.897692644822597,2.843050174027681,-2.13681635999158
1733513263186524700,11.905524658203126,-7.682829461312293,2.9304981558561325,-3.352337666770816
1733513263196599800,11.915599853515625,-8.362336158072948,2.9350504123330117,-4.519802360258996
1733513263206675700,11.92567578125,-9.02965089725852,3.14205007173717,-5.429944151294231
1733513263216750600,11.93575048828125,-9.462914888507127,3.7269022162914274,-6.254383050602674
1733513263226826800,11.94582666015625,-9.406169503456354,4.7183857812345025,-7.181808861654996
1733513263236902000,11.95590185546875,-8.967728986352682,5.683845262604952,-7.949847828349471
1733513263246977500,11.9659775390625,-8.262143260961771,6.0537336370080705,-8.222509169709681
1733513263257052700,11.976052734375,-7.550444605648517,5.766965444362163,-7.751836362043023
1733513263267128800,11.98612890625,-7.0244006238937375,5.368522006604075,-6.372813030672073
1733513263277203500,11.996203369140625,-6.493539012724161,5.1468105157583945,-4.670765075142682
1733513263287279600,12.006279541015624,-5.522131436604261,5.086067585504055,-3.056812459434569
1733513263297354800,12.016354736328125,-4.419144475984573,5.008329681307077,-1.9460545725524425
1733513263307430700,12.0264306640625,-3.0299791053056717,4.837195116010308,-0.9427352430608122
1733513263317505500,12.036505615234375,-1.7833949901342392,4.396954856008291,-0.12633308134414256
1733513263327581700,12.046581787109375,-0.7581821740686893,4.170139904543757,0.17294274722989647
1733513263337656800,12.05665673828125,0.04422023173226043,4.115297138243913,0.03237562629012391
1733513263347732500,12.066732421875,1.0490163009792566,4.414277746731043,-0.42760965528134254
1733513263357807600,12.0768076171875,2.3882003739148376,5.179383582583069,-0.872750948665291
1733513263367883800,12.0868837890625,3.9001626877009867,6.35942923296392,-0.6674887805782258
1733513263377958700,12.096958740234374,6.3325985091835255,7.686979566729068,-0.22097323969900606
1733513263388034600,12.10703466796875,9.180397923564911,8.657052679374814,0.18520239974632857
1733513263398109700,12.117109619140624,11.133884107422828,9.27329774105847,0.2726455958018079
1733513263408185600,12.127185546875,11.648624604874849,9.02815861287415,0.862005828897655
1733513263418260500,12.137260498046874,10.731313360601662,7.741943329060077,1.7351232727877794
1733513263428336600,12.147336669921875,9.161847536873816,5.627224965238571,2.0623234290651977
1733513263438412500,12.15741259765625,7.6271344620972865,3.2667133932381867,2.336560203048587
1733513263448487700,12.16748779296875,6.479240438258648,1.3868231914669273,2.5803745123699304
1733513263458563600,12.1775634765625,5.75680762296319,-0.09729133045077323,2.5568966061487792
1733513263468638700,12.187638671875,5.371064092302322,-1.2511644286990165,2.360195784049481
1733513263478714600,12.197714599609375,5.270501777356863,-1.8836662131786346,2.0927906096518036
1733513263488789500,12.20778955078125,5.292781413704157,-2.2723954816520213,1.9438035787552594
1733513263498865700,12.21786572265625,5.307582676994801,-2.5418793620198965,1.778182516182959
1733513263508940800,12.22794091796875,5.296159950226545,-2.726912688809633,1.63466836373955
1733513263519016700,12.2380166015625,5.016185655504465,-2.754910118281841,1.5456094395831226
1733513263529091600,12.248091552734374,4.608706970636546,-2.9104011242449284,1.3313346746094523
1733513263539167700,12.258167724609375,4.293725659941137,-3.222435275572538,1.0760942775189877
1733513263549242600,12.26824267578125,4.1046871891632675,-3.452501337787509,0.6891663593791425
1733513263559318500,12.278318603515626,4.131106409533322,-3.43981662825942,0.2484278675314039
1733513263569393700,12.2883935546875,4.4184342818886035,-3.1871108642131087,-0.15502090423330664
1733513263579469600,12.298469482421876,5.008336695569754,-2.922100329867005,-0.3658050140796229
1733513263589544700,12.308544677734375,5.825205451884865,-2.7363433649778366,-0.3866949131015688
1733513263599620600,12.31862060546875,6.757920601516962,-2.7199714913696047,-0.253816757495515
1733513263609695700,12.32869580078125,7.5762126686334605,-2.8371494255512952,0.04202803718391806
1733513263619771600,12.338771728515624,8.030614140456914,-3.1274761874616144,0.3766332455534488
1733513263629846500,12.348846435546875,8.036316151490807,-3.5421021137356754,0.6885010273382067
1733513263639922700,12.358922607421874,7.85616942769885,-3.9494980887562035,0.9213201876536011
1733513263649997800,12.368997802734375,7.603346174752712,-4.31771180794537,1.1918746198624373
1733513263660073700,12.37907373046875,7.210082185459137,-4.551971814718843,1.550713923115283
1733513263670148600,12.389148681640625,6.6749804525017735,-4.413877349236607,1.8508054154537616
1733513263680224800,12.399224853515625,6.208681037613749,-3.945805663979053,2.114711641819775
1733513263690300700,12.40930078125,5.939813243317603,-3.2677211089760063,2.3912448561772703
1733513263700375600,12.41937548828125,5.30275277262032,-2.076208308163285,2.9596926861584185
1733513263710451700,12.42945166015625,3.670810911235213,-0.24759821177423,3.562467148633301
1733513263720526600,12.439526611328125,-3.285630859676003,3.006212445271015,4.215030893410742
1733513263730602800,12.449602783203124,-22.42221994088888,8.42305687649548,4.0173435444921255
1733513263740677600,12.459677734375,-23.70398759764433,10.820931087684631,1.575602865178138
1733513263750753500,12.46975341796875,-17.395165685367584,9.244860166603326,-0.8758411697655916
1733513263760828700,12.47982861328125,-12.896388285219668,6.520007332932948,-1.6181221564777195
1733513263770904600,12.489904541015624,-8.876754583963752,4.090077356791496,-1.237372488581389
1733513263780979700,12.499979736328125,-4.38504843737632,2.3000398599028586,-0.27956410648599267
1733513263791055600,12.5100556640625,-1.050347257322073,1.1300035623610019,0.5236137224005535
1733513263801130800,12.520130859375,0.8181728246510028,0.2570809103906154,0.8564524325542151
1733513263811206700,12.53020654296875,1.516145444689691,-0.6563689822793006,0.5963959038862958
1733513263821281800,12.54028173828125,1.7832061895638702,-1.884763945287466,0.18760814571380613
1733513263831357700,12.550357666015625,2.1573441842354835,-2.716669527214765,0.16902984810248017
1733513263841432600,12.5604326171875,2.5852707599788904,-2.380933597782254,0.725858040503785
1733513263851508700,12.5705087890625,2.938906503239274,-1.2627338704615831,1.3281478612668811
1733513263861583600,12.58058349609375,3.0790748523861167,0.12210545371174812,1.6748916530564426
1733513263871659800,12.59065966796875,3.11224705414772,1.8049837216079234,1.8515525805592536
1733513263881734700,12.600734619140624,3.133709528893232,3.8685663569539783,1.9643917548842726
1733513263891810600,12.610810546875,3.161566673111915,5.674572407346964,2.165809814763814
1733513263901885700,12.6208857421875,3.2300647475376723,6.9451453008711335,2.2385314982339737
1733513263911961600,12.630961669921875,3.282667918217182,7.512851080313324,2.0849999557755887
1733513263922037500,12.64103759765625,3.144907214733958,6.31957185434997,1.5772420106872915
1733513263932112600,12.651112548828126,2.5338053611576554,2.656699919420481,0.9011492870885879
1733513263942188800,12.661188720703125,1.814272358956933,-0.9338175579160451,0.6389991836749017
1733513263952263700,12.671263671875,1.3576621250428258,-2.9856308450132607,0.847885825869441
1733513263962339600,12.681339599609375,1.4788788132213055,-4.104092438140511,1.4000661193996666
1733513263972414500,12.69141455078125,2.2453964155673978,-4.886004447364807,1.8468984711430967
1733513263982490600,12.70149072265625,3.4651989067971702,-5.487625940412283,1.8697066614091395
1733513263992565500,12.7115654296875,4.216507687965035,-5.4655041249752045,1.6888567577838898
1733513264002641700,12.7216416015625,4.575518110001087,-4.612276938077807,1.3564070104151964
1733513264012716500,12.731716552734374,4.704118770951032,-3.150020612224936,0.8362838700767606
1733513264022792700,12.741792724609375,4.661715214985609,-1.4910440289199351,0.1510228110404685
1733513264032867600,12.75186767578125,4.959948804497719,0.46963352774679656,-1.0046845534302293
1733513264042943500,12.761943603515626,5.504147451624274,2.527217214938998,-2.618604582042992
1733513264053018600,12.7720185546875,5.334730211639404,3.935937765437364,-3.6012148124396797
1733513264063094500,12.782094482421876,4.624093048077821,4.67419125019908,-3.803545310989022
