time,seconds_elapsed,z,y,x
1733513589062811600,0.023811767578125,-0.022480543702840805,0.010411524213850498,-0.001668078824877739
1733513589072887600,0.033887451171875,-0.030624831095337868,-0.012130221351981163,0.007120274007320404
1733513589082963700,0.043963623046875,-0.037893928587436676,-0.01974712871015072,0.008914978243410587
1733513589093038600,0.05403857421875,-0.031663987785577774,-0.013152380473911762,0.012822899967432022
1733513589103114500,0.064114501953125,-0.029687123373150826,-0.009097184985876083,0.017233094200491905
1733513589113189600,0.074189697265625,-0.023004397749900818,-0.015084360726177692,0.018905356526374817
1733513589123265800,0.084265869140625,-0.02036520652472973,-0.02659560739994049,0.018542101606726646
1733513589133341400,0.094341552734375,-0.01370237022638321,-0.03151467815041542,0.01746366173028946
1733513589143416600,0.10441650390625,-0.004475848749279976,-0.042486369609832764,0.021700486540794373
1733513589153492700,0.11449267578125,-0.004037949256598949,-0.05858122929930687,0.020603874698281288
1733513589163568600,0.124568603515625,-0.002501837909221649,-0.0653696283698082,0.020831042900681496
1733513589173643500,0.1346435546875,-0.010998804122209549,-0.07508101314306259,0.02215420827269554
1733513589183719700,0.1447197265625,-0.020905764773488045,-0.09475192427635193,0.02039519138634205
1733513589193795600,0.154795654296875,-0.018701739609241486,-0.11091966927051544,0.022006407380104065
1733513589203870500,0.164870361328125,-0.01824953407049179,-0.10391688346862793,0.015981802716851234
1733513589213946600,0.174946533203125,-0.017627360299229622,-0.08522393554449081,0.002474561333656311
1733513589224022500,0.1850224609375,-0.01430959440767765,-0.07589195668697357,-0.006028379779309034
1733513589234097700,0.19509765625,-0.013337090611457825,-0.06792129576206207,-0.005867602303624153
1733513589244173800,0.205173828125,-0.0177688580006361,-0.06755803525447845,-0.005281973630189896
1733513589254249500,0.21524951171875,-0.026100270450115204,-0.0723567083477974,-0.003898712806403637
1733513589264324600,0.22532470703125,-0.02638416364789009,-0.08488315343856812,-0.0055504050105810165
1733513589274400300,0.235400146484375,-0.027916034683585167,-0.09852980077266693,-0.018535993993282318
1733513589284476200,0.24547607421875,-0.026699502021074295,-0.09980492293834686,-0.03210826218128204
1733513589294551000,0.255551025390625,-0.024592941626906395,-0.09491243213415146,-0.03989854082465172
1733513589304627200,0.265627197265625,-0.016488410532474518,-0.0892241820693016,-0.045709025114774704
1733513589314703000,0.275703125,-0.013621250167489052,-0.08518204092979431,-0.05382154509425163
1733513589324778200,0.2857783203125,-0.013456134125590324,-0.0810442864894867,-0.05079619586467743
1733513589334854100,0.295854248046875,-0.009765565395355225,-0.06165608391165733,-0.04610533267259598
1733513589344930000,0.305929931640625,-0.0006210692226886749,-0.03858032822608948,-0.04402700066566467
1733513589355005200,0.316005126953125,0.0014187367632985115,-0.019850440323352814,-0.04386740177869797
1733513589365081300,0.326081298828125,-0.0001951386220753193,-0.017744412645697594,-0.040660690516233444
1733513589375157000,0.336156982421875,-0.0064199878834187984,-0.021603643894195557,-0.03753357380628586
1733513589385232100,0.346232177734375,-0.011201693676412106,-0.0282391756772995,-0.029210397973656654
1733513589395308300,0.356308349609375,-0.007512833923101425,-0.034892186522483826,-0.022387534379959106
1733513589405384200,0.36638427734375,-0.001985176932066679,-0.028452929109334946,-0.017507560551166534
1733513589415459000,0.376458984375,0.0014057229273021221,-0.017154453322291374,-0.007632916793227196
1733513589425535200,0.38653515625,-0.002786358818411827,-0.006889032665640116,-0.0055069150403141975
1733513589435611100,0.396611083984375,-0.013863557949662209,0.010298028588294983,-0.003008402418345213
1733513589445686300,0.406686279296875,-0.02398889698088169,0.016553793102502823,-0.006234023254364729
1733513589455762200,0.41676220703125,-0.03609396144747734,0.010523053817451,-0.010791677981615067
1733513589465838000,0.426838134765625,-0.042554792016744614,-0.0010577021166682243,-0.012064667418599129
1733513589475913200,0.436913330078125,-0.03808683902025223,-0.009906239807605743,-0.01010141707956791
1733513589485989400,0.4469892578125,-0.03508811816573143,-0.009889994747936726,-0.004703722428530455
1733513589496065000,0.45706494140625,-0.023343663662672043,-0.009309221990406513,-0.004606345202773809
1733513589506140200,0.46714013671875,-0.016783500090241432,0.001922392868436873,-0.003131220582872629
1733513589516216300,0.47721630859375,-0.018627237528562546,0.005538780242204666,0.0033942917361855507
1733513589526292200,0.487292236328125,-0.02304648794233799,0.00521653750911355,0.0033016137313097715
1733513589536367000,0.4973671875,-0.020469462499022484,0.008728083223104477,-0.0008471673354506493
1733513589546443300,0.507443359375,-0.016847830265760422,0.013989424332976341,-0.007255265489220619
1733513589556519200,0.517519287109375,-0.011888331733644009,0.018480708822607994,-0.01107914187014103
1733513589566594000,0.527593994140625,-0.01439383439719677,0.027988992631435394,-0.011398987844586372
1733513589576670200,0.537670166015625,-0.018206236883997917,0.035245511680841446,-0.01300550065934658
1733513589586746000,0.54774609375,-0.01713058538734913,0.03976968675851822,-0.010344205424189568
1733513589596821200,0.5578212890625,-0.021174488589167595,0.034673865884542465,-0.005899811163544655
1733513589606897200,0.567897216796875,-0.023710349574685097,0.025701677426695824,-0.005366380326449871
1733513589616973000,0.57797314453125,-0.021294716745615005,0.01279069110751152,0.0011808760464191437
1733513589627048200,0.588048095703125,-0.01879294216632843,0.004588688258081675,0.006521312519907951
1733513589637124400,0.598124267578125,-0.012462529353797436,0.007181109860539436,0.011195255443453789
1733513589647200300,0.6082001953125,-0.005005944520235062,0.011061334982514381,0.018045704811811447
1733513589657275100,0.618275146484375,-0.0011894952040165663,0.01876724883913994,0.02917652763426304
1733513589667351300,0.628351318359375,-0.0006755052600055933,0.022190209478139877,0.032580580562353134
1733513589677427200,0.63842724609375,-0.0038819636683911085,0.016047514975070953,0.032968588173389435
1733513589687502000,0.648502197265625,-0.009455693885684013,0.006443889811635017,0.038924746215343475
1733513589697578200,0.658578125,-0.01851833611726761,-0.004658004734665155,0.03864547237753868
1733513589707654100,0.668654052734375,-0.02286701090633869,-0.01333591528236866,0.03606247529387474
1733513589717729300,0.678729248046875,-0.022575268521904945,-0.019878558814525604,0.036037832498550415
1733513589727805200,0.68880517578125,-0.021110795438289642,-0.028115449473261833,0.037306029349565506
1733513589737881000,0.698881103515625,-0.024749694392085075,-0.034611668437719345,0.04173944145441055
1733513589747956200,0.708956298828125,-0.021626604720950127,-0.036899324506521225,0.042711496353149414
1733513589758032400,0.719032470703125,-0.015621861442923546,-0.03844066336750984,0.04320908337831497
1733513589768108000,0.72910791015625,-0.008471273817121983,-0.04557846859097481,0.04302718862891197
1733513589778183200,0.73918310546875,-0.004436827264726162,-0.049144212156534195,0.03627770394086838
1733513589788259300,0.74925927734375,0.0003147847019135952,-0.053720854222774506,0.024186421185731888
1733513589798335200,0.759335205078125,-0.00018187472596764565,-0.0505170002579689,0.019569579511880875
1733513589808410000,0.76941015625,0.00014968868345022202,-0.05266297608613968,0.013420075178146362
1733513589818486300,0.779486328125,-0.007736562751233578,-0.05627253279089928,0.015230648219585419
1733513589828562200,0.789562255859375,-0.014087935909628868,-0.05953117832541466,0.01668952777981758
1733513589838637000,0.799636962890625,-0.01895836740732193,-0.06353341042995453,0.01406813133507967
1733513589848713200,0.809713134765625,-0.021102480590343475,-0.0672871321439743,0.008546333760023117
1733513589858789000,0.8197890625,-0.02306986041367054,-0.06641173362731934,0.008159814402461052
1733513589868864300,0.8298642578125,-0.0229452233761549,-0.06256932765245438,0.01371144037693739
1733513589878940400,0.8399404296875,-0.016591986641287804,-0.05361444875597954,0.009146515280008316
1733513589889016000,0.85001611328125,-0.011436640284955502,-0.04784577712416649,0.002847340889275074
1733513589899091200,0.86009130859375,-0.0091515202075243,-0.04447906091809273,-0.006173992063850164
1733513589909167400,0.87016748046875,-0.0037692717742174864,-0.03949202597141266,-0.010062208399176598
1733513589919243300,0.8802431640625,-0.0016739489510655403,-0.032908156514167786,-0.01795346662402153
1733513589929318100,0.890318115234375,-0.0024649077095091343,-0.02835042029619217,-0.022846225649118423
1733513589939394300,0.900394287109375,-0.0005081556737422943,-0.03018672578036785,-0.02665175497531891
1733513589949470200,0.91047021484375,-0.004310350865125656,-0.03662758320569992,-0.028246723115444183
1733513589959545000,0.920545166015625,-0.015161111019551754,-0.053180765360593796,-0.02912233956158161
1733513589969621200,0.930621337890625,-0.018308434635400772,-0.070803701877594,-0.03694484382867813
1733513589979696400,0.9406962890625,-0.02550947293639183,-0.08566252887248993,-0.038490138947963715
1733513589989772300,0.950772216796875,-0.03188295289874077,-0.08877655863761902,-0.03931305557489395
1733513589999848200,0.96084814453125,-0.03892857953906059,-0.08873056620359421,-0.037615787237882614
1733513590009924000,0.970924072265625,-0.04320162162184715,-0.0854831114411354,-0.04155806452035904
1733513590019999200,0.980999267578125,-0.03874848783016205,-0.07658511400222778,-0.05053098872303963
1733513590030075400,0.991075439453125,-0.03790772706270218,-0.06026606634259224,-0.05366313457489014
1733513590040151000,1.001151123046875,-0.04041023552417755,-0.050831712782382965,-0.05455150455236435
1733513590050226200,1.01122607421875,-0.04402681067585945,-0.04705721512436867,-0.05525431036949158
1733513590060302300,1.02130224609375,-0.049602508544921875,-0.049247004091739655,-0.06646286696195602
1733513590070377500,1.03137744140625,-0.05870732292532921,-0.04308311641216278,-0.06694675981998444
1733513590080453000,1.041453125,-0.060837313532829285,-0.030016165226697922,-0.06135410815477371
1733513590090529300,1.051529296875,-0.06178753077983856,-0.020454350858926773,-0.06057939678430557
1733513590100604400,1.0616044921875,-0.06110735237598419,-0.02101605013012886,-0.07036039233207703
1733513590110680300,1.071680419921875,-0.05415996164083481,-0.007529271300882101,-0.08292544633150101
1733513590120756200,1.081756103515625,-0.0500299446284771,0.00836942344903946,-0.09564179182052612
1733513590130831400,1.091831298828125,-0.048576660454273224,0.020240196958184242,-0.099143847823143
1733513590140907300,1.1019072265625,-0.04683738946914673,0.02491096779704094,-0.1036805734038353
1733513590150983400,1.1119833984375,-0.043449051678180695,0.02642710506916046,-0.10865722596645355
1733513590161058300,1.122058349609375,-0.0389179065823555,0.02876231260597706,-0.11007079482078552
1733513590171134200,1.13213427734375,-0.0313289612531662,0.032584745436906815,-0.10544302314519882
1733513590181210400,1.14221044921875,-0.03549421951174736,0.0382942296564579,-0.09408177435398102
1733513590191285200,1.15228515625,-0.04441447556018829,0.05057433247566223,-0.08017367869615555
1733513590201361200,1.162361083984375,-0.061748821288347244,0.06486083567142487,-0.06918051838874817
1733513590211437300,1.172437255859375,-0.0802772268652916,0.06435403972864151,-0.05839897319674492
1733513590221512200,1.18251220703125,-0.08903887122869492,0.058315716683864594,-0.04821674898266792
1733513590231588000,1.192588134765625,-0.09736018627882004,0.04909957945346832,-0.04248562827706337
1733513590241664300,1.202664306640625,-0.10252547264099121,0.038898810744285583,-0.035056035965681076
1733513590251739100,1.2127392578125,-0.1079399436712265,0.025300445035099983,-0.03133853152394295
1733513590261815300,1.222815185546875,-0.11654552817344666,-0.0005164913600310683,-0.034688614308834076
1733513590271891700,1.2328916015625,-0.12832708656787872,-0.017378296703100204,-0.029081059619784355
1733513590281966600,1.242966552734375,-0.13733825087547302,-0.017007719725370407,-0.02523849532008171
1733513590292042800,1.253042724609375,-0.1396043449640274,-0.01491767168045044,-0.029645495116710663
1733513590302118700,1.26311865234375,-0.13489370048046112,-0.022316433489322662,-0.04899251088500023
1733513590312193800,1.27319384765625,-0.12958042323589325,-0.043458204716444016,-0.07811231166124344
1733513590322269700,1.283269775390625,-0.12727005779743195,-0.06826484203338623,-0.12242110818624496
1733513590332345600,1.293345703125,-0.12032292783260345,-0.08335670828819275,-0.16556060314178467
1733513590342420700,1.303420654296875,-0.10871300101280212,-0.07042274624109268,-0.1973080039024353
1733513590352497000,1.313496826171875,-0.09805050492286682,-0.04435918480157852,-0.22045859694480896
1733513590362572500,1.323572509765625,-0.08802584558725357,-0.017885079607367516,-0.2339123636484146
1733513590372647700,1.333647705078125,-0.07200906425714493,0.00769405160099268,-0.25039148330688477
1733513590382723800,1.343723876953125,-0.05583027005195618,0.011449665762484074,-0.2817807197570801
1733513590392799700,1.3537998046875,-0.03833303228020668,-0.0025263370480388403,-0.3301921784877777
1733513590402874600,1.36387451171875,-0.03215469419956207,-0.02537885308265686,-0.37844380736351013
1733513590412950800,1.37395068359375,-0.021649587899446487,-0.04464229568839073,-0.4230738580226898
1733513590423026700,1.384026611328125,-0.015741202980279922,-0.05523847043514252,-0.4462517201900482
1733513590433101600,1.3941015625,-0.0058915019035339355,-0.09899713099002838,-0.46859481930732727
1733513590443177700,1.404177734375,0.00303843105211854,-0.17421698570251465,-0.5133302807807922
1733513590453253600,1.414253662109375,0.019919410347938538,-0.24128630757331848,-0.5866166949272156
1733513590463328800,1.424328857421875,0.04085952416062355,-0.3086066246032715,-0.657090961933136
1733513590473405000,1.434405029296875,0.06059088185429573,-0.35400739312171936,-0.7136202454566956
1733513590483480600,1.44448046875,0.07920962572097778,-0.3740977644920349,-0.7569347023963928
1733513590493555700,1.4545556640625,0.10542312264442444,-0.38526707887649536,-0.8025786280632019
1733513590503632000,1.4646318359375,0.1511927992105484,-0.3944261074066162,-0.8447619676589966
1733513590513707800,1.474707763671875,0.2087719440460205,-0.4182869493961334,-0.8842712640762329
1733513590523782700,1.48478271484375,0.2799151837825775,-0.4478954076766968,-0.9200035929679871
1733513590533858800,1.49485888671875,0.3508074879646301,-0.47560107707977295,-0.957285463809967
1733513590543934700,1.504934814453125,0.41190096735954285,-0.4802085757255554,-0.9892683625221252
1733513590554009600,1.515009521484375,0.4736545979976654,-0.5040910243988037,-0.998923122882843
1733513590564085800,1.525085693359375,0.5153865814208984,-0.4946933388710022,-1.0124645233154297
1733513590574161700,1.53516162109375,0.5466102957725525,-0.45917901396751404,-1.0206260681152344
1733513590584236800,1.54523681640625,0.5757356882095337,-0.42673033475875854,-1.0058079957962036
1733513590594312700,1.555312744140625,0.6058688163757324,-0.3949068784713745,-0.9959262609481812
1733513590604387800,1.565387939453125,0.6105669140815735,-0.35765621066093445,-0.981674075126648
1733513590614463700,1.575463623046875,0.588331937789917,-0.309574693441391,-0.9420201778411865
1733513590624540000,1.585539794921875,0.5524230599403381,-0.2603686451911926,-0.8733786940574646
1733513590634614800,1.59561474609375,0.5270394086837769,-0.2086615115404129,-0.7763951420783997
1733513590644690700,1.605690673828125,0.5162936449050903,-0.12450360506772995,-0.6919445395469666
1733513590654766800,1.615766845703125,0.5104424357414246,0.024539407342672348,-0.645741879940033
1733513590664842000,1.625842041015625,0.4958368241786957,0.22279955446720123,-0.6341609358787537
1733513590674917600,1.635917724609375,0.4913898706436157,0.4588932991027832,-0.6272918581962585
1733513590684993800,1.645993896484375,0.49515336751937866,0.6885767579078674,-0.6147823333740234
1733513590695069000,1.65606884765625,0.47375085949897766,0.9176600575447083,-0.5924330353736877
1733513590705144800,1.666144775390625,0.4273814260959625,1.140695571899414,-0.5601572394371033
1733513590715220700,1.676220703125,0.3676864206790924,1.3322455883026123,-0.5297460556030273
1733513590725295900,1.6862958984375,0.30954959988594055,1.4793603420257568,-0.508865475654602
1733513590735371800,1.696371826171875,0.26502689719200134,1.579190731048584,-0.48691651225090027
1733513590745448000,1.706447998046875,0.21117223799228668,1.6366450786590576,-0.45007508993148804
1733513590755522800,1.716522705078125,0.1386628895998001,1.6560866832733154,-0.3869730830192566
1733513590765598700,1.7265986328125,0.0742260068655014,1.6495827436447144,-0.3034375309944153
1733513590775675000,1.7366748046875,0.022714076563715935,1.6220238208770752,-0.22364525496959686
1733513590785749800,1.746749755859375,0.0034469598904252052,1.5867679119110107,-0.14901648461818695
1733513590795825700,1.75682568359375,0.019587580114603043,1.5683728456497192,-0.0880679190158844
1733513590805901800,1.76690185546875,0.049229975789785385,1.5202547311782837,-0.04063081741333008
1733513590815977000,1.77697705078125,0.07802887260913849,1.4583210945129395,-0.0017715669237077236
1733513590826052600,1.787052490234375,0.08080548793077469,1.3705917596817017,0.006495683453977108
1733513590836128800,1.797128662109375,0.06144377589225769,1.1398004293441772,-0.008572747930884361
1733513590846204000,1.807203857421875,0.011328433640301228,0.7765723466873169,-0.056528255343437195
1733513590856279800,1.81727978515625,-0.08558319509029388,0.39253759384155273,-0.12365269660949707
1733513590866355700,1.827355712890625,-0.14811134338378906,0.032771870493888855,-0.2099519670009613
1733513590876430800,1.837430908203125,-0.15625903010368347,-0.2727142572402954,-0.3646560609340668
1733513590886506800,1.8475068359375,-0.1433628797531128,-0.5554553270339966,-0.6296058893203735
1733513590896583000,1.8575830078125,-0.15921054780483246,-0.8237088918685913,-0.9887840747833252
1733513590906657800,1.86765771484375,-0.19559305906295776,-1.0601052045822144,-1.3459224700927734
1733513590916733700,1.877733642578125,-0.1865076869726181,-1.258359670639038,-1.565714955329895
1733513590926809900,1.887809814453125,-0.1433330923318863,-1.3626139163970947,-1.5735437870025635
1733513590936885000,1.897885009765625,-0.12347975373268127,-1.3114069700241089,-1.3574655055999756
1733513590946960600,1.907960693359375,-0.10947450250387192,-1.0819004774093628,-0.9913543462753296
1733513590957036800,1.918036865234375,-0.06040576100349426,-0.708658754825592,-0.557738721370697
1733513590967112000,1.92811181640625,0.012818727642297745,-0.2487863153219223,-0.1373099386692047
1733513590977187800,1.938187744140625,0.07548210769891739,0.24093997478485107,0.2311658263206482
1733513590987263700,1.948263671875,0.10279052704572678,0.705909252166748,0.5260646939277649
1733513590997339000,1.9583388671875,0.09243801981210709,1.084133267402649,0.7350471615791321
1733513591007414800,1.968414794921875,0.07062629610300064,1.3283603191375732,0.8588917255401611
1733513591017491000,1.978490966796875,0.06498678773641586,1.4037028551101685,0.9148429036140442
1733513591027565800,1.98856591796875,0.087928906083107,1.3297687768936157,0.9018488526344299
1733513591037641700,1.998641845703125,0.12326052784919739,1.1455868482589722,0.8252382278442383
1733513591047716900,2.008716796875,0.15013225376605988,0.9305260181427002,0.6970516443252563
1733513591057792800,2.018792724609375,0.15121616423130035,0.7324286699295044,0.5433797836303711
1733513591067868700,2.02886865234375,0.14765791594982147,0.559105634689331,0.37397560477256775
1733513591077943800,2.03894384765625,0.14952851831912994,0.370942622423172,0.19256213307380676
1733513591088020000,2.04902001953125,0.16310346126556396,0.17361566424369812,-0.007571226451545954
1733513591098095600,2.059095703125,0.17998258769512177,-0.008856144733726978,-0.21820570528507233
1733513591108170800,2.069170654296875,0.19866518676280975,-0.1487642377614975,-0.4251303970813751
1733513591118247000,2.079246826171875,0.2063288539648056,-0.25036531686782837,-0.6017707586288452
1733513591128322800,2.08932275390625,0.20689405500888824,-0.3015093505382538,-0.7202129364013672
1733513591138397700,2.099397705078125,0.20474062860012054,-0.3135468363761902,-0.7745539546012878
1733513591148473900,2.109473876953125,0.19264207780361176,-0.29952794313430786,-0.7815639972686768
1733513591158549800,2.1195498046875,0.1748492419719696,-0.25810539722442627,-0.7832923531532288
1733513591168625000,2.129625,0.1568393111228943,-0.20432332158088684,-0.8341715335845947
1733513591178700800,2.13970068359375,0.15360356867313385,-0.13177108764648438,-0.9652805328369141
1733513591188776700,2.149776611328125,0.16958416998386383,-0.06435751169919968,-1.1415083408355713
1733513591198851800,2.159851806640625,0.21263442933559418,-0.029520967975258827,-1.2828409671783447
1733513591208927700,2.169927734375,0.28343573212623596,-0.044788844883441925,-1.3096446990966797
1733513591219003600,2.180003662109375,0.35072794556617737,-0.08020222932100296,-1.2278335094451904
1733513591229078800,2.190078857421875,0.40899306535720825,-0.11041037738323212,-1.0880764722824097
1733513591239154700,2.20015478515625,0.47395792603492737,-0.132217675447464,-0.9402593374252319
1733513591249230800,2.21023095703125,0.5376856923103333,-0.14716939628124237,-0.8255208730697632
1733513591259305700,2.2203056640625,0.6080223917961121,-0.16839292645454407,-0.7520490884780884
1733513591269380900,2.230380859375,0.6806330680847168,-0.1842295080423355,-0.6927995085716248
1733513591279456800,2.240456787109375,0.7444594502449036,-0.14551006257534027,-0.6489159464836121
1733513591289532000,2.250531982421875,0.8043477535247803,-0.05892278999090195,-0.6053985953330994
1733513591299608000,2.260608154296875,0.8431209921836853,0.05852926895022392,-0.556856632232666
1733513591309683700,2.27068359375,0.8428488373756409,0.21479396522045135,-0.4879113733768463
1733513591319758800,2.2807587890625,0.7797982096672058,0.42057350277900696,-0.3924817740917206
1733513591329835000,2.2908349609375,0.6452655792236328,0.6677917838096619,-0.27679842710494995
1733513591339911000,2.300910888671875,0.4550141394138336,0.9196586608886719,-0.17256899178028107
1733513591349985800,2.31098583984375,0.2697983980178833,1.0974907875061035,-0.09175597131252289
1733513591360062000,2.32106201171875,0.12568941712379456,1.2016187906265259,-0.022474903613328934
1733513591370137900,2.331137939453125,0.039596449583768845,1.2621285915374756,0.04864039272069931
1733513591380212700,2.341212646484375,-0.026304269209504128,1.3408199548721313,0.14091332256793976
1733513591390289000,2.351288818359375,-0.0815076231956482,1.4919049739837646,0.2571251392364502
1733513591400364800,2.36136474609375,-0.17986615002155304,1.6877915859222412,0.36577996611595154
1733513591410440000,2.37143994140625,-0.3065372407436371,1.869933009147644,0.44520801305770874
1733513591420516000,2.38151611328125,-0.40628618001937866,1.9850987195968628,0.4697040319442749
1733513591430591700,2.391591796875,-0.4581729471683502,2.037083387374878,0.4426363408565521
1733513591440667000,2.4016669921875,-0.4128456711769104,2.037172317504883,0.3683975338935852
1733513591450743000,2.411742919921875,-0.27978628873825073,2.073380947113037,0.2634984254837036
1733513591460818000,2.42181787109375,-0.14958833158016205,2.1958847045898438,0.16021490097045898
1733513591470893800,2.431893798828125,-0.08142228424549103,2.393212080001831,0.07393572479486465
1733513591480970000,2.441969970703125,-0.027192071080207825,2.704237461090088,0.043365299701690674
1733513591491045000,2.452045166015625,0.06983477622270584,3.0564534664154053,0.11099032312631607
1733513591501120800,2.462120849609375,0.22333858907222748,3.4400441646575928,0.2937212586402893
1733513591511197000,2.472197021484375,0.44889503717422485,3.731544017791748,0.6206150054931641
1733513591521272000,2.48227197265625,0.6817285418510437,3.8102405071258545,1.0896484851837158
1733513591531348000,2.492347900390625,0.813729465007782,3.5885584354400635,1.5773062705993652
1733513591541423900,2.502423828125,0.8469782471656799,3.104182243347168,2.0154268741607666
1733513591551499000,2.5124990234375,0.8222892880439758,2.5155999660491943,2.3550055027008057
1733513591561575000,2.522574951171875,0.7568879127502441,1.950790524482727,2.582414150238037
1733513591571651000,2.532651123046875,0.6658596992492676,1.5463111400604248,2.7664620876312256
1733513591581726000,2.542725830078125,0.5605828166007996,1.3280256986618042,2.931398868560791
1733513591591801900,2.5528017578125,0.44330912828445435,1.2660491466522217,3.073481321334839
1733513591601878000,2.5628779296875,0.2861543893814087,1.3071906566619873,3.1660304069519043
1733513591611953000,2.572952880859375,0.09298287332057953,1.4767563343048096,3.1665046215057373
1733513591622028800,2.58302880859375,-0.13208992779254913,1.7636620998382568,3.042573928833008
1733513591632105000,2.59310498046875,-0.3360590934753418,2.033583879470825,2.792487382888794
1733513591642179800,2.603179931640625,-0.44786766171455383,2.113550901412964,2.452803611755371
1733513591652256000,2.613256103515625,-0.48459258675575256,1.9929029941558838,2.047523021697998
1733513591662332000,2.623331787109375,-0.5115946531295776,1.7473766803741455,1.6146730184555054
1733513591672406800,2.63340673828125,-0.5589885711669922,1.4679107666015625,1.2303407192230225
1733513591682483000,2.64348291015625,-0.641553521156311,1.1706279516220093,0.9371069669723511
1733513591692559000,2.65355908203125,-0.7045577764511108,0.873955249786377,0.7230744957923889
1733513591702634000,2.663634033203125,-0.7530310750007629,0.6274858117103577,0.538283109664917
1733513591712710000,2.6737099609375,-0.7937232851982117,0.4169192314147949,0.3930032253265381
1733513591722786000,2.6837861328125,-0.8494480848312378,0.21832521259784698,0.29798030853271484
1733513591732861000,2.69386083984375,-0.9267492294311523,0.12323806434869766,0.2908566892147064
1733513591742936800,2.703936767578125,-1.0186282396316528,0.22396813333034515,0.40522000193595886
1733513591753013000,2.714012939453125,-1.1003326177597046,0.5349413752555847,0.6625100374221802
1733513591763088000,2.724087890625,-1.1756470203399658,1.080427885055542,0.9796453714370728
1733513591773163800,2.734163818359375,-1.2082186937332153,1.7415167093276978,1.2444467544555664
1733513591783240000,2.744239990234375,-1.1777713298797607,2.3060238361358643,1.400268316268921
1733513591793314800,2.754314697265625,-1.1215541362762451,2.692551851272583,1.4632624387741089
1733513591803391000,2.764390869140625,-1.076067328453064,2.896975040435791,1.4416834115982056
1733513591813467000,2.774466796875,-1.0338975191116333,2.9355971813201904,1.3336026668548584
1733513591823541800,2.784541748046875,-1.0068923234939575,2.85147762298584,1.1770758628845215
1733513591833618000,2.794617919921875,-0.9854614734649658,2.6618614196777344,0.9825294613838196
1733513591843694000,2.804694091796875,-0.951148509979248,2.3537302017211914,0.7740675806999207
1733513591853768700,2.814768798828125,-0.9145816564559937,1.9580198526382446,0.5581324696540833
1733513591863844900,2.824844970703125,-0.8923879265785217,1.5136871337890625,0.3535324037075043
1733513591873921000,2.834921142578125,-0.8811580538749695,1.0326893329620361,0.15836754441261292
1733513591883996000,2.844995849609375,-0.8756765127182007,0.5605223178863525,-0.016776850447058678
1733513591894071800,2.85507177734375,-0.8709326386451721,0.14461976289749146,-0.1893790066242218
1733513591904147000,2.86514697265625,-0.841048002243042,-0.18677441775798798,-0.3276689946651459
1733513591914222800,2.875222900390625,-0.7820403575897217,-0.3909777104854584,-0.39485546946525574
1733513591924299000,2.885299072265625,-0.6787874698638916,-0.4227769374847412,-0.3881339430809021
1733513591934374000,2.895373779296875,-0.5467188358306885,-0.2557579278945923,-0.30779242515563965
1733513591944449800,2.90544970703125,-0.4133746027946472,0.02846929058432579,-0.2322598397731781
1733513591954526000,2.91552587890625,-0.2615775167942047,0.3542746901512146,-0.18616333603858948
1733513591964600800,2.925600830078125,-0.11162024736404419,0.6349993348121643,-0.1363917887210846
1733513591974676700,2.9356767578125,0.015596330165863037,0.8511605262756348,-0.05017511546611786
1733513591984753000,2.9457529296875,0.12695960700511932,1.015817403793335,0.012983080931007862
1733513591994828000,2.955828125,0.21720844507217407,1.0951224565505981,0.051892854273319244
1733513592004903700,2.965903564453125,0.278584748506546,1.1300692558288574,0.035461414605379105
1733513592014979800,2.975979736328125,0.2627622187137604,1.211496114730835,-0.036499738693237305
1733513592025055000,2.986054931640625,0.14432212710380554,1.339881181716919,-0.12768210470676422
1733513592035131000,2.996130859375,-0.03219706937670708,1.4132957458496094,-0.26112601161003113
1733513592045206800,3.006206787109375,-0.2148350477218628,1.2810884714126587,-0.45477962493896484
1733513592055282000,3.016281982421875,-0.38600870966911316,0.8595755100250244,-0.6587705612182617
1733513592065357800,3.02635791015625,-0.5169004201889038,0.14805129170417786,-0.769841730594635
1733513592075434000,3.03643408203125,-0.5680118799209595,-0.6565913558006287,-0.8257271647453308
1733513592085508900,3.0465087890625,-0.5234721302986145,-1.2144449949264526,-0.9491614699363708
1733513592095584800,3.056584716796875,-0.3974931836128235,-1.5192846059799194,-1.1622040271759033
1733513592105661000,3.066660888671875,-0.2922873795032501,-1.6010185480117798,-1.433156967163086
1733513592115736000,3.076736083984375,-0.2777450382709503,-1.3866066932678223,-1.662962794303894
1733513592125811700,3.086811767578125,-0.29461511969566345,-0.9458422660827637,-1.7959579229354858
1733513592135888000,3.096887939453125,-0.2734832465648651,-0.49954500794410706,-1.7872660160064697
1733513592145963000,3.106962890625,-0.19221848249435425,-0.15511545538902283,-1.6230219602584839
1733513592156039000,3.117038818359375,-0.08432610332965851,0.07104869931936264,-1.340894341468811
1733513592166114800,3.12711474609375,0.021861322224140167,0.07228068262338638,-0.972848117351532
1733513592176190000,3.13718994140625,0.08232584595680237,-0.18896877765655518,-0.6134709715843201
1733513592186265900,3.147265869140625,0.0575009286403656,-0.3821374475955963,-0.5165598392486572
1733513592196342000,3.157342041015625,-0.024310797452926636,-0.007993943057954311,-0.8984488248825073
1733513592206417000,3.1674169921875,-0.028474915772676468,0.6744006276130676,-1.478074312210083
1733513592216492800,3.177492919921875,-0.04274942725896835,1.1166743040084839,-1.902001976966858
1733513592226569000,3.18756884765625,-0.1349603235721588,1.1766172647476196,-2.0345473289489746
1733513592236643800,3.197643798828125,-0.270079106092453,0.9547388553619385,-1.8859533071517944
1733513592246719700,3.2077197265625,-0.38896316289901733,0.4742308557033539,-1.5197840929031372
1733513592256796000,3.2177958984375,-0.448638916015625,-0.3045504689216614,-0.9342118501663208
1733513592266871000,3.22787109375,-0.44319620728492737,-1.3053014278411865,-0.16712535917758942
1733513592276947500,3.237947509765625,-0.3388741612434387,-2.2821123600006104,0.6022812128067017
1733513592287022600,3.248022705078125,-0.18114498257637024,-2.9572243690490723,1.183118224143982
1733513592297098500,3.258098388671875,0.015307780355215073,-3.2851016521453857,1.5034716129302979
1733513592307174400,3.26817431640625,0.31719279289245605,-3.0481619834899902,1.5511951446533203
1733513592317249500,3.27824951171875,0.7357456684112549,-2.585887908935547,1.414681077003479
1733513592327325700,3.28832568359375,1.2083659172058105,-1.9158761501312256,1.0917350053787231
1733513592337401300,3.2984013671875,1.6508368253707886,-1.0670491456985474,0.5990656614303589
1733513592347476500,3.3084765625,1.959895133972168,-0.0067581371404230595,0.016732733696699142
1733513592357552600,3.318552734375,2.015918254852295,1.1142457723617554,-0.5276630520820618
1733513592367628500,3.328628662109375,1.7452504634857178,2.1835269927978516,-0.9460080862045288
1733513592377703400,3.338703369140625,1.2346049547195435,3.1633636951446533,-1.2281579971313477
1733513592387779600,3.348779541015625,0.6938068866729736,3.999988317489624,-1.350745439529419
1733513592397855500,3.35885546875,0.3251529335975647,4.316457748413086,-1.3185347318649292
1733513592407930400,3.368930419921875,0.15018591284751892,4.124666690826416,-1.2066383361816406
1733513592418006500,3.379006591796875,0.13461561501026154,3.628967046737671,-1.0609523057937622
1733513592428082400,3.38908251953125,0.2622566521167755,2.778911828994751,-1.0014066696166992
1733513592438157600,3.399157470703125,0.6159231066703796,1.0236879587173462,-1.4693673849105835
1733513592448233500,3.4092333984375,0.8520382046699524,-1.1269724369049072,-2.238481044769287
1733513592458309400,3.419309326171875,0.7355285286903381,-2.6484451293945312,-2.6848361492156982
1733513592468384500,3.429384521484375,0.33772554993629456,-3.3525826930999756,-2.668531656265259
1733513592478460700,3.439460693359375,-0.11682944744825363,-3.4580583572387695,-2.3097498416900635
1733513592488536600,3.44953662109375,-0.40607750415802,-3.2482593059539795,-1.782653570175171
1733513592498611500,3.459611572265625,-0.4661010205745697,-2.9755680561065674,-1.2781096696853638
1733513592508687600,3.4696875,-0.3834090828895569,-2.75419545173645,-0.9369629621505737
1733513592518763500,3.479763427734375,-0.28477394580841064,-2.592604875564575,-0.7613834738731384
1733513592528838400,3.48983837890625,-0.23864959180355072,-2.414855480194092,-0.6844735145568848
1733513592538914600,3.49991455078125,-0.23434048891067505,-2.1592442989349365,-0.6255019903182983
1733513592548990500,3.509990478515625,-0.21565203368663788,-1.8031601905822754,-0.5554496645927429
1733513592559065600,3.520065673828125,-0.16628721356391907,-1.3249191045761108,-0.4936324656009674
1733513592569141500,3.5301416015625,-0.11108094453811646,-0.7579014301300049,-0.4517236351966858
1733513592579217400,3.540217529296875,-0.11386341601610184,-0.23385852575302124,-0.3884405195713043
1733513592589292500,3.55029248046875,-0.1312815397977829,0.17559370398521423,-0.33186405897140503
1733513592599368400,3.560368408203125,-0.15554071962833405,0.5116474032402039,-0.3069133460521698
1733513592609444400,3.5704443359375,-0.17129331827163696,0.720698893070221,-0.292778342962265
1733513592619519500,3.58051953125,-0.193133145570755,0.7616236805915833,-0.2839455008506775
1733513592629595400,3.590595458984375,-0.2052025943994522,0.6578530669212341,-0.302546888589859
1733513592639670300,3.600670166015625,-0.2055862993001938,0.44887757301330566,-0.34071579575538635
1733513592649746400,3.610746337890625,-0.1960146278142929,0.1795441061258316,-0.39366447925567627
1733513592659822300,3.620822265625,-0.1812383085489273,-0.13896383345127106,-0.4459867477416992
1733513592669897500,3.6308974609375,-0.15842166543006897,-0.477909654378891,-0.5064845085144043
1733513592679973400,3.640973388671875,-0.14099161326885223,-0.8352289795875549,-0.5833134651184082
1733513592690049500,3.651049560546875,-0.12819220125675201,-1.219919204711914,-0.6865400075912476
1733513592700124400,3.66112451171875,-0.11650870740413666,-1.5942684412002563,-0.8321571946144104
1733513592710200600,3.67120068359375,-0.08619341254234314,-1.9384589195251465,-1.0203857421875
1733513592720276500,3.6812763671875,-0.045291244983673096,-2.2249696254730225,-1.22810959815979
1733513592730351400,3.691351318359375,0.027113981544971466,-2.3972179889678955,-1.3881642818450928
1733513592740427500,3.701427490234375,0.1276015341281891,-2.3761074542999268,-1.4395290613174438
1733513592750503400,3.71150341796875,0.23799248039722443,-2.170901298522949,-1.3721675872802734
1733513592760578300,3.721578369140625,0.36257901787757874,-1.8305997848510742,-1.1988612413406372
1733513592770654500,3.731654541015625,0.5094989538192749,-1.4218852519989014,-0.9610596299171448
1733513592780730400,3.74173046875,0.6389275193214417,-0.9758046269416809,-0.699027955532074
1733513592790805500,3.751805419921875,0.6573560833930969,-0.504776656627655,-0.47582125663757324
1733513592800881400,3.76188134765625,0.5234729647636414,-0.08024169504642487,-0.35575437545776367
1733513592810957300,3.771957275390625,0.2650368809700012,0.21906137466430664,-0.37602052092552185
1733513592821032400,3.782032470703125,-0.0176946222782135,0.35318467020988464,-0.5164209604263306
1733513592831108600,3.792108642578125,-0.21410833299160004,0.3140372931957245,-0.7132970094680786
1733513592841184300,3.802184326171875,-0.3113132119178772,0.11807381361722946,-0.9055107235908508
1733513592851259400,3.81225927734375,-0.38436320424079895,-0.17789579927921295,-1.0039451122283936
1733513592861335600,3.82233544921875,-0.5132502317428589,-0.42633578181266785,-0.8233352899551392
1733513592871411500,3.832411376953125,-0.724018931388855,-1.3581292629241943,-0.16503757238388062
1733513592881486300,3.842486328125,-1.0324726104736328,-1.7579898834228516,1.1908999681472778
1733513592891562500,3.8525625,-1.354641079902649,-0.798516571521759,2.7772886753082275
1733513592901638400,3.862638427734375,-1.5515607595443726,0.8645706176757812,4.061053276062012
1733513592911713300,3.87271337890625,-1.5806142091751099,2.4760208129882812,4.723802089691162
1733513592921789400,3.88278955078125,-1.4762730598449707,3.648975372314453,4.924620628356934
1733513592931865300,3.892865234375,-1.216079831123352,4.552699565887451,4.9559454917907715
1733513592941940500,3.9029404296875,-0.7510260939598083,5.186499118804932,5.037704944610596
1733513592952016600,3.9130166015625,-0.3274836242198944,5.500851154327393,5.238748550415039
1733513592962092300,3.92309228515625,-0.054867446422576904,5.275712966918945,5.454692840576172
1733513592972167400,3.93316748046875,-0.008656809106469154,4.7570271492004395,5.48192024230957
1733513592982243600,3.94324365234375,-0.1509454995393753,3.7288689613342285,5.151084899902344
1733513592992319500,3.953319580078125,-0.27222371101379395,1.7816901206970215,4.380763530731201
1733513593002394400,3.963394287109375,-0.24833905696868896,-0.42953693866729736,3.3532373905181885
1733513593012470500,3.973470458984375,-0.1812223345041275,-1.8242613077163696,2.361304998397827
1733513593022545700,3.983545654296875,-0.1984991580247879,-1.8244504928588867,1.5750504732131958
1733513593032621300,3.993621337890625,-0.35043781995773315,-1.1057463884353638,1.0708067417144775
1733513593042697500,4.003697509765625,-0.4959041476249695,-0.3586999177932739,0.8556534051895142
1733513593052772600,4.013772705078125,-0.5554755926132202,0.09914647042751312,0.8682152628898621
1733513593062848500,4.0238486328125,-0.5358442664146423,0.38279053568840027,0.8777950406074524
1733513593072924400,4.03392431640625,-0.4279654622077942,0.5136321783065796,0.7050781846046448
1733513593082999600,4.04399951171875,-0.2764233946800232,0.4627164304256439,0.35909029841423035
1733513593093075500,4.054075439453125,-0.132788747549057,0.19460001587867737,-0.012608157470822334
1733513593103151600,4.064151611328125,-0.029915539547801018,-0.1532437950372696,-0.27100419998168945
1733513593113226500,4.0742265625,0.021915700286626816,-0.5331130623817444,-0.346577525138855
1733513593123302400,4.084302490234375,0.03635844960808754,-0.7416908144950867,-0.2634872794151306
1733513593133378600,4.094378662109375,0.02661048248410225,-0.6072456240653992,-0.05768270790576935
1733513593143453700,4.10445361328125,-0.016209779307246208,-0.19477686285972595,0.20587055385112762
1733513593153529300,4.114529296875,-0.059701595455408096,0.42895305156707764,0.5097761154174805
1733513593163605500,4.12460546875,-0.11661595851182938,1.0661537647247314,0.8466175198554993
1733513593173680600,4.1346806640625,-0.18203331530094147,1.5588146448135376,1.1531140804290771
1733513593183756500,4.144756591796875,-0.27394047379493713,1.8232407569885254,1.3370651006698608
1733513593193832400,4.15483251953125,-0.3827841281890869,1.7926404476165771,1.3955633640289307
1733513593203907600,4.164907470703125,-0.4828817844390869,1.4914549589157104,1.3344495296478271
1733513593213983500,4.1749833984375,-0.561317503452301,1.0533812046051025,1.1579983234405518
1733513593224059600,4.1850595703125,-0.6475517749786377,0.6127901077270508,0.876396119594574
1733513593234134500,4.195134521484375,-0.7133534550666809,0.2415374517440796,0.5357099175453186
1733513593244210400,4.20521044921875,-0.7387430667877197,-0.0688425824046135,0.16726575791835785
1733513593254286600,4.21528662109375,-0.7260163426399231,-0.31537458300590515,-0.17809030413627625
1733513593264361500,4.225361572265625,-0.6733695268630981,-0.4917863607406616,-0.47012680768966675
1733513593274438000,4.23543798828125,-0.5771269202232361,-0.5541791915893555,-0.6854614615440369
1733513593284514000,4.24551416015625,-0.4312049448490143,-0.4599073529243469,-0.7989415526390076
1733513593294589000,4.2555888671875,-0.24650061130523682,-0.2586410939693451,-0.7994435429573059
1733513593304665000,4.2656650390625,-0.04989873617887497,-0.046919845044612885,-0.7690389156341553
1733513593314741200,4.2757412109375,0.1323656141757965,0.10941170901060104,-0.7345906496047974
1733513593324816000,4.28581591796875,0.2574896514415741,0.12052573263645172,-0.6710628867149353
1733513593334892000,4.29589208984375,0.32155144214630127,0.13007795810699463,-0.5929763317108154
1733513593344968200,4.30596826171875,0.3410916030406952,0.23811887204647064,-0.501915693283081
1733513593355042800,4.316042724609375,0.33277374505996704,0.3865991532802582,-0.38239115476608276
1733513593365119000,4.326118896484375,0.3142838478088379,0.5237377882003784,-0.27776044607162476
1733513593375195100,4.336195068359375,0.28481996059417725,0.6604682207107544,-0.24209032952785492
1733513593385270000,4.34627001953125,0.22498713433742523,0.7061830163002014,-0.23957671225070953
1733513593395346000,4.356345947265625,0.11595785617828369,0.5480921864509583,-0.2075228989124298
1733513593405421000,4.366421142578125,-0.04036236181855202,0.24751706421375275,-0.16511030495166779
1733513593415497000,4.3764970703125,-0.19718100130558014,-0.0031140968203544617,-0.17835287749767303
1733513593425573000,4.386572998046875,-0.30454984307289124,-0.13143253326416016,-0.2394825965166092
1733513593435648000,4.39664794921875,-0.3316035568714142,-0.22279706597328186,-0.32499298453330994
1733513593445724000,4.406723876953125,-0.25968417525291443,-0.33470219373703003,-0.4873848557472229
1733513593455800000,4.416800048828125,-0.19232268631458282,-0.4666660726070404,-0.7242860794067383
1733513593465875000,4.426875,-0.18754664063453674,-0.5410066843032837,-0.9436368942260742
1733513593475950800,4.436950927734375,-0.2198808789253235,-0.46131080389022827,-1.0891402959823608
1733513593486027000,4.447027099609375,-0.24510186910629272,-0.2811526656150818,-1.1407731771469116
1733513593496102100,4.45710205078125,-0.21209438145160675,-0.0901600569486618,-1.11100172996521
1733513593506178000,4.467177978515625,-0.10739772021770477,0.052655335515737534,-1.0188261270523071
1733513593516254000,4.47725390625,0.06543397903442383,0.06811418384313583,-0.8903887867927551
1733513593526329000,4.4873291015625,0.27072417736053467,-0.09331703931093216,-0.7284213304519653
1733513593536405000,4.497405029296875,0.5045989751815796,-0.4848451316356659,-0.5495341420173645
1733513593546481200,4.507481201171875,0.7015814781188965,-1.1005966663360596,-0.3811973035335541
1733513593556556000,4.51755615234375,0.7847376465797424,-1.7771165370941162,-0.3807637691497803
1733513593566632000,4.5276318359375,0.7499099373817444,-1.886291742324829,-0.9665528535842896
1733513593576708000,4.5377080078125,0.6785670518875122,-1.2660068273544312,-2.002131223678589
1733513593586783000,4.547782958984375,0.5059814453125,-0.6896870136260986,-2.8316690921783447
1733513593596859000,4.55785888671875,0.2369699329137802,-0.48523300886154175,-3.155594825744629
1733513593606935000,4.56793505859375,-0.017847532406449318,-0.5724760890007019,-2.9865405559539795
1733513593617010200,4.57801025390625,-0.19776298105716705,-0.9074157476425171,-2.407907724380493
1733513593627085800,4.5880859375,-0.3148290514945984,-1.3870372772216797,-1.5841058492660522
1733513593637162000,4.598161865234375,-0.3582998514175415,-1.96435546875,-0.6292012333869934
1733513593647237000,4.608237060546875,-0.30434733629226685,-2.488837242126465,0.2494337111711502
1733513593657313000,4.61831298828125,-0.1749989241361618,-2.774878740310669,0.9276534914970398
1733513593667389000,4.628388916015625,0.0029170075431466103,-2.8459889888763428,1.3848124742507935
1733513593677464000,4.638464111328125,0.25456973910331726,-2.7249155044555664,1.6649585962295532
1733513593687540000,4.6485400390625,0.5778487324714661,-2.104856491088867,1.787293553352356
1733513593697616100,4.6586162109375,0.922102153301239,-0.8542394042015076,1.6953343152999878
1733513593707691000,4.66869091796875,1.1988543272018433,0.5594151020050049,1.3615524768829346
1733513593717767000,4.678766845703125,1.2616952657699585,2.082726001739502,0.7684764266014099
1733513593727843000,4.688843017578125,1.1212092638015747,3.3450942039489746,0.05273260921239853
1733513593737918200,4.698918212890625,0.8455653786659241,4.108006477355957,-0.567084550857544
1733513593747993900,4.708993896484375,0.5595194697380066,4.509739398956299,-1.0424951314926147
1733513593758069000,4.719069091796875,0.2996668219566345,4.5469536781311035,-1.3753652572631836
1733513593768145200,4.729145263671875,0.1113186925649643,4.134629726409912,-1.5690876245498657
1733513593778221000,4.739220947265625,0.046380702406167984,3.283679962158203,-1.68508780002594
1733513593788296000,4.7492958984375,0.06784700602293015,2.1287412643432617,-1.7996923923492432
1733513593798372000,4.7593720703125,0.09509700536727905,0.7901691198348999,-1.909752368927002
1733513593808448000,4.769447998046875,0.10764759033918381,-0.5899108648300171,-1.97390878200531
1733513593818523000,4.77952294921875,0.05538544803857803,-1.8151739835739136,-1.9333992004394531
1733513593828599000,4.78959912109375,-0.09748310595750809,-2.7287824153900146,-1.7710856199264526
1733513593838675000,4.799675048828125,-0.29583773016929626,-3.3590285778045654,-1.5423823595046997
1733513593848750000,4.80975,-0.41718676686286926,-3.790646553039551,-1.327142357826233
1733513593858826000,4.819825927734375,-0.45659834146499634,-4.103535175323486,-1.1588889360427856
1733513593868902000,4.82990185546875,-0.4559738337993622,-4.223533630371094,-0.996621310710907
1733513593878977000,4.83997705078125,-0.4382137656211853,-4.122228622436523,-0.8088995814323425
1733513593889053200,4.85005322265625,-0.3786923289299011,-3.780207872390747,-0.6418561935424805
1733513593899128800,4.86012890625,-0.2931787371635437,-3.177318811416626,-0.5216379165649414
1733513593909204000,4.870203857421875,-0.19721250236034393,-2.395533323287964,-0.4622621238231659
1733513593919280000,4.880280029296875,-0.1071755513548851,-1.580960988998413,-0.48574137687683105
1733513593929356000,4.89035595703125,-0.03500063717365265,-0.8174537420272827,-0.5761386156082153
1733513593939431000,4.900430908203125,-0.004014759790152311,-0.16951778531074524,-0.6919898390769958
1733513593949507000,4.910507080078125,-0.04321818798780441,0.3075372576713562,-0.7758936285972595
1733513593959583000,4.9205830078125,-0.10148655623197556,0.6283267140388489,-0.7823845148086548
1733513593969658000,4.930658203125,-0.1564645618200302,0.7932237386703491,-0.7442986965179443
1733513593979734000,4.940734130859375,-0.1935378909111023,0.8051219582557678,-0.6856265664100647
1733513593989810000,4.950809814453125,-0.21367309987545013,0.6868581771850586,-0.6312430500984192
1733513593999885000,4.960885009765625,-0.21497192978858948,0.46511030197143555,-0.5882748365402222
1733513594009961200,4.970961181640625,-0.19919125735759735,0.16455519199371338,-0.5683234333992004
1733513594020036900,4.981036865234375,-0.16321168839931488,-0.17251311242580414,-0.569326639175415
1733513594030112000,4.991112060546875,-0.10572120547294617,-0.4947758913040161,-0.58929443359375
1733513594040188200,5.001188232421875,-0.04105273634195328,-0.7879648804664612,-0.6277579069137573
1733513594050264000,5.01126416015625,-0.006633362732827663,-1.0300507545471191,-0.6760336756706238
1733513594060339000,5.0213388671875,0.009221766144037247,-1.2177824974060059,-0.7303280830383301
1733513594070415000,5.0314150390625,0.008567364886403084,-1.3636993169784546,-0.7969199419021606
1733513594080491000,5.041490966796875,0.0019062659703195095,-1.467052698135376,-0.8775900602340698
1733513594090566000,5.05156591796875,0.016849273815751076,-1.5532934665679932,-0.9596683382987976
1733513594100642000,5.06164208984375,0.06701257824897766,-1.621657133102417,-1.0348845720291138
1733513594110717200,5.07171728515625,0.14880692958831787,-1.6634658575057983,-1.0807538032531738
1733513594120793000,5.08179296875,0.24116083979606628,-1.6345064640045166,-1.074208378791809
1733513594130869000,5.091868896484375,0.2993417978286743,-1.5120196342468262,-1.0072500705718994
1733513594140944100,5.101944091796875,0.28473541140556335,-1.298781394958496,-0.9017301201820374
1733513594151020000,5.11202001953125,0.1713237762451172,-1.0617936849594116,-0.8091060519218445
1733513594161096200,5.12209619140625,-0.01928851380944252,-0.8981589674949646,-0.8065225481987
1733513594171171000,5.132171142578125,-0.23112158477306366,-0.8724134564399719,-0.9657427072525024
1733513594181247000,5.1422470703125,-0.3974112272262573,-0.9785923361778259,-1.2571077346801758
1733513594191323100,5.1523232421875,-0.4840560555458069,-1.1314853429794312,-1.5253671407699585
1733513594201398000,5.16239794921875,-0.46182024478912354,-1.2761677503585815,-1.6005244255065918
1733513594211474000,5.172473876953125,-0.35942819714546204,-1.4063764810562134,-1.500315546989441
1733513594221550000,5.182550048828125,-0.26848870515823364,-1.5527704954147339,-1.2785727977752686
1733513594231625000,5.192625,-0.29661083221435547,-1.6408162117004395,-0.8349359631538391
1733513594241701000,5.202701171875,-0.4561208486557007,-1.5811656713485718,-0.12272653728723526
1733513594251777000,5.212777099609375,-0.6156711578369141,-1.2500206232070923,0.8907076716423035
1733513594261852000,5.222851806640625,-0.6809401512145996,-0.5049619078636169,2.0625431537628174
1733513594271927000,5.232927001953125,-0.6779084205627441,0.5948430299758911,3.1043753623962402
1733513594282003200,5.243003173828125,-0.6240465044975281,1.7949485778808594,3.8751657009124756
1733513594292078000,5.253078125,-0.5056464076042175,2.8387742042541504,4.325377941131592
1733513594302154000,5.263154052734375,-0.33588507771492004,3.6277966499328613,4.506480693817139
1733513594312230100,5.273230224609375,-0.1332777738571167,4.148158073425293,4.537932872772217
1733513594322305300,5.28330517578125,-0.01223418116569519,4.348265647888184,4.5713348388671875
1733513594332381000,5.293380859375,0.0028682085685431957,4.3360676765441895,4.667914867401123
1733513594342457000,5.30345703125,-0.05503477156162262,4.035134315490723,4.776382923126221
1733513594352532200,5.3135322265625,-0.19177861511707306,3.4771475791931152,4.84042501449585
1733513594362608000,5.323608154296875,-0.3544873893260956,2.5961601734161377,4.693944931030273
1733513594372684000,5.33368408203125,-0.3921596109867096,1.4465173482894897,4.249687194824219
1733513594382759200,5.34375927734375,-0.22967003285884857,0.12846672534942627,3.641794443130493
1733513594392835000,5.3538349609375,-0.0767054408788681,-0.7618112564086914,2.984384775161743
1733513594402911200,5.3639111328125,-0.04763704165816307,-0.9275341629981995,2.3093101978302
1733513594412986000,5.373986083984375,-0.09262318164110184,-0.8181840181350708,1.7430695295333862
1733513594423062000,5.38406201171875,-0.13186246156692505,-0.7757822275161743,1.291925311088562
1733513594433138200,5.39413818359375,-0.12857025861740112,-0.8500388860702515,0.9475932717323303
1733513594443213300,5.40421337890625,-0.10143663734197617,-1.0223443508148193,0.7457832098007202
1733513594453289000,5.4142890625,-0.11458643525838852,-1.167031168937683,0.6556568741798401
1733513594463365000,5.424365234375,-0.17470170557498932,-1.247910499572754,0.6515452265739441
1733513594473440300,5.434440185546875,-0.2670392394065857,-1.2154871225357056,0.6714657545089722
1733513594483516200,5.44451611328125,-0.3464887738227844,-1.0219861268997192,0.6959335803985596
1733513594493592000,5.454592041015625,-0.3241659104824066,-0.7897993922233582,0.7849060893058777
1733513594503667200,5.464667236328125,-0.25330105423927307,-0.4581870436668396,0.9091683626174927
1733513594513743000,5.4747431640625,-0.17238245904445648,-0.012229143641889095,1.0397121906280518
1733513594523818000,5.48481787109375,-0.10147233307361603,0.5364275574684143,1.167149305343628
1733513594533894100,5.49489404296875,-0.05948592722415924,1.1954329013824463,1.253129005432129
1733513594543970000,5.504969970703125,-0.03728261962532997,1.821431040763855,1.292549729347229
1733513594554045200,5.515045166015625,-0.032586246728897095,2.226475477218628,1.2820106744766235
1733513594564121000,5.52512109375,-0.03648298606276512,2.3042523860931396,1.2240229845046997
1733513594574197000,5.535197021484375,-0.06881195306777954,2.0981695652008057,1.1276370286941528
1733513594584272100,5.545272216796875,-0.12444805353879929,1.6755002737045288,0.976797878742218
1733513594594348300,5.555348388671875,-0.1835375428199768,1.1169171333312988,0.7483646869659424
1733513594604424000,5.565423828125,-0.2454613745212555,0.5584762096405029,0.464621901512146
1733513594614499000,5.5754990234375,-0.2884170114994049,0.11745483428239822,0.16449891030788422
1733513594624575200,5.5855751953125,-0.31140756607055664,-0.21377210319042206,-0.1248873621225357
1733513594634651100,5.595651123046875,-0.3273712992668152,-0.47812607884407043,-0.3998169004917145
1733513594644726000,5.60572607421875,-0.3362225890159607,-0.6970645785331726,-0.6753491163253784
1733513594654802200,5.61580224609375,-0.328214168548584,-0.8829105496406555,-0.9292881488800049
1733513594664878000,5.625878173828125,-0.2916111350059509,-1.0242599248886108,-1.1018669605255127
1733513594674953200,5.635953125,-0.2206714153289795,-1.1041697263717651,-1.0350664854049683
1733513594685029000,5.646029052734375,-0.17820625007152557,-0.919066309928894,-0.6894158720970154
1733513594695105000,5.65610498046875,-0.1607232689857483,-0.35577550530433655,-0.42132118344306946
1733513594705180200,5.66618017578125,-0.10378649085760117,0.233755961060524,-0.28442004323005676
1733513594715256300,5.67625634765625,-0.011121130548417568,0.7320966720581055,-0.2797924280166626
1733513594725332000,5.68633203125,0.10276016592979431,1.02315354347229,-0.32708245515823364
1733513594735407000,5.696406982421875,0.2106950730085373,1.1138643026351929,-0.36980122327804565
1733513594745483300,5.706483154296875,0.3124488592147827,1.1027048826217651,-0.4157969653606415
1733513594755559200,5.71655908203125,0.3686586320400238,1.0965690612792969,-0.4804595410823822
1733513594765634000,5.726634033203125,0.3801861107349396,1.115102767944336,-0.5606547594070435
1733513594775710200,5.736710205078125,0.33953675627708435,1.0761743783950806,-0.6487928628921509
1733513594785786000,5.7467861328125,0.22905443608760834,0.868143618106842,-0.7386425733566284
1733513594795861000,5.756861083984375,0.05201752856373787,0.4331943690776825,-0.8055540919303894
1733513594805937200,5.766937255859375,-0.1784479022026062,-0.22055494785308838,-0.7775954008102417
1733513594816013000,5.777012939453125,-0.40416964888572693,-0.8708074688911438,-0.6866244077682495
1733513594826088200,5.787088134765625,-0.5207346081733704,-1.2860575914382935,-0.6835876107215881
1733513594836164000,5.7971640625,-0.50093013048172,-1.4510314464569092,-0.8219378590583801
1733513594846240000,5.807239990234375,-0.3881966471672058,-1.274649739265442,-1.037857174873352
1733513594856315100,5.817315185546875,-0.2104281187057495,-0.8203965425491333,-1.2375719547271729
1733513594866391300,5.827391357421875,-0.007841713726520538,-0.3736549913883209,-1.356207013130188
1733513594876467000,5.837467041015625,0.19806823134422302,-0.12775462865829468,-1.418871521949768
1733513594886542000,5.8475419921875,0.39132291078567505,-0.1317024976015091,-1.4200531244277954
1733513594896618200,5.8576181640625,0.5529935359954834,-0.4304850697517395,-1.2961100339889526
1733513594906693000,5.867693115234375,0.6654044985771179,-0.9290951490402222,-1.0180307626724243
1733513594916769000,5.87776904296875,0.7147097587585449,-1.4307094812393188,-0.7043060064315796
1733513594926845200,5.88784521484375,0.6765008568763733,-1.5627045631408691,-0.7159945964813232
1733513594936920000,5.897920166015625,0.595191240310669,-1.1185667514801025,-1.1394742727279663
1733513594946996200,5.907996337890625,0.49403053522109985,-0.49338915944099426,-1.5586673021316528
1733513594957072100,5.918072021484375,0.39714235067367554,-0.14372561872005463,-1.648897409439087
1733513594967147000,5.92814697265625,0.3445369303226471,-0.15640626847743988,-1.3836987018585205
1733513594977223200,5.93822314453125,0.32183489203453064,-0.43304866552352905,-0.8838142156600952
1733513594987299300,5.94829931640625,0.302452951669693,-0.8379450440406799,-0.2579905688762665
1733513594997374000,5.9583740234375,0.23913682997226715,-1.2604854106903076,0.40849775075912476
1733513595007450000,5.9684501953125,0.17910119891166687,-1.5139703750610352,0.9623337984085083
1733513595017526300,5.9785263671875,0.16848361492156982,-1.3984014987945557,1.2826684713363647
1733513595027601000,5.988600830078125,0.25810348987579346,-1.0156328678131104,1.3582844734191895
1733513595037677000,5.998677001953125,0.434296190738678,-0.5395477414131165,1.2212061882019043
1733513595047753200,6.008753173828125,0.686007022857666,-0.17066636681556702,0.9055887460708618
1733513595057828000,6.018828125,1.0244252681732178,0.0880921483039856,0.48349741101264954
1733513595067904000,6.028904052734375,1.3704228401184082,0.3000086545944214,0.03933247551321983
1733513595077980200,6.038980224609375,1.5169888734817505,0.6104063391685486,-0.4283633828163147
1733513595088055000,6.049054931640625,1.4134196043014526,1.069894790649414,-0.9115566611289978
1733513595098131200,6.059131103515625,1.100832223892212,1.6518269777297974,-1.3151814937591553
1733513595108207000,6.06920703125,0.7078761458396912,2.2631094455718994,-1.5452700853347778
1733513595118282000,6.079281982421875,0.4175790548324585,2.5137994289398193,-1.5977075099945068
1733513595128358100,6.089358154296875,0.3002399206161499,2.3265695571899414,-1.5702202320098877
1733513595138434000,6.09943408203125,0.36459746956825256,1.7000993490219116,-1.6943029165267944
1733513595148509000,6.109509033203125,0.5786234736442566,0.3166106641292572,-2.2635338306427
1733513595158585000,6.119585205078125,0.6888061761856079,-1.330513834953308,-2.887929916381836
1733513595168661000,6.129660888671875,0.5383058786392212,-2.630146026611328,-3.149188280105591
1733513595178736000,6.139736083984375,0.22381210327148438,-3.4445345401763916,-3.009315252304077
1733513595188812000,6.14981201171875,-0.1301206797361374,-3.8588006496429443,-2.6520674228668213
1733513595198888000,6.159887939453125,-0.35527631640434265,-4.035421848297119,-2.2550599575042725
1733513595208963000,6.169963134765625,-0.44976022839546204,-4.082225799560547,-1.9157958030700684
1733513595219039200,6.180039306640625,-0.4694899320602417,-4.1062846183776855,-1.6725707054138184
1733513595229115100,6.190115234375,-0.4632309675216675,-4.005374908447266,-1.4451240301132202
1733513595239190000,6.20018994140625,-0.44230917096138,-3.6351709365844727,-1.181511402130127
1733513595249266200,6.21026611328125,-0.4148256182670593,-2.9577505588531494,-0.8766804933547974
1733513595259342000,6.220342041015625,-0.3641291558742523,-2.0358493328094482,-0.5555813312530518
1733513595269417000,6.2304169921875,-0.2755822241306305,-1.0033118724822998,-0.2593144476413727
1733513595279493000,6.2404931640625,-0.1592283397912979,-0.01328873448073864,-0.014859061688184738
1733513595289568000,6.250568115234375,-0.030765971168875694,0.8631452918052673,0.16753923892974854
1733513595299644000,6.260643798828125,0.05696726590394974,1.5922831296920776,0.29559326171875
1733513595309720000,6.270719970703125,0.06809688359498978,2.1353976726531982,0.38914239406585693
1733513595319795000,6.280794921875,0.028202401474118233,2.4641337394714355,0.4518302083015442
1733513595329870800,6.290870849609375,-0.03776143491268158,2.5844132900238037,0.4644213616847992
1733513595339947000,6.300947021484375,-0.1144980639219284,2.5030322074890137,0.4326825737953186
1733513595350022100,6.311022216796875,-0.1842513233423233,2.1939659118652344,0.3485402762889862
1733513595360097800,6.321097900390625,-0.19752074778079987,1.7747844457626343,0.19748473167419434
1733513595370174000,6.331174072265625,-0.1590346097946167,1.2916874885559082,0.011841900646686554
1733513595380249000,6.3412490234375,-0.10317051410675049,0.8124319911003113,-0.1711113601922989
1733513595390325000,6.351324951171875,-0.06153571605682373,0.3728378415107727,-0.3178595304489136
1733513595400401000,6.36140087890625,-0.03493697941303253,-0.04970141872763634,-0.42786842584609985
1733513595410476000,6.37147607421875,-0.0196368545293808,-0.48931685090065,-0.5093638300895691
1733513595420552000,6.381552001953125,0.0038208761252462864,-0.9146103858947754,-0.5912772417068481
1733513595430628000,6.391628173828125,0.028334209695458412,-1.3056063652038574,-0.7045702338218689
1733513595440703000,6.401702880859375,0.062346599996089935,-1.5904223918914795,-0.8283930420875549
1733513595450779000,6.41177880859375,0.10512255877256393,-1.7654874324798584,-0.9741755723953247
1733513595460855000,6.42185498046875,0.15009674429893494,-1.81007981300354,-1.1600130796432495
1733513595470930200,6.43193017578125,0.19913406670093536,-1.7293106317520142,-1.3781826496124268
1733513595481005800,6.442005859375,0.30058175325393677,-1.5229990482330322,-1.579056978225708
1733513595491082000,6.45208203125,0.4897255599498749,-1.2122392654418945,-1.6692495346069336
1733513595501157000,6.4621572265625,0.7010995149612427,-0.8481453657150269,-1.6176156997680664
1733513595511233000,6.47223291015625,0.8256856203079224,-0.45534804463386536,-1.5004222393035889
1733513595521309000,6.482308837890625,0.8019551634788513,-0.07837265729904175,-1.4889607429504395
1733513595531384000,6.492384033203125,0.6702682971954346,0.24005591869354248,-1.6490095853805542
1733513595541460000,6.5024599609375,0.5114270448684692,0.41318202018737793,-1.9026415348052979
1733513595551536000,6.5125361328125,0.3411354720592499,0.10904531180858612,-2.2077701091766357
1733513595561611000,6.522611083984375,0.11696679890155792,-0.6180450320243835,-1.8403640985488892
1733513595571687000,6.53268701171875,-0.14702065289020538,-1.0141825675964355,-0.4376920461654663
1733513595581763000,6.54276318359375,-0.4650602638721466,-0.7560794353485107,1.364642858505249
1733513595591838000,6.552837890625,-0.7570327520370483,0.1132996529340744,2.77360463142395
1733513595601913900,6.562913818359375,-0.9328145980834961,1.2557930946350098,3.438873291015625
1733513595611989000,6.572989013671875,-0.9858852624893188,2.3922438621520996,3.586536407470703
1733513595622065200,6.583065185546875,-0.907124936580658,3.2747387886047363,3.631190061569214
1733513595632140800,6.593140869140625,-0.7104334831237793,3.918172836303711,3.7513344287872314
1733513595642216000,6.6032158203125,-0.4421931803226471,4.562994956970215,3.924801826477051
1733513595652292000,6.6132919921875,-0.16164648532867432,5.019429683685303,4.116914749145508
1733513595662368000,6.623367919921875,-0.0024239704944193363,5.079097747802734,4.290925025939941
1733513595672443000,6.63344287109375,-0.019972603768110275,4.670857906341553,4.406247138977051
1733513595682519000,6.64351904296875,-0.1658247858285904,3.6456732749938965,4.414489269256592
1733513595692595000,6.653594970703125,-0.3802475929260254,2.048494338989258,4.2035651206970215
1733513595702670000,6.663670166015625,-0.5621740818023682,0.406271755695343,3.841482400894165
1733513595712746000,6.67374609375,-0.5939205288887024,-0.8735553026199341,3.3798904418945312
1733513595722822000,6.68382177734375,-0.4944091737270355,-1.5559163093566895,2.823082447052002
1733513595732897000,6.69389697265625,-0.4043882191181183,-1.5177825689315796,2.101405143737793
1733513595742973200,6.70397314453125,-0.34956467151641846,-1.2124136686325073,1.33809232711792
1733513595753048800,6.714048828125,-0.3871384263038635,-0.8220422863960266,0.6766195893287659
1733513595763124000,6.7241240234375,-0.45050856471061707,-0.391622394323349,0.1822919249534607
1733513595773200100,6.7342001953125,-0.49952033162117004,-0.0036818513181060553,-0.10031741112470627
1733513595783276000,6.744276123046875,-0.5086585283279419,0.25750017166137695,-0.19233903288841248
1733513595793351000,6.754350830078125,-0.4785251021385193,0.39711424708366394,-0.1585613638162613
1733513595803427000,6.764427001953125,-0.43619635701179504,0.42158806324005127,-0.06656013429164886
1733513595813503000,6.7745029296875,-0.3916829526424408,0.3520379960536957,0.052889563143253326
1733513595823577900,6.784577880859375,-0.36646315455436707,0.23057706654071808,0.18773622810840607
1733513595833654000,6.794654052734375,-0.3504756689071655,0.19302862882614136,0.35272493958473206
1733513595843730000,6.80472998046875,-0.34389933943748474,0.26338130235671997,0.522470235824585
1733513595853805000,6.81480517578125,-0.36209750175476074,0.5156716704368591,0.692147970199585
1733513595863881000,6.824880859375,-0.405315101146698,0.9505195021629333,0.8493078947067261
1733513595873956900,6.834956787109375,-0.4522583782672882,1.4919843673706055,0.9743659496307373
1733513595884032000,6.845031982421875,-0.4928176701068878,2.013444423675537,1.0810246467590332
1733513595894108200,6.855108154296875,-0.5197715163230896,2.366713047027588,1.1744470596313477
1733513595904183800,6.865183837890625,-0.5571169257164001,2.429316997528076,1.2247003316879272
1733513595914259000,6.875259033203125,-0.6094368696212769,2.2395968437194824,1.2071008682250977
1733513595924335000,6.885335205078125,-0.6885202527046204,1.9224467277526855,1.1115871667861938
1733513595934411000,6.895410888671875,-0.7652366161346436,1.5411065816879272,0.9583760499954224
1733513595944486000,6.90548583984375,-0.8302620649337769,1.1735267639160156,0.7666668891906738
1733513595954562000,6.91556201171875,-0.8812174201011658,0.7911284565925598,0.5499612092971802
1733513595964638000,6.925637939453125,-0.9145826101303101,0.37916913628578186,0.3212326467037201
1733513595974713000,6.935713134765625,-0.9143492579460144,-0.03084101714193821,0.08565287292003632
1733513595984789000,6.9457890625,-0.8820697665214539,-0.36103159189224243,-0.1438629925251007
1733513595994863900,6.95586376953125,-0.821675717830658,-0.5632475018501282,-0.328207790851593
1733513596004940000,6.96593994140625,-0.7340054512023926,-0.6241546869277954,-0.400208979845047
1733513596015016200,6.97601611328125,-0.6233753561973572,-0.5195978879928589,-0.34165510535240173
1733513596025090800,6.9860908203125,-0.5187880396842957,-0.2527206242084503,-0.2996664345264435
1733513596035167000,6.9961669921875,-0.44753167033195496,0.009313383139669895,-0.29233184456825256
1733513596045243100,7.0062431640625,-0.36448976397514343,0.12888619303703308,-0.31925931572914124
1733513596055317800,7.01631787109375,-0.3002692461013794,0.187096506357193,-0.35638192296028137
1733513596065394000,7.026393798828125,-0.26479798555374146,0.31463268399238586,-0.367234468460083
1733513596075470000,7.036469970703125,-0.238333597779274,0.506241500377655,-0.3376355767250061
1733513596085545000,7.046544921875,-0.21982058882713318,0.8225833773612976,-0.30032625794410706
1733513596095620900,7.056620849609375,-0.1734514981508255,1.2705659866333008,-0.28760087490081787
1733513596105697000,7.066697021484375,-0.11127197742462158,1.807286262512207,-0.33453184366226196
1733513596115772000,7.07677197265625,-0.0482325553894043,2.1980884075164795,-0.4172767996788025
1733513596125848000,7.08684814453125,-0.02140166610479355,2.1952438354492188,-0.5069701075553894
1733513596135924000,7.096924072265625,-0.08795753121376038,1.6271783113479614,-0.5638837218284607
1733513596145998800,7.106998779296875,-0.24228841066360474,0.6851261258125305,-0.5969832539558411
1733513596156075000,7.117074951171875,-0.3798007071018219,-0.13660582900047302,-0.6621979475021362
1733513596166151200,7.127151123046875,-0.39543798565864563,-0.5093580484390259,-0.8184589147567749
1733513596176225800,7.137225830078125,-0.31400781869888306,-0.5637363791465759,-1.0186127424240112
1733513596186302000,7.147302001953125,-0.19773313403129578,-0.4063229560852051,-1.215055227279663
1733513596196378000,7.157378173828125,-0.0864873006939888,-0.05437210202217102,-1.399308204650879
1733513596206453000,7.167452880859375,-0.015672462061047554,0.43393778800964355,-1.5178401470184326
1733513596216529000,7.17752880859375,0.01474083960056305,0.9131384491920471,-1.5138485431671143
1733513596226605000,7.18760498046875,0.06690891832113266,1.136458158493042,-1.4306820631027222
1733513596236680000,7.197679931640625,0.17519012093544006,0.9154122471809387,-1.289042592048645
1733513596246756000,7.207756103515625,0.30169224739074707,0.3789346218109131,-1.0909347534179688
1733513596256832000,7.21783203125,0.35734859108924866,-0.32368794083595276,-0.7733826041221619
1733513596266907000,7.227906982421875,0.3032169044017792,-1.184299349784851,-0.3259720802307129
1733513596276982800,7.237982666015625,0.17954899370670319,-2.0505356788635254,-0.10626987367868423
1733513596287059000,7.248058837890625,0.01538112573325634,-2.187915086746216,-0.6422703862190247
1733513596297133800,7.2581337890625,-0.08558943122625351,-1.4941751956939697,-1.6128309965133667
1733513596307210000,7.2682099609375,-0.1333572268486023,-0.8146519660949707,-2.311328649520874
1733513596317284900,7.278284912109375,-0.2134651094675064,-0.38432565331459045,-2.493255615234375
1733513596327360800,7.28836083984375,-0.3030208647251129,-0.18870925903320312,-2.2662250995635986
1733513596337437000,7.29843701171875,-0.37169554829597473,-0.2682618796825409,-1.733678936958313
1733513596347512000,7.308511962890625,-0.30116644501686096,-0.694132387638092,-0.9830266237258911
1733513596357587700,7.318587646484375,-0.049035415053367615,-1.3134549856185913,-0.16785143315792084
1733513596367663900,7.328663818359375,0.2858355939388275,-1.788815975189209,0.5303594470024109
1733513596377739000,7.338739013671875,0.6254355311393738,-1.6093865633010864,0.9788568019866943
1733513596387815000,7.34881494140625,0.9658467173576355,-0.6673535704612732,1.149373173713684
1733513596397890800,7.358890869140625,1.2758163213729858,0.37951162457466125,1.154610514640808
1733513596407966000,7.368966064453125,1.5521807670593262,1.3895740509033203,1.0038368701934814
1733513596418041900,7.379041748046875,1.7978360652923584,2.4579389095306396,0.6763684749603271
1733513596428118000,7.389117919921875,1.9166159629821777,3.5661051273345947,0.2448103129863739
1733513596438193000,7.39919287109375,1.760514259338379,4.396714687347412,-0.17885759472846985
1733513596448268800,7.409268798828125,1.434493064880371,4.601480484008789,-0.5578991770744324
1733513596458345000,7.419344970703125,0.978759765625,4.299623489379883,-0.8452787399291992
1733513596468419800,7.429419921875,0.49911972880363464,3.6950318813323975,-1.0084149837493896
1733513596478495700,7.439495849609375,0.10913918167352676,3.003645896911621,-1.176525354385376
1733513596488572000,7.449572021484375,-0.05791197717189789,2.0438919067382812,-1.4396581649780273
1733513596498647000,7.45964697265625,0.06598173826932907,0.5232710838317871,-1.9991270303726196
1733513596508722700,7.46972265625,0.2889016270637512,-1.1016626358032227,-2.591782808303833
1733513596518798800,7.479798828125,0.35426411032676697,-2.3125898838043213,-2.8948583602905273
1733513596528874000,7.4898740234375,0.2989363372325897,-3.0285184383392334,-2.8810536861419678
1733513596538950000,7.499949951171875,0.17703334987163544,-3.4207000732421875,-2.672776699066162
1733513596549026000,7.510026123046875,0.03891048580408096,-3.5838255882263184,-2.3789937496185303
1733513596559101000,7.520100830078125,-0.1524490863084793,-3.548358917236328,-2.097508192062378
1733513596569176800,7.5301767578125,-0.33033671975135803,-3.3385350704193115,-1.863996982574463
1733513596579253000,7.5402529296875,-0.40445753931999207,-3.0217878818511963,-1.6366299390792847
1733513596589328000,7.550327880859375,-0.36818304657936096,-2.5994958877563477,-1.3511711359024048
1733513596599403800,7.56040380859375,-0.26784923672676086,-2.084049701690674,-0.9945394992828369
1733513596609480000,7.57047998046875,-0.16354221105575562,-1.518008828163147,-0.6413320899009705
1733513596619555000,7.58055517578125,-0.1010306254029274,-0.9584037661552429,-0.41714349389076233
1733513596629630700,7.590630615234375,-0.10856923460960388,-0.5491086840629578,-0.3653029203414917
1733513596639705900,7.600705810546875,-0.1453823745250702,-0.31494811177253723,-0.44400811195373535
1733513596649782000,7.610781982421875,-0.18372927606105804,-0.17492178082466125,-0.5723446011543274
1733513596659858000,7.62085791015625,-0.21651625633239746,-0.05087919533252716,-0.6634986996650696
1733513596669932800,7.630932861328125,-0.2607819736003876,0.06575257331132889,-0.6919439435005188
1733513596680009000,7.641009033203125,-0.31087788939476013,0.16687946021556854,-0.6490822434425354
1733513596690084900,7.6510849609375,-0.34494784474372864,0.21753309667110443,-0.570561408996582
1733513596700159700,7.66115966796875,-0.33964255452156067,0.19660837948322296,-0.467256098985672
1733513596710236000,7.67123583984375,-0.301139771938324,0.09859941899776459,-0.37585437297821045
1733513596720311800,7.681311767578125,-0.25473764538764954,-0.06793176382780075,-0.2960900366306305
1733513596730387000,7.691386962890625,-0.21590761840343475,-0.27683737874031067,-0.23498958349227905
1733513596740462800,7.701462890625,-0.19358660280704498,-0.48556822538375854,-0.18847773969173431
1733513596750538800,7.711538818359375,-0.1937808096408844,-0.6964971423149109,-0.1615401953458786
1733513596760614000,7.72161376953125,-0.19453927874565125,-0.9056922197341919,-0.16362199187278748
1733513596770690000,7.73168994140625,-0.18342053890228271,-1.087561845779419,-0.2131759226322174
1733513596780766000,7.741765869140625,-0.13470786809921265,-1.2178982496261597,-0.315155029296875
1733513596790840800,7.7518408203125,-0.06749305874109268,-1.3039495944976807,-0.4713541269302368
1733513596800917000,7.7619169921875,0.0005096928216516972,-1.3209915161132812,-0.646033525466919
1733513596810993000,7.771992919921875,0.06864084303379059,-1.2642080783843994,-0.7814416289329529
1733513596821067800,7.78206787109375,0.13403023779392242,-1.1308919191360474,-0.8561856150627136
1733513596831144000,7.79214404296875,0.2109365016222,-0.923048734664917,-0.8634491562843323
1733513596841219800,7.8022197265625,0.2808082401752472,-0.6317844390869141,-0.7920221090316772
1733513596851295000,7.812294921875,0.30502018332481384,-0.27214545011520386,-0.6545544862747192
1733513596861371000,7.822370849609375,0.27673766016960144,0.10694859176874161,-0.5229639410972595
1733513596871446800,7.83244677734375,0.211759552359581,0.423017293214798,-0.5079734325408936
1733513596881522000,7.84252197265625,0.1619826704263687,0.6030246019363403,-0.6655063629150391
1733513596891598000,7.85259814453125,0.14044974744319916,0.6370828151702881,-0.9364395141601562
1733513596901673700,7.862673828125,0.12495148926973343,0.5732670426368713,-1.2043306827545166
1733513596911748900,7.872748779296875,0.05447222664952278,0.49950772523880005,-1.3518354892730713
1733513596921825000,7.882824951171875,-0.10175785422325134,0.5049975514411926,-1.333696722984314
1733513596931901000,7.89290087890625,-0.33525708317756653,0.4928881824016571,-1.2847723960876465
1733513596941975800,7.902975830078125,-0.6472572684288025,0.020208796486258507,-1.4000377655029297
1733513596952052000,7.913052001953125,-0.8884795308113098,-0.7209328413009644,-0.643861711025238
1733513596962128000,7.9231279296875,-0.9567661881446838,-0.6844592094421387,1.4412848949432373
1733513596972203000,7.933203125,-1.0352822542190552,0.21048571169376373,3.299051284790039
1733513596982279000,7.94327880859375,-1.1027052402496338,1.1111284494400024,4.354790210723877
1733513596992353800,7.953353759765625,-1.050758719444275,1.6124483346939087,4.862008094787598
1733513597002430000,7.963429931640625,-0.7556091547012329,1.7389516830444336,5.132206439971924
1733513597012506000,7.973506103515625,-0.35810422897338867,1.7165733575820923,5.3298869132995605
1733513597022580700,7.983580810546875,-0.07290151715278625,1.8059806823730469,5.4598283767700195
1733513597032657000,7.993656982421875,0.06287819892168045,1.8666588068008423,5.539272308349609
1733513597042733000,8.003733154296874,0.09055882692337036,1.7472707033157349,5.465063095092773
1733513597052807700,8.0138076171875,0.05028163641691208,1.1759754419326782,5.083466529846191
1733513597062883800,8.0238837890625,-0.060038212686777115,0.6019706130027771,4.2578606605529785
1733513597072960000,8.0339599609375,-0.10373852401971817,0.3414202928543091,3.1194746494293213
1733513597083035000,8.044034912109375,-0.03663964197039604,0.1858229637145996,2.063180685043335
1733513597093110800,8.05411083984375,-0.025107914581894875,0.19502556324005127,1.3008912801742554
1733513597103187000,8.06418701171875,-0.15794265270233154,0.48386189341545105,0.8710062503814697
1733513597113261800,8.07426171875,-0.3307243883609772,0.8426550626754761,0.6928380131721497
1733513597123338000,8.084337890625,-0.4124157726764679,1.02669358253479,0.6664060950279236
1733513597133414000,8.094413818359374,-0.3660596013069153,0.9377484917640686,0.6570175290107727
1733513597143488800,8.10448876953125,-0.21860411763191223,0.5944318771362305,0.5619562864303589
1733513597153565000,8.11456494140625,-0.06302410364151001,0.03608536720275879,0.37602129578590393
1733513597163641000,8.12464111328125,0.03464466333389282,-0.5593290328979492,0.18840424716472626
1733513597173715700,8.1347158203125,0.038129474967718124,-1.0848133563995361,0.068316251039505
1733513597183791900,8.1447919921875,-0.062233347445726395,-1.2827571630477905,0.05346779525279999
1733513597193868000,8.154867919921875,-0.26050031185150146,-1.0685694217681885,0.15475133061408997
1733513597203943000,8.16494287109375,-0.49488139152526855,-0.6570401191711426,0.4535590708255768
1733513597214018800,8.175018798828125,-0.7155191898345947,-0.08081742376089096,0.970537006855011
1733513597224095000,8.185094970703124,-0.8983720541000366,0.7487050890922546,1.4854003190994263
1733513597234169900,8.195169921875,-0.9809796810150146,1.6134918928146362,1.8634769916534424
1733513597244246000,8.20524609375,-0.9773409962654114,2.2049994468688965,2.051065683364868
1733513597254322000,8.215322021484376,-0.9416118860244751,2.397411346435547,2.050973892211914
1733513597264396800,8.225396728515625,-0.9061271548271179,2.2335076332092285,1.8696171045303345
1733513597274474000,8.235473876953124,-0.8551329970359802,1.8799318075180054,1.5357855558395386
1733513597284550000,8.2455498046875,-0.8150010704994202,1.4624427556991577,1.121968388557434
1733513597294625000,8.255625,-0.793122410774231,1.0580424070358276,0.6995948553085327
1733513597304701200,8.265701171875,-0.7739572525024414,0.7048412561416626,0.32032135128974915
1733513597314776000,8.275776123046874,-0.7669669985771179,0.40417036414146423,-0.01584974303841591
1733513597324852000,8.28585205078125,-0.7904360890388489,0.100518599152565,-0.30717453360557556
1733513597334928100,8.29592822265625,-0.8307480216026306,-0.20467711985111237,-0.5700451731681824
1733513597345003000,8.3060029296875,-0.8612515926361084,-0.5051732659339905,-0.804618239402771
1733513597355079000,8.316078857421875,-0.8587166666984558,-0.7515277862548828,-1.0159722566604614
1733513597365155000,8.326155029296874,-0.8237141966819763,-0.9085288047790527,-1.2073643207550049
1733513597375230000,8.33622998046875,-0.748182475566864,-0.9857129454612732,-1.3927860260009766
1733513597385306000,8.34630615234375,-0.6080676913261414,-0.9041835069656372,-1.5376955270767212
1733513597395382000,8.356382080078125,-0.3619992434978485,-0.47945213317871094,-1.5364923477172852
1733513597405457000,8.366456787109374,-0.07318981736898422,0.1288716346025467,-1.2544769048690796
1733513597415533000,8.376532958984376,0.2146597057580948,0.8666602969169617,-0.8139321208000183
1733513597425609200,8.386609130859375,0.4756540060043335,1.5103541612625122,-0.5470594167709351
1733513597435683800,8.396683837890626,0.6529192924499512,1.8461081981658936,-0.42690160870552063
1733513597445760000,8.406760009765625,0.6425318717956543,1.7592931985855103,-0.09680545330047607
1733513597455836200,8.416836181640624,0.434342622756958,1.4315342903137207,0.22003814578056335
1733513597465910800,8.426910888671875,0.14266228675842285,1.2290626764297485,0.1684197038412094
1733513597475987000,8.436987060546874,-0.09623512625694275,1.1870112419128418,-0.06157105043530464
1733513597486063000,8.44706298828125,-0.21351835131645203,1.076722264289856,-0.253037691116333
1733513597496138000,8.457137939453125,-0.23798392713069916,0.6564089059829712,-0.48064306378364563
1733513597506214000,8.4672138671875,-0.232822984457016,0.036099594086408615,-0.7115396857261658
1733513597516290000,8.4772900390625,-0.2049998790025711,-0.5202249884605408,-0.8296812176704407
1733513597526365000,8.487364990234376,-0.11878297477960587,-1.0126063823699951,-0.835473895072937
1733513597536441000,8.497441162109375,0.07952880859375,-1.5600862503051758,-0.8092635273933411
1733513597546517200,8.507517333984374,0.36622607707977295,-2.082815170288086,-0.8284175395965576
1733513597556591900,8.517591796875,0.6834988594055176,-2.564539909362793,-0.8288633227348328
1733513597566668000,8.52766796875,0.9783260226249695,-2.986769199371338,-0.7251089811325073
1733513597576744200,8.537744140625,1.1058886051177979,-3.126652956008911,-0.6339940428733826
1733513597586818800,8.54781884765625,1.0697542428970337,-2.6441352367401123,-0.8342094421386719
1733513597596895000,8.55789501953125,0.9664299488067627,-1.5903264284133911,-1.2779159545898438
1733513597606971100,8.56797119140625,0.7604613304138184,-0.6072572469711304,-1.535094141960144
1733513597617046000,8.5780458984375,0.5195697546005249,-0.14292730391025543,-1.4171137809753418
1733513597627122000,8.588121826171875,0.34321922063827515,-0.25234273076057434,-0.9812497496604919
1733513597637197000,8.598197021484374,0.239155575633049,-0.6687764525413513,-0.3767394721508026
1733513597647273000,8.60827294921875,0.22260135412216187,-0.979027271270752,0.1948947310447693
1733513597657349000,8.61834912109375,0.31468966603279114,-0.7763299345970154,0.5426262617111206
1733513597667424000,8.628424072265625,0.5042310953140259,0.1359206885099411,0.5801911950111389
1733513597677500000,8.6385,0.7524728775024414,1.4966216087341309,0.3308120667934418
1733513597687576000,8.648576171875,1.0758123397827148,2.521935224533081,0.021504271775484085
1733513597697651000,8.65865087890625,1.3939231634140015,3.0951595306396484,-0.2621501386165619
1733513597707726800,8.668726806640626,1.6074676513671875,3.413022041320801,-0.4835107624530792
1733513597717803000,8.678802978515625,1.6619170904159546,3.4359023571014404,-0.6110747456550598
1733513597727878100,8.688878173828124,1.5452953577041626,3.2475333213806152,-0.7352281212806702
1733513597737954000,8.6989541015625,1.2072619199752808,3.1641042232513428,-0.9821338653564453
1733513597748030000,8.709030029296875,0.7073668241500854,2.903496742248535,-1.2476696968078613
1733513597758105000,8.71910498046875,0.23800881206989288,2.34190034866333,-1.3753761053085327
1733513597768181000,8.729180908203125,0.009421169757843018,1.593557596206665,-1.45461905002594
1733513597778257200,8.739257080078126,0.1859002411365509,0.1537095308303833,-1.974939227104187
1733513597788332000,8.74933203125,0.4102710485458374,-1.6537901163101196,-2.7206783294677734
1733513597798408000,8.759407958984376,0.4222649931907654,-2.8891918659210205,-3.0876760482788086
1733513597808484000,8.769484130859375,0.1797429323196411,-3.318058490753174,-3.005074977874756
1733513597818559000,8.77955908203125,-0.1066107451915741,-3.287745714187622,-2.644066333770752
1733513597828635000,8.789634765625,-0.2912159860134125,-3.015552282333374,-2.2029483318328857
1733513597838711000,8.7997109375,-0.36037662625312805,-2.8439228534698486,-1.8578890562057495
1733513597848786200,8.8097861328125,-0.3534255027770996,-2.904348611831665,-1.6696429252624512
1733513597858861800,8.81986181640625,-0.31594330072402954,-3.039429187774658,-1.58268404006958
1733513597868938000,8.82993798828125,-0.32896536588668823,-3.024928331375122,-1.4894318580627441
1733513597879013000,8.84001318359375,-0.3507523536682129,-2.7580487728118896,-1.2904068231582642
1733513597889089000,8.850089111328124,-0.3197430372238159,-2.2289702892303467,-0.9965150356292725
1733513597899165000,8.8601650390625,-0.24315522611141205,-1.5454212427139282,-0.6834496855735779
1733513597909240000,8.870239990234374,-0.17674851417541504,-0.8449941277503967,-0.46653813123703003
1733513597919316000,8.88031591796875,-0.1622905731201172,-0.20057718455791473,-0.3629000186920166
1733513597929392000,8.89039208984375,-0.20998220145702362,0.23797646164894104,-0.35767489671707153
1733513597939467000,8.900467041015625,-0.24686235189437866,0.4728247821331024,-0.4096013307571411
1733513597949543000,8.91054296875,-0.269997239112854,0.5730603337287903,-0.4260096251964569
1733513597959619000,8.920619140625,-0.27286115288734436,0.5959039926528931,-0.38046684861183167
1733513597969694200,8.930694091796875,-0.2652152180671692,0.5779350996017456,-0.29188719391822815
1733513597979769900,8.940769775390624,-0.2564915418624878,0.5133150815963745,-0.17609593272209167
1733513597989845000,8.950844970703125,-0.25996989011764526,0.4095650017261505,-0.06408045440912247
1733513597999921200,8.960921142578124,-0.27801740169525146,0.23570987582206726,0.0012231417931616306
1733513598009997000,8.9709970703125,-0.29648083448410034,-0.0003897387068718672,-0.021034492179751396
1733513598020072000,8.981072021484374,-0.3011355400085449,-0.28270936012268066,-0.143317312002182
1733513598030148000,8.991148193359376,-0.2837887704372406,-0.5851139426231384,-0.3608506917953491
1733513598040224000,9.00122412109375,-0.23440346121788025,-0.8458065390586853,-0.6130712628364563
1733513598050299000,9.011298828125,-0.16404834389686584,-1.070173978805542,-0.8459319472312927
1733513598060375000,9.021375,-0.09329070895910263,-1.261546015739441,-1.0330625772476196
1733513598070451000,9.031450927734374,-0.022856488823890686,-1.380109429359436,-1.168341875076294
1733513598080526000,9.041526123046875,0.08035407960414886,-1.4085451364517212,-1.2524335384368896
1733513598090602000,9.05160205078125,0.18991146981716156,-1.3767986297607422,-1.2765226364135742
1733513598100678000,9.061677978515625,0.30533239245414734,-1.2661895751953125,-1.2194100618362427
1733513598110753000,9.0717529296875,0.39971721172332764,-1.0972740650177002,-1.077066421508789
1733513598120829200,9.0818291015625,0.4595412313938141,-0.830512523651123,-0.8919423222541809
1733513598130904800,9.09190478515625,0.5256137251853943,-0.4795430898666382,-0.7382185459136963
1733513598140980000,9.10197998046875,0.573830783367157,-0.07936207205057144,-0.7066640853881836
1733513598151056100,9.11205615234375,0.5981470346450806,0.3031251132488251,-0.8185616135597229
1733513598161132000,9.122132080078124,0.5770235657691956,0.6279439926147461,-1.0087302923202515
1733513598171207000,9.13220703125,0.46264904737472534,0.9189169406890869,-1.1414833068847656
1733513598181283000,9.142282958984374,0.24999238550662994,1.0334463119506836,-1.3340370655059814
1733513598191359000,9.15235888671875,-0.1270638108253479,0.5429540276527405,-1.4988552331924438
1733513598201434000,9.16243408203125,-0.6449407339096069,-0.41983896493911743,-0.6975774765014648
1733513598211510000,9.172510009765626,-1.1104450225830078,-0.9636614918708801,1.239404559135437
1733513598221586000,9.1825859375,-1.5060292482376099,-0.5012761950492859,3.1996054649353027
1733513598231661000,9.1926611328125,-1.7765229940414429,0.3840073049068451,4.4787821769714355
1733513598241737200,9.2027373046875,-1.8529309034347534,1.1388832330703735,5.141198635101318
1733513598251812900,9.212812744140624,-1.7033562660217285,1.6528279781341553,5.507268905639648
1733513598261888000,9.222887939453125,-1.3324140310287476,1.9407023191452026,5.763269424438477
1733513598271964200,9.232964111328124,-0.7957326769828796,2.161846160888672,5.904758930206299
1733513598282038300,9.243038330078125,-0.3382393717765808,2.3820879459381104,5.912757396697998
1733513598292114200,9.2531142578125,-0.05263104662299156,2.6232757568359375,5.674962043762207
1733513598302190300,9.2631904296875,0.01658901758491993,2.5098044872283936,5.129642486572266
1733513598312265200,9.27326513671875,-0.11993899941444397,1.846123218536377,4.1842498779296875
1733513598322341000,9.283341064453126,-0.3353995382785797,0.8434171080589294,3.060225009918213
1733513598332417300,9.293417236328125,-0.43771231174468994,0.0011926805600523949,2.0504136085510254
1733513598342492400,9.303492431640626,-0.4036906659603119,-0.27281898260116577,1.2836476564407349
1733513598352568000,9.313568115234375,-0.4498336613178253,-0.14923658967018127,0.8292379975318909
1733513598362644200,9.323644287109374,-0.5242050886154175,0.01750830188393593,0.6348615884780884
1733513598372719400,9.33371923828125,-0.5596008896827698,0.14225156605243683,0.5920198559761047
1733513598382795300,9.343795166015624,-0.5424777865409851,0.19107766449451447,0.5885790586471558
1733513598392871200,9.35387109375,-0.4706941843032837,0.15678147971630096,0.5059510469436646
1733513598402946300,9.3639462890625,-0.3487996459007263,0.024317044764757156,0.2851686477661133
1733513598413022200,9.374022216796876,-0.20824092626571655,-0.21568995714187622,-0.022368675097823143
1733513598423098400,9.384098388671875,-0.07725320756435394,-0.46165624260902405,-0.27291446924209595
1733513598433173200,9.39417333984375,0.02992650493979454,-0.582076907157898,-0.4271162748336792
1733513598443249200,9.404249267578125,0.05698993057012558,-0.4222133755683899,-0.47522059082984924
1733513598453325300,9.4143251953125,-0.007360830903053284,-0.04728318005800247,-0.3636123239994049
1733513598463400200,9.424400146484375,-0.14900816977024078,0.3035135269165039,-0.09188112616539001
1733513598473476000,9.43447607421875,-0.369055837392807,0.5677454471588135,0.33791258931159973
1733513598483552300,9.44455224609375,-0.5975688695907593,1.030799150466919,0.7872079014778137
1733513598493627400,9.45462744140625,-0.7798281908035278,1.5904781818389893,1.122955560684204
1733513598503703000,9.464703125,-0.890363335609436,2.0092430114746094,1.3201656341552734
1733513598513779200,9.474779296875,-0.9408382177352905,2.2065508365631104,1.3815757036209106
1733513598523854300,9.484854248046876,-0.938019335269928,2.19228196144104,1.3239935636520386
1733513598533930200,9.49493017578125,-0.9051064252853394,2.0508246421813965,1.167415976524353
1733513598544006400,9.50500634765625,-0.8586172461509705,1.7970702648162842,0.93526691198349
1733513598554081300,9.515081298828125,-0.8203417658805847,1.5099050998687744,0.6630181074142456
1733513598564157200,9.5251572265625,-0.804125189781189,1.1723884344100952,0.3703497648239136
1733513598574233300,9.5352333984375,-0.8197781443595886,0.7672374844551086,0.060726918280124664
1733513598584308200,9.54530810546875,-0.8758864998817444,0.34455204010009766,-0.2564060389995575
1733513598594384100,9.555384033203126,-0.9529873728752136,-0.040928252041339874,-0.5835442543029785
1733513598604459300,9.565459228515625,-1.0268217325210571,-0.3421825170516968,-0.8959104418754578
1733513598614535400,9.575535400390624,-1.05311918258667,-0.49984830617904663,-1.2030202150344849
1733513598624611000,9.585611083984375,-0.9861690998077393,-0.2408527284860611,-1.3739628791809082
1733513598634686200,9.595686279296874,-0.6555954217910767,0.7142766714096069,-0.9343444108963013
1733513598644762400,9.605762451171875,-0.20043379068374634,1.4250856637954712,-0.2719336748123169
1733513598654838300,9.61583837890625,0.11901132017374039,1.3270169496536255,0.08388593792915344
1733513598664913200,9.6259130859375,0.26725006103515625,0.8212724328041077,0.17034760117530823
1733513598674989300,9.6359892578125,0.31050220131874084,0.25786712765693665,0.17174814641475677
1733513598685065200,9.646065185546876,0.22936804592609406,-0.18760302662849426,0.1952434927225113
1733513598695140000,9.65614013671875,0.022065456956624985,-0.38696834444999695,0.23339779675006866
1733513598705216300,9.66621630859375,-0.24239447712898254,-0.2581374943256378,0.21995195746421814
1733513598715292200,9.676292236328125,-0.48684629797935486,0.09369032084941864,0.1699676215648651
1733513598725367300,9.6863671875,-0.6352108716964722,0.3495800197124481,0.12233603000640869
1733513598735443200,9.696443115234375,-0.6802092790603638,0.2246985286474228,0.09239517897367477
1733513598745519000,9.70651904296875,-0.612419843673706,-0.19524921476840973,0.000882037915289402
1733513598755594200,9.71659423828125,-0.4094022810459137,-0.5961476564407349,-0.2622324228286743
1733513598765670400,9.72667041015625,-0.1436353623867035,-0.9142029881477356,-0.5664469599723816
1733513598775746300,9.736746337890626,0.06594396382570267,-0.9723296761512756,-0.8477505445480347
1733513598785821200,9.7468212890625,0.20999497175216675,-0.6253998279571533,-1.1252819299697876
1733513598795897300,9.7568974609375,0.279872328042984,-0.005301381926983595,-1.3330968618392944
1733513598805973200,9.76697314453125,0.32216623425483704,0.5835409164428711,-1.4318668842315674
1733513598816048000,9.777048095703124,0.42293065786361694,0.8644620776176453,-1.4452232122421265
1733513598826124300,9.787124267578125,0.6324018239974976,0.6835330724716187,-1.4126287698745728
1733513598836200200,9.7972001953125,0.9155020117759705,0.10321512818336487,-1.357985258102417
1733513598846275300,9.807275390625,1.1306614875793457,-0.7825751304626465,-1.2103310823440552
1733513598856351200,9.817351318359375,1.1981542110443115,-1.857401728630066,-0.8803198933601379
1733513598866427100,9.82742724609375,1.0081290006637573,-2.793381929397583,-0.7397527694702148
1733513598876502300,9.837502197265625,0.6235770583152771,-2.7154645919799805,-1.3937695026397705
1733513598886578400,9.847578369140624,0.29859256744384766,-1.735046625137329,-2.2443809509277344
1733513598896654000,9.857654052734375,0.07469023764133453,-0.9149560332298279,-2.572239875793457
1733513598906729200,9.867729248046874,-0.06866432726383209,-0.6125499606132507,-2.5171918869018555
1733513598916805400,9.877805419921875,-0.13165047764778137,-0.6935324668884277,-2.265742540359497
1733513598926880000,9.8878798828125,-0.16760875284671783,-1.0120124816894531,-1.7940425872802734
1733513598936956200,9.8979560546875,-0.21422739326953888,-1.4801101684570312,-1.070725440979004
1733513598947032300,9.9080322265625,-0.20309710502624512,-2.026259660720825,-0.22066161036491394
1733513598957107200,9.918107177734376,-0.09654215723276138,-2.5708796977996826,0.5677635073661804
1733513598967183000,9.92818310546875,0.06385786831378937,-3.043548822402954,1.1942414045333862
1733513598977259300,9.93825927734375,0.2783352732658386,-3.3051233291625977,1.6341158151626587
1733513598987334100,9.948334228515625,0.5383110642433167,-3.05444598197937,1.885040283203125
1733513598997410300,9.958410400390624,0.8202221393585205,-2.533210039138794,1.9789342880249023
1733513599007486500,9.968486572265626,1.0698845386505127,-1.8246386051177979,1.9213666915893555
1733513599017561000,9.97856103515625,1.2606244087219238,-0.7331774234771729,1.634331226348877
1733513599027637200,9.98863720703125,1.3624969720840454,0.7469626665115356,1.084301471710205
1733513599037713400,9.99871337890625,1.2779117822647095,2.508230447769165,0.29869022965431213
1733513599047788000,10.0087880859375,0.9604559540748596,4.102592468261719,-0.5283957719802856
1733513599057864200,10.0188642578125,0.581231415271759,5.275812149047852,-1.1927298307418823
1733513599067940400,10.0289404296875,0.3615714907646179,5.881168842315674,-1.5429998636245728
1733513599078015200,10.03901513671875,0.3257673978805542,5.906149387359619,-1.6461483240127563
1733513599088091100,10.049091064453124,0.40962329506874084,5.4165825843811035,-1.5897387266159058
1733513599098167300,10.059167236328125,0.5286708474159241,4.606610298156738,-1.4835273027420044
1733513599108242200,10.0692421875,0.5406167507171631,3.6902220249176025,-1.408359169960022
1733513599118318300,10.079318359375,0.44637683033943176,2.6880693435668945,-1.3679558038711548
1733513599128394200,10.089394287109375,0.3092385232448578,1.473436951637268,-1.4236934185028076
1733513599138469000,10.09946923828125,0.18043792247772217,0.017977606505155563,-1.6585125923156738
1733513599148545300,10.109545166015625,0.0240238718688488,-1.475785732269287,-1.9643956422805786
1733513599158621200,10.11962109375,-0.1264585703611374,-2.740293025970459,-2.1586852073669434
1733513599168696000,10.129696044921875,-0.2744637727737427,-3.5643985271453857,-2.1572351455688477
1733513599178772200,10.139772216796874,-0.38037019968032837,-3.9549548625946045,-1.975098967552185
1733513599188848400,10.149848388671876,-0.4550655782222748,-3.969252347946167,-1.6861572265625
1733513599198923300,10.15992333984375,-0.4736989140510559,-3.7328193187713623,-1.3615168333053589
1733513599208999200,10.169999267578126,-0.44643014669418335,-3.2971932888031006,-1.0492146015167236
1733513599219074300,10.18007421875,-0.38230815529823303,-2.799665927886963,-0.8135561347007751
1733513599229150200,10.190150146484376,-0.3315635919570923,-2.3408052921295166,-0.6900824904441833
1733513599239226400,10.200226318359375,-0.31767919659614563,-2.034475564956665,-0.6949137449264526
1733513599249301200,10.21030126953125,-0.34339046478271484,-1.9175734519958496,-0.8245436549186707
1733513599259377200,10.220377197265625,-0.3694380223751068,-1.9412033557891846,-1.0113966464996338
1733513599269453300,10.230453369140625,-0.3460170030593872,-1.9908075332641602,-1.1616193056106567
1733513599279528400,10.240528564453125,-0.2756885290145874,-1.9702575206756592,-1.2027981281280518
1733513599289604400,10.250604248046875,-0.20606489479541779,-1.8384085893630981,-1.150060772895813
1733513599299680500,10.260680419921876,-0.1700078248977661,-1.6408332586288452,-1.0535409450531006
1733513599309755600,10.270755615234375,-0.15510787069797516,-1.4610893726348877,-0.9728153944015503
1733513599319831300,10.280831298828126,-0.15895827114582062,-1.3483351469039917,-0.9645710587501526
1733513599329907500,10.290907470703125,-0.16395586729049683,-1.2626200914382935,-1.0528028011322021
1733513599339982600,10.300982666015624,-0.14883098006248474,-1.169180154800415,-1.168757677078247
1733513599350058500,10.31105859375,-0.10821475088596344,-1.0205202102661133,-1.2335261106491089
1733513599360134400,10.321134521484375,-0.04637748375535011,-0.8318617343902588,-1.2038753032684326
1733513599370209500,10.33120947265625,0.030644413083791733,-0.676408052444458,-1.081270456314087
1733513599380285400,10.341285400390625,0.11411986500024796,-0.5303983688354492,-0.8674269318580627
1733513599390361600,10.351361572265626,0.1723695993423462,-0.3392755389213562,-0.6057159900665283
1733513599400436500,10.3614365234375,0.19763074815273285,-0.12863869965076447,-0.31842079758644104
1733513599410512400,10.371512451171874,0.20928217470645905,0.08269579708576202,-0.02353098802268505
1733513599420588500,10.381588623046875,0.22065919637680054,0.2867828607559204,0.26519906520843506
1733513599430663700,10.39166357421875,0.20290499925613403,0.48263460397720337,0.5346798300743103
1733513599440739300,10.4017392578125,0.13798725605010986,0.6193476915359497,0.7594980597496033
1733513599450815500,10.4118154296875,0.039334796369075775,0.6335763335227966,0.8691716194152832
1733513599460890600,10.421890625,-0.07380986958742142,0.474467396736145,0.8112620115280151
1733513599470966500,10.431966552734375,-0.16096918284893036,0.18314969539642334,0.5823689699172974
1733513599481042400,10.44204248046875,-0.17831434309482574,-0.13187961280345917,0.2828347682952881
1733513599491117600,10.45211767578125,-0.14184194803237915,-0.37311267852783203,0.02214658074080944
1733513599501193500,10.462193359375,-0.0800081342458725,-0.5154138803482056,-0.16668671369552612
1733513599511269600,10.47226953125,-0.024768520146608353,-0.6116644740104675,-0.32432821393013
1733513599521344500,10.482344482421874,-0.006214543245732784,-0.6856518387794495,-0.4829151928424835
1733513599531420400,10.49242041015625,-0.05813341215252876,-0.6882448196411133,-0.6377665996551514
1733513599541495600,10.50249560546875,-0.18531586229801178,-0.6013067364692688,-0.7911087274551392
1733513599551571500,10.512571533203126,-0.37788280844688416,-0.5187474489212036,-1.0963143110275269
1733513599561647400,10.5226474609375,-0.5593529939651489,-0.8137279152870178,-1.417962670326233
1733513599571722500,10.532722412109376,-0.6192688941955566,-0.8278092741966248,-0.370561808347702
1733513599581798700,10.542798583984375,-0.6037871837615967,0.05082295462489128,1.7268003225326538
1733513599591874600,10.55287451171875,-0.6229047775268555,1.334924340248108,3.5138368606567383
1733513599601949400,10.562949462890625,-0.6037907600402832,2.2746193408966064,4.6054463386535645
1733513599612025600,10.573025634765624,-0.48054832220077515,2.670546770095825,5.128378868103027
1733513599622101500,10.5831015625,-0.276917964220047,2.725273370742798,5.310888767242432
1733513599632176400,10.59317626953125,-0.07628105580806732,2.617474317550659,5.361513137817383
1733513599642252500,10.60325244140625,0.042851194739341736,2.480902910232544,5.374565601348877
1733513599652328400,10.613328369140625,0.09371913969516754,2.0897693634033203,5.399343013763428
1733513599662403600,10.623403564453126,0.07191983610391617,1.3904023170471191,5.307329177856445
1733513599672479500,10.6334794921875,-0.022756854072213173,0.20221564173698425,4.834433555603027
1733513599682555400,10.643555419921874,-0.16676382720470428,-0.7532333135604858,3.871476888656616
1733513599692630500,10.653630615234375,-0.19257715344429016,-1.0554028749465942,2.7845051288604736
1733513599702706700,10.663706787109374,-0.13151167333126068,-1.0310547351837158,1.8449643850326538
1733513599712782300,10.6737822265625,-0.22936300933361053,-0.5235635638237,1.0557060241699219
1733513599722857500,10.683857421875,-0.3853107988834381,0.1531192660331726,0.5228056311607361
1733513599732933600,10.69393359375,-0.4629974067211151,0.5981932878494263,0.25163429975509644
1733513599743009500,10.704009521484375,-0.4839301109313965,0.770581066608429,0.15639512240886688
1733513599753084400,10.71408447265625,-0.4508918225765228,0.7348921298980713,0.11955419927835464
1733513599763160600,10.72416064453125,-0.38020727038383484,0.5501816868782043,0.050598304718732834
1733513599773236500,10.734236572265624,-0.29192081093788147,0.2427586317062378,-0.031001215800642967
1733513599783311400,10.744311279296875,-0.20945124328136444,-0.002247125841677189,-0.06583429872989655
1733513599793387500,10.754387451171874,-0.1238798052072525,-0.10605787485837936,-0.004975945223122835
1733513599803463400,10.76446337890625,-0.06194453686475754,-0.005107826087623835,0.1691495031118393
1733513599813538600,10.77453857421875,-0.05503224581480026,0.21001501381397247,0.46057847142219543
1733513599823614700,10.78461474609375,-0.1437237560749054,0.4526873230934143,0.8265343904495239
1733513599833689300,10.794689453125,-0.29051846265792847,0.7949846386909485,1.162837028503418
1733513599843765500,10.804765625,-0.4461948573589325,1.2699365615844727,1.4082322120666504
1733513599853841700,10.814841552734375,-0.5514622926712036,1.6276288032531738,1.5151898860931396
1733513599863916300,10.824916259765626,-0.575707197189331,1.6989645957946777,1.471154808998108
1733513599873992400,10.834992431640625,-0.5614904761314392,1.577637791633606,1.3240269422531128
1733513599884068600,10.845068603515625,-0.540363609790802,1.2721343040466309,1.1108232736587524
1733513599894143500,10.8551435546875,-0.5413244366645813,0.9077671766281128,0.8473412990570068
1733513599904219400,10.865219482421875,-0.5669600367546082,0.5987629890441895,0.5529453754425049
1733513599914295600,10.875295654296876,-0.6200901865959167,0.34107714891433716,0.269938588142395
1733513599924370400,10.885370361328125,-0.6836830377578735,0.10949452221393585,0.016113784164190292
1733513599934446600,10.895446533203126,-0.7615809440612793,-0.11902426183223724,-0.2030494064092636
1733513599944522500,10.9055224609375,-0.823986828327179,-0.3345959782600403,-0.3901937007904053
1733513599954597400,10.915597412109374,-0.8550289869308472,-0.5268864631652832,-0.5635488033294678
1733513599964673500,10.925673583984375,-0.8060609102249146,-0.6418247818946838,-0.7024151086807251
1733513599974749400,10.93574951171875,-0.6685554385185242,-0.6071811318397522,-0.7082931399345398
1733513599984824300,10.94582421875,-0.4899135231971741,-0.46542876958847046,-0.5430096387863159
1733513599994900500,10.955900390625,-0.3155406415462494,-0.2074783742427826,-0.3396626114845276
1733513600004976400,10.965976318359376,-0.17115148901939392,-0.02234155498445034,-0.17296072840690613
1733513600015051300,10.97605126953125,-0.06040048599243164,0.09997477382421494,-0.0773138552904129
1733513600025127400,10.98612744140625,0.04262975603342056,0.22076325118541718,-0.026309790089726448
1733513600035203600,10.99620361328125,0.1529139280319214,0.32570481300354004,0.03062169998884201
1733513600045278500,11.006278564453124,0.25719931721687317,0.3857588469982147,0.06965804845094681
1733513600055354600,11.016354736328125,0.3071005642414093,0.4014452397823334,0.05003506317734718
1733513600065430500,11.026430419921875,0.2610268294811249,0.40001538395881653,-0.023776844143867493
1733513600075505400,11.03650537109375,0.14569419622421265,0.42810994386672974,-0.11746595799922943
1733513600085581600,11.04658154296875,-0.04005090892314911,0.5453193783760071,-0.15993031859397888
1733513600095656400,11.056656494140626,-0.24069984257221222,0.6445257067680359,-0.12836706638336182
1733513600105732400,11.066732421875,-0.36569157242774963,0.5638923645019531,-0.09555212408304214
1733513600115808500,11.07680859375,-0.3583315312862396,0.1963420957326889,-0.23090128600597382
1733513600125883600,11.086883544921875,-0.2797706723213196,-0.32722926139831543,-0.5639753341674805
1733513600135959300,11.096959228515624,-0.21718353033065796,-0.7411548495292664,-0.9571104645729065
1733513600146035500,11.107035400390625,-0.16214583814144135,-0.8289302587509155,-1.303460955619812
1733513600156110600,11.117110595703124,-0.09352652728557587,-0.6294124722480774,-1.5289984941482544
1733513600166186500,11.1271865234375,0.012529869563877583,-0.3670159876346588,-1.6300559043884277
1733513600176262400,11.137262451171875,0.18979273736476898,-0.24216604232788086,-1.672387957572937
1733513600186337500,11.147337646484376,0.4668770730495453,-0.37342366576194763,-1.7029402256011963
1733513600196413400,11.157413330078125,0.8128781318664551,-0.8824641704559326,-1.6444013118743896
1733513600206489600,11.167489501953124,1.1936312913894653,-1.7141855955123901,-1.4316275119781494
1733513600216564500,11.177564453125,1.4557299613952637,-2.478360414505005,-1.1303715705871582
1733513600226640400,11.187640380859374,1.2560765743255615,-2.319735527038574,-1.0787912607192993
1733513600236716500,11.197716552734375,0.797849178314209,-1.1847478151321411,-1.3855313062667847
1733513600246791400,11.20779150390625,0.38518548011779785,-0.015477326698601246,-1.7997820377349854
1733513600256867300,11.217867431640625,0.1466018408536911,0.5763095021247864,-2.0678887367248535
1733513600266943500,11.227943603515625,0.10279443860054016,0.4910303056240082,-2.109555244445801
1733513600277018600,11.2380185546875,0.14219309389591217,0.006965887267142534,-1.9164925813674927
1733513600287094500,11.248094482421875,0.16972938179969788,-0.674669623374939,-1.4968873262405396
1733513600297170700,11.258170654296874,0.11068325489759445,-1.437673807144165,-0.8343158960342407
1733513600307245600,11.26824560546875,0.021994393318891525,-2.1291654109954834,-0.0715535432100296
1733513600317321500,11.278321533203124,-0.03500425070524216,-2.6351161003112793,0.6146646738052368
1733513600327397600,11.288397705078125,-0.0424128994345665,-2.824895143508911,1.1069103479385376
1733513600337472800,11.29847265625,0.04855281859636307,-2.3134546279907227,1.3492692708969116
1733513600347548700,11.308548583984376,0.24820521473884583,-1.4195623397827148,1.3518154621124268
1733513600357623600,11.31862353515625,0.5741336345672607,-0.4210967421531677,1.1354213953018188
1733513600367699700,11.32869970703125,1.0210912227630615,0.45825377106666565,0.8086780905723572
1733513600377775600,11.338775634765625,1.4483121633529663,1.4543639421463013,0.3776828944683075
1733513600387850500,11.3488505859375,1.696243166923523,2.5648891925811768,-0.11090915650129318
1733513600397926700,11.3589267578125,1.6157716512680054,3.4982821941375732,-0.594806432723999
1733513600408002600,11.36900244140625,1.2522914409637451,4.057482719421387,-1.008950114250183
1733513600418077700,11.37907763671875,0.6989083290100098,4.274062633514404,-1.3133478164672852
1733513600428153600,11.389153564453125,0.21474534273147583,3.998056173324585,-1.4825615882873535
1733513600438229500,11.3992294921875,-0.06399331241846085,3.363253116607666,-1.5490977764129639
1733513600448304600,11.4093046875,-0.05491513013839722,2.0747716426849365,-1.8211814165115356
1733513600458380800,11.419380859375,0.1419437974691391,0.07975415885448456,-2.4253242015838623
1733513600468456400,11.42945654296875,0.30055901408195496,-1.8820862770080566,-2.9250876903533936
1733513600478531600,11.439531494140626,0.24555648863315582,-3.2219419479370117,-3.0059120655059814
1733513600488607700,11.449607666015625,0.0703122541308403,-3.957305908203125,-2.7418789863586426
1733513600498683600,11.45968359375,-0.17077825963497162,-4.314172744750977,-2.2816550731658936
1733513600508758500,11.469758544921875,-0.3891609311103821,-4.410308837890625,-1.752943754196167
1733513600518834700,11.479834716796875,-0.49881356954574585,-4.373970985412598,-1.3195184469223022
1733513600528910600,11.48991064453125,-0.5335920453071594,-4.404636859893799,-1.061103343963623
1733513600538985500,11.4999853515625,-0.5084680914878845,-4.423604965209961,-0.9244827628135681
1733513600549061600,11.5100615234375,-0.44500815868377686,-4.273711204528809,-0.8192107081413269
1733513600559137500,11.520137451171875,-0.3656238317489624,-3.883485794067383,-0.7073344588279724
1733513600569212700,11.530212646484374,-0.2903114855289459,-3.2994911670684814,-0.560029923915863
1733513600579288800,11.540288818359375,-0.1755046248435974,-2.5753884315490723,-0.4752558171749115
1733513600589364500,11.550364501953124,-0.04628937691450119,-1.709994912147522,-0.46309342980384827
1733513600599439600,11.560439697265625,0.058348044753074646,-0.8612578511238098,-0.49307477474212646
1733513600609515800,11.570515869140625,0.10404176265001297,-0.07971544563770294,-0.5417104959487915
1733513600619591700,11.580591796875,0.09466143697500229,0.5520136952400208,-0.5654151439666748
1733513600629666600,11.59066650390625,0.06203984469175339,0.9989930987358093,-0.5629684925079346
1733513600639742700,11.60074267578125,0.041404373943805695,1.2678511142730713,-0.5506654977798462
1733513600649817600,11.610817626953125,0.03980354964733124,1.3588573932647705,-0.5356026291847229
1733513600659893500,11.6208935546875,0.030487533658742905,1.2986958026885986,-0.5271481871604919
1733513600669969700,11.6309697265625,-0.0014134079683572054,1.0979682207107544,-0.5262739062309265
1733513600680044500,11.64104443359375,-0.0500975139439106,0.772381067276001,-0.548671543598175
1733513600690120700,11.65112060546875,-0.08840921521186829,0.36389949917793274,-0.5866903066635132
1733513600700196600,11.661196533203125,-0.11115903407335281,-0.08592189103364944,-0.650658905506134
1733513600710271500,11.671271484375,-0.11046314984560013,-0.5527271628379822,-0.7320868968963623
1733513600720347600,11.68134765625,-0.08936291188001633,-1.0479928255081177,-0.8314520716667175
1733513600730423800,11.691423828125,-0.06561816483736038,-1.532951831817627,-0.943336546421051
1733513600740498400,11.70149853515625,-0.030277971178293228,-1.956056833267212,-1.0321295261383057
1733513600750574600,11.71157470703125,0.030264468863606453,-2.267923593521118,-1.056389331817627
1733513600760650800,11.721650634765625,0.11392278969287872,-2.3901329040527344,-0.993303656578064
1733513600770725400,11.731725341796874,0.18782977759838104,-2.3133482933044434,-0.8610625267028809
1733513600780801500,11.741801513671875,0.26464220881462097,-2.0305004119873047,-0.6604223847389221
1733513600790877700,11.751877685546875,0.3401699960231781,-1.5590108633041382,-0.38797545433044434
1733513600800952600,11.76195263671875,0.39144593477249146,-0.9626572132110596,-0.0827004685997963
1733513600811028700,11.77202880859375,0.3943556845188141,-0.31847527623176575,0.12431982159614563
1733513600821104600,11.782104736328124,0.3409951627254486,0.22373437881469727,0.12999327480793
1733513600831179500,11.792179443359375,0.21018654108047485,0.5592588782310486,-0.11155702918767929
1733513600841255700,11.802255615234374,0.04357254505157471,0.659254252910614,-0.4788953363895416
1733513600851331600,11.81233154296875,-0.10128343850374222,0.6248166561126709,-0.8002805709838867
1733513600861406500,11.822406494140624,-0.23984454572200775,0.5960254669189453,-0.896709144115448
1733513600871482600,11.832482666015625,-0.40731823444366455,0.4666280150413513,-0.8839986324310303
1733513600881558800,11.842558837890625,-0.6114450097084045,-0.1302710920572281,-0.8948692083358765
1733513600891633400,11.85263330078125,-0.8370171785354614,-0.8340372443199158,-0.31722554564476013
1733513600901709600,11.86270947265625,-1.0643202066421509,-0.8621243834495544,0.9895740747451782
1733513600911785700,11.87278564453125,-1.255575180053711,-0.11644942313432693,2.5630712509155273
1733513600921860600,11.882860595703125,-1.3911246061325073,0.9716198444366455,3.753004312515259
1733513600931936500,11.8929365234375,-1.4085355997085571,1.9054226875305176,4.356720447540283
1733513600942011600,11.90301171875,-1.2235404253005981,2.4663829803466797,4.638490676879883
1733513600952087600,11.913087646484374,-0.8331689834594727,2.7909069061279297,4.854557991027832
1733513600962163700,11.923163818359376,-0.4627428352832794,3.1429970264434814,5.114046573638916
1733513600972238600,11.933238525390625,-0.21529123187065125,3.4820353984832764,5.4038286209106445
1733513600982314500,11.943314453125,-0.15420478582382202,3.490706205368042,5.5932817459106445
1733513600992390700,11.953390625,-0.21428143978118896,3.1969892978668213,5.503912925720215
1733513601002465800,11.9634658203125,-0.30950474739074707,2.539484739303589,5.037749767303467
1733513601012541400,11.97354150390625,-0.3760875165462494,1.4823940992355347,4.1393537521362305
1733513601022617600,11.98361767578125,-0.3061665892601013,0.24222607910633087,2.9650776386260986
1733513601032692700,11.993692626953125,-0.12998144328594208,-0.6411958932876587,1.8436249494552612
1733513601042768600,12.0037685546875,-0.07627592980861664,-0.7227417826652527,0.9755087494850159
1733513601052844500,12.013844482421876,-0.20421738922595978,-0.3689054250717163,0.4416096806526184
1733513601062919700,12.023919677734375,-0.33124369382858276,-0.06677084416151047,0.19895078241825104
1733513601072995600,12.03399560546875,-0.3770045340061188,0.03575393185019493,0.13713589310646057
1733513601083071700,12.04407177734375,-0.3472738265991211,-0.016345249488949776,0.1363869607448578
1733513601093146600,12.054146728515626,-0.26577603816986084,-0.1355603188276291,0.10074374824762344
1733513601103222500,12.064222412109375,-0.16198089718818665,-0.36076223850250244,-0.014495978131890297
1733513601113298700,12.074298583984374,-0.07904686033725739,-0.6554140448570251,-0.18357768654823303
1733513601123373600,12.08437353515625,-0.060805678367614746,-0.8782175183296204,-0.3070499300956726
1733513601133449500,12.094449462890625,-0.09088368713855743,-0.8333805203437805,-0.3231876492500305
1733513601143525600,12.104525634765626,-0.1759175807237625,-0.4915523827075958,-0.2287958562374115
1733513601153600800,12.114600830078125,-0.2946900427341461,0.022203367203474045,0.0235477015376091
1733513601163676400,12.124676513671876,-0.423705130815506,0.4909476041793823,0.5171167850494385
1733513601173752600,12.134752685546875,-0.5697893500328064,1.08684504032135,1.0917513370513916
1733513601183827700,12.14482763671875,-0.6897916793823242,1.7439305782318115,1.5513352155685425
1733513601193903600,12.154903564453125,-0.7570428848266602,2.2459559440612793,1.8321223258972168
1733513601203979500,12.1649794921875,-0.7777400612831116,2.4867262840270996,1.9432047605514526
1733513601214054700,12.1750546875,-0.7989729046821594,2.431967258453369,1.863686442375183
1733513601224130600,12.185130615234375,-0.8163468837738037,2.0890679359436035,1.6224778890609741
1733513601234205700,12.195205810546875,-0.8248756527900696,1.5888185501098633,1.269136905670166
1733513601244281600,12.205281494140625,-0.8196683526039124,1.0403296947479248,0.8496814966201782
1733513601254357500,12.215357421875,-0.8130772709846497,0.53597092628479,0.44376543164253235
1733513601264432600,12.2254326171875,-0.8185192942619324,0.1436893790960312,0.10863956809043884
1733513601274508800,12.2355087890625,-0.8237521648406982,-0.11819363385438919,-0.17212046682834625
1733513601284584000,12.245583984375,-0.8009263873100281,-0.31150373816490173,-0.4146428108215332
1733513601294659000,12.2556591796875,-0.740020215511322,-0.47566473484039307,-0.6138949394226074
1733513601304735200,12.2657353515625,-0.6266793012619019,-0.5859473943710327,-0.770452618598938
1733513601314811000,12.275810791015624,-0.4467569887638092,-0.5233407020568848,-0.8749894499778748
1733513601324886000,12.285885986328125,-0.22649334371089935,-0.3858208954334259,-0.8824345469474792
1733513601334962200,12.295962158203125,-0.037121549248695374,-0.307778000831604,-0.8537797331809998
1733513601345038000,12.3060380859375,0.10066044330596924,-0.18251663446426392,-0.826893150806427
1733513601355113000,12.316113037109375,0.1654530167579651,0.02686907723546028,-0.8105101585388184
1733513601365189000,12.326189208984376,0.16146938502788544,0.26347169280052185,-0.7595932483673096
1733513601375265000,12.33626513671875,0.12607623636722565,0.5169255137443542,-0.6651519536972046
1733513601385340200,12.346340087890624,0.12018434703350067,0.9087747931480408,-0.5826472043991089
1733513601395416000,12.356416015625,0.16619178652763367,1.3971387147903442,-0.5336461067199707
1733513601405492000,12.366491943359375,0.2343876212835312,1.8199597597122192,-0.49056094884872437
1733513601415567000,12.376567138671875,0.2706233561038971,1.921245813369751,-0.4322015047073364
1733513601425643300,12.386643310546875,0.22426360845565796,1.5575166940689087,-0.3879501521587372
1733513601435719000,12.396718994140626,0.10502076148986816,0.908126175403595,-0.4072224199771881
1733513601445794000,12.4067939453125,-0.03950973600149155,0.2064031958580017,-0.5436031222343445
1733513601455870200,12.4168701171875,-0.163085475564003,-0.4365803003311157,-0.7958457469940186
1733513601465945000,12.426945068359375,-0.2337128221988678,-0.9601258635520935,-1.096064567565918
1733513601476021000,12.43702099609375,-0.22529324889183044,-1.253862738609314,-1.358023762702942
1733513601486097200,12.44709716796875,-0.1855994313955307,-1.327244520187378,-1.5293632745742798
1733513601496172300,12.45717236328125,-0.11190551519393921,-1.2633981704711914,-1.6008862257003784
1733513601506248000,12.467248046875,0.013628359884023666,-1.1358994245529175,-1.6019624471664429
1733513601516324000,12.477323974609375,0.19949117302894592,-1.0599104166030884,-1.519757628440857
