time,seconds_elapsed,z,y,x
1733513249683513000,0.03551318359375,0.001928993733599782,0.02876853197813034,-0.03239786624908447
1733513249693532000,0.045531982421875,-0.004925183951854706,0.03189082443714142,-0.04520394280552864
1733513249703551000,0.055551025390625,0.0002348441630601883,0.03518453612923622,-0.05793306976556778
1733513249713570000,0.065570068359375,-0.00034945335937663913,0.022569941356778145,-0.0606636106967926
1733513249723589000,0.075589111328125,-0.005724072456359863,0.02192826382815838,-0.05234341323375702
1733513249733608000,0.08560791015625,-0.007301196455955505,0.02596321888267994,-0.0481710359454155
1733513249743627000,0.095626953125,-0.003434934187680483,0.03983055800199509,-0.050886981189250946
1733513249753646000,0.10564599609375,0.011451870203018188,0.07109207659959793,-0.04755643382668495
1733513249763665000,0.115664794921875,0.031356144696474075,0.08553936332464218,-0.04286465793848038
1733513249773684000,0.12568408203125,0.050552476197481155,0.0836208239197731,-0.04035995528101921
1733513249783703000,0.135703125,0.06837364286184311,0.08253490924835205,-0.04006269574165344
1733513249793723100,0.14572314453125,0.06785086542367935,0.08218071609735489,-0.0422092042863369
1733513249803741000,0.155740966796875,0.05489753559231758,0.07189980149269104,-0.06236990541219711
1733513249813761000,0.165760986328125,0.037958234548568726,0.05502014979720116,-0.07263346016407013
1733513249823780000,0.175780029296875,0.01082482747733593,0.04350309446454048,-0.08167234808206558
1733513249833799200,0.185799072265625,-0.014282390475273132,0.029101252555847168,-0.10320853441953659
1733513249843818000,0.19581787109375,-0.03538013994693756,0.03476801887154579,-0.1297646462917328
1733513249853837000,0.205837158203125,-0.05423345789313316,0.06410273909568787,-0.14721953868865967
1733513249863856000,0.215856201171875,-0.054927341639995575,0.10476810485124588,-0.1433376967906952
1733513249873875200,0.225875244140625,-0.04411756992340088,0.1523990035057068,-0.14197230339050293
1733513249883894000,0.23589404296875,-0.0375325083732605,0.19588206708431244,-0.1343708485364914
1733513249893913000,0.2459130859375,-0.029770459979772568,0.23128347098827362,-0.106716588139534
1733513249903933000,0.255932861328125,-0.014780249446630478,0.2729394733905792,-0.07700787484645844
1733513249913952000,0.265951904296875,0.0018152385018765926,0.2884662449359894,-0.04507550597190857
1733513249923971000,0.27597119140625,0.022508494555950165,0.25960806012153625,-0.031153764575719833
1733513249933990000,0.285989990234375,0.048445820808410645,0.24058428406715393,-0.0363948680460453
1733513249944009000,0.296009033203125,0.05610784888267517,0.17345745861530304,-0.04313180595636368
1733513249954028000,0.306028076171875,0.07119306176900864,0.11950207501649857,-0.05106909200549126
1733513249964046800,0.316046875,0.08571716398000717,0.07997212558984756,-0.05170745030045509
1733513249974066000,0.32606591796875,0.097151979804039,0.05094313621520996,-0.0391748808324337
1733513249984085000,0.3360849609375,0.10442721843719482,0.022210856899619102,-0.028014976531267166
1733513249994104000,0.34610400390625,0.10487329214811325,0.008404495194554329,-0.00902397558093071
1733513250004123000,0.356122802734375,0.09410813450813293,0.0033788068685680628,-0.005725630559027195
1733513250014142000,0.366141845703125,0.09835214912891388,0.00169196049682796,-0.024967500939965248
1733513250024161000,0.3761611328125,0.10623382776975632,0.008658926002681255,-0.0294630229473114
1733513250034180000,0.38618017578125,0.10350329428911209,0.020003993064165115,-0.03612998127937317
1733513250044199000,0.396198974609375,0.09550008922815323,0.015868939459323883,-0.04436422884464264
1733513250054218000,0.406218017578125,0.08487062156200409,0.026331966742873192,-0.049267906695604324
1733513250064237000,0.416237060546875,0.07583428174257278,0.04690186679363251,-0.05011938884854317
1733513250074256100,0.426256103515625,0.0683199092745781,0.07380592077970505,-0.05676344409584999
1733513250084275000,0.43627490234375,0.06253082305192947,0.09553637355566025,-0.05643955245614052
1733513250094294000,0.4462939453125,0.055139753967523575,0.10490643978118896,-0.05555085465312004
1733513250104313000,0.45631298828125,0.04695296660065651,0.11507449299097061,-0.06193288788199425
1733513250114332000,0.466331787109375,0.03927187994122505,0.12858976423740387,-0.07626468688249588
1733513250124351000,0.47635107421875,0.031304195523262024,0.1381697803735733,-0.09346117824316025
1733513250134370000,0.4863701171875,0.015794742852449417,0.14433659613132477,-0.10779031366109848
1733513250144389000,0.49638916015625,0.0005607217317447066,0.16401375830173492,-0.11418095231056213
1733513250154409200,0.5064091796875,-0.01052175648510456,0.21021907031536102,-0.10984691977500916
1733513250164428000,0.516427978515625,-0.01020876131951809,0.24520306289196014,-0.09702557325363159
1733513250174447000,0.526447021484375,0.003702260786667466,0.2715369462966919,-0.08499421179294586
1733513250184466200,0.536466064453125,0.0234210267663002,0.2923600673675537,-0.07950236648321152
1733513250194484200,0.546484130859375,0.046853914856910706,0.303020179271698,-0.08068986982107162
1733513250204503300,0.55650341796875,0.07047143578529358,0.28548604249954224,-0.08391723036766052
1733513250214522000,0.566522216796875,0.08403145521879196,0.24222643673419952,-0.07605184614658356
1733513250224541200,0.576541259765625,0.0899612084031105,0.2169169932603836,-0.06509717553853989
1733513250234560300,0.586560302734375,0.09508433192968369,0.21005722880363464,-0.05754578113555908
1733513250244579000,0.5965791015625,0.09477327764034271,0.21785461902618408,-0.06544014811515808
1733513250254598100,0.60659814453125,0.10051292181015015,0.2234424650669098,-0.0824926346540451
1733513250264617200,0.6166171875,0.09480209648609161,0.21661797165870667,-0.0960487648844719
1733513250274636300,0.62663623046875,0.08361522108316422,0.20741169154644012,-0.09892924129962921
1733513250284655000,0.636655029296875,0.06883063912391663,0.20793083310127258,-0.10727391391992569
1733513250294674200,0.646674072265625,0.0494241863489151,0.21035882830619812,-0.11865919083356857
1733513250304693200,0.656693359375,0.04744485393166542,0.2052168995141983,-0.14899694919586182
1733513250314712300,0.66671240234375,0.06647500395774841,0.1859787553548813,-0.17362959682941437
1733513250324731100,0.676731201171875,0.09696656465530396,0.16589036583900452,-0.18758848309516907
1733513250334750200,0.686750244140625,0.11397963762283325,0.13327063620090485,-0.17794889211654663
1733513250344769300,0.696769287109375,0.12126212567090988,0.07966581732034683,-0.17233990132808685
1733513250354788400,0.706788330078125,0.1415591537952423,0.02116336114704609,-0.17547284066677094
1733513250364807200,0.71680712890625,0.1690567284822464,-0.025262024253606796,-0.1864510476589203
1733513250374826200,0.726826171875,0.18702827394008636,-0.060624539852142334,-0.20353494584560394
1733513250384845300,0.73684521484375,0.1989719420671463,-0.09935098886489868,-0.22207601368427277
1733513250394864000,0.746864013671875,0.202040433883667,-0.10210150480270386,-0.2448311299085617
1733513250404883200,0.75688330078125,0.17968830466270447,-0.0574706606566906,-0.24073395133018494
1733513250414902300,0.76690234375,0.14243653416633606,0.003487764159217477,-0.22785650193691254
1733513250424921300,0.77692138671875,0.11837632209062576,0.053021423518657684,-0.21435898542404175
1733513250434940200,0.786940185546875,0.08091789484024048,0.10447342693805695,-0.24005769193172455
1733513250444959200,0.796959228515625,0.0305139422416687,0.13415227830410004,-0.2680570185184479
1733513250454978300,0.806978271484375,-0.01276029460132122,0.173940971493721,-0.2848123013973236
1733513250464998100,0.816998046875,-0.04951905459165573,0.21449267864227295,-0.29635539650917053
1733513250475017200,0.827017333984375,-0.06744452565908432,0.2009100317955017,-0.28380125761032104
1733513250485036000,0.8370361328125,-0.08953280001878738,0.19211144745349884,-0.31030845642089844
1733513250495055000,0.84705517578125,-0.11949682235717773,0.18864160776138306,-0.34193214774131775
1733513250505074200,0.85707421875,-0.14387571811676025,0.24084867537021637,-0.405647337436676
1733513250515093000,0.867093017578125,-0.18510304391384125,0.31686967611312866,-0.47826534509658813
1733513250525112000,0.877112060546875,-0.24779823422431946,0.45613589882850647,-0.45134595036506653
1733513250535131100,0.887131103515625,-0.261322021484375,0.6560778021812439,-0.39269620180130005
1733513250545150200,0.897150146484375,-0.22258560359477997,0.89445960521698,-0.3738046884536743
1733513250555169000,0.9071689453125,-0.1460982859134674,1.074005365371704,-0.31957659125328064
1733513250565188000,0.91718798828125,-0.032090965658426285,1.2189158201217651,-0.1748107373714447
1733513250575207200,0.927207275390625,0.11179830133914948,1.3565349578857422,-0.02020438387989998
1733513250585226200,0.937226318359375,0.20276540517807007,1.2976268529891968,0.043781399726867676
1733513250595245000,0.9472451171875,0.24572806060314178,0.8687409162521362,-0.034086767584085464
1733513250605264100,0.95726416015625,0.2574673891067505,0.24571381509304047,-0.1675233691930771
1733513250615283200,0.967283203125,0.2280900776386261,-0.3114980161190033,-0.2772762179374695
1733513250625302000,0.977302001953125,0.17978183925151825,-0.5907610654830933,-0.3592865467071533
1733513250635321000,0.987321044921875,0.09268048405647278,-0.6018899083137512,-0.3846188187599182
1733513250645340200,0.997340087890625,0.00720032537356019,-0.5158085823059082,-0.3625815808773041
1733513250655359200,1.007359130859375,-0.02252827398478985,-0.4339233338832855,-0.344321072101593
1733513250665378000,1.0173779296875,0.00006423168815672398,-0.38469764590263367,-0.31737199425697327
1733513250675397000,1.027397216796875,0.042225535959005356,-0.36161789298057556,-0.2730405032634735
1733513250685416200,1.037416259765625,0.0671052634716034,-0.3446752727031708,-0.20884329080581665
1733513250695435300,1.047435302734375,0.06017331779003143,-0.29938873648643494,-0.13824503123760223
1733513250705454000,1.0574541015625,0.040929391980171204,-0.16918563842773438,-0.05731809139251709
1733513250715473200,1.06747314453125,0.01911357417702675,0.051470570266246796,0.05678264796733856
1733513250725492200,1.0774921875,-0.02509678155183792,0.32993021607398987,0.17025890946388245
1733513250735511300,1.08751123046875,-0.07868171483278275,0.5865995287895203,0.20528560876846313
1733513250745530000,1.097530029296875,-0.10466337949037552,0.7254054546356201,0.1637895405292511
1733513250755549200,1.107549072265625,-0.11455515772104263,0.7337003946304321,0.0612032450735569
1733513250765568300,1.117568359375,-0.11573982983827591,0.6764518618583679,-0.06628099083900452
1733513250775587000,1.127587158203125,-0.12048691511154175,0.5960416793823242,-0.17677181959152222
1733513250785606100,1.137606201171875,-0.12470187246799469,0.5317515134811401,-0.2257726490497589
1733513250795625200,1.147625244140625,-0.14148937165737152,0.5448052883148193,-0.23228619992733002
1733513250805644300,1.157644287109375,-0.16038650274276733,0.6365776658058167,-0.23864854872226715
1733513250815664400,1.167664306640625,-0.18803784251213074,0.7858576774597168,-0.26642027497291565
1733513250825683200,1.17768310546875,-0.19920764863491058,1.0130876302719116,-0.3439904451370239
1733513250835702300,1.187702392578125,-0.16195349395275116,1.2220267057418823,-0.5057724118232727
1733513250845721300,1.197721435546875,-0.03831655904650688,1.3238804340362549,-0.6824640035629272
1733513250855740400,1.207740478515625,0.08484718203544617,1.1390615701675415,-0.6729117631912231
1733513250865759200,1.21775927734375,0.1777125895023346,0.8429353833198547,-0.38443565368652344
1733513250875778300,1.2277783203125,0.2149776667356491,0.744364857673645,-0.031123649328947067
1733513250885797400,1.23779736328125,0.24309620261192322,0.9875437617301941,0.24522177875041962
1733513250895816200,1.247816162109375,0.28385135531425476,1.3689446449279785,0.44998636841773987
1733513250905835300,1.257835205078125,0.27494290471076965,1.6530150175094604,0.5938877463340759
1733513250915854300,1.267854248046875,0.18072187900543213,1.6901897192001343,0.6445705890655518
1733513250925873200,1.277873046875,0.043965812772512436,1.4331068992614746,0.6073179244995117
1733513250935892200,1.287892333984375,-0.07489639520645142,0.9735085964202881,0.46761006116867065
1733513250945911300,1.297911376953125,-0.1390943080186844,0.47157788276672363,0.23582828044891357
1733513250955930000,1.30793017578125,-0.15976843237876892,0.03283753618597984,-0.07145736366510391
1733513250965949200,1.31794921875,-0.1499633491039276,-0.26554328203201294,-0.34424543380737305
1733513250975968000,1.327968017578125,-0.11703682690858841,-0.3527272045612335,-0.4916119873523712
1733513250985987000,1.337987060546875,-0.09957447648048401,-0.2638937830924988,-0.5285577178001404
1733513250996006100,1.348006103515625,-0.12455945461988449,-0.1334199458360672,-0.4873911142349243
1733513251006025000,1.35802490234375,-0.17990437150001526,-0.049682050943374634,-0.31041601300239563
1733513251016044000,1.3680439453125,-0.25439244508743286,0.01706662029027939,0.1736750304698944
1733513251026063000,1.37806298828125,-0.409853994846344,0.21985527873039246,0.5602582693099976
1733513251036082200,1.388082275390625,-0.6106302738189697,0.1775781363248825,0.164932519197464
1733513251046101000,1.39810107421875,-0.6662780046463013,-0.35058966279029846,-0.3134687542915344
1733513251056120000,1.4081201171875,-0.7083320021629333,-0.7172975540161133,-0.59555584192276
1733513251066139100,1.41813916015625,-0.772744357585907,-0.612659752368927,-0.7306389212608337
1733513251076158200,1.428158203125,-0.7589300274848938,-0.2763994038105011,-0.9582105875015259
1733513251086177000,1.438177001953125,-0.6512038707733154,-0.23793184757232666,-1.261895775794983
1733513251096196000,1.448196044921875,-0.5909599661827087,-0.976405143737793,-1.5171864032745361
1733513251106215200,1.458215087890625,-0.5925167798995972,-1.7547961473464966,-1.6206176280975342
1733513251116234200,1.468234130859375,-0.5308997631072998,-1.56105375289917,-1.6128853559494019
1733513251126253000,1.478253173828125,-0.4140588045120239,-1.0592466592788696,-1.4765621423721313
1733513251136272100,1.488272216796875,-0.2662794589996338,-0.5982692241668701,-1.2266989946365356
1733513251146292200,1.498292236328125,-0.12479126453399658,-0.18623656034469604,-1.0364567041397095
1733513251156311300,1.508311279296875,-0.041885193437337875,0.13532309234142303,-0.9560638666152954
1733513251166330000,1.518330078125,-0.03584282472729683,0.18491558730602264,-0.9419185519218445
1733513251176349200,1.52834912109375,-0.06286032497882843,-0.07560841739177704,-0.9969855546951294
1733513251186368800,1.53836865234375,-0.05236363038420677,-0.5340702533721924,-1.166664719581604
1733513251196387800,1.548387939453125,0.0028178661596029997,-1.0001585483551025,-1.3864948749542236
1733513251206406700,1.55840673828125,0.07611806690692902,-1.3423441648483276,-1.5606518983840942
1733513251216425700,1.56842578125,0.156927689909935,-1.5052434206008911,-1.6789255142211914
1733513251226444800,1.57844482421875,0.22811532020568848,-1.4833543300628662,-1.7413995265960693
1733513251236463900,1.5884638671875,0.28117427229881287,-1.3723026514053345,-1.7466320991516113
1733513251246482700,1.598482666015625,0.27849528193473816,-1.2441779375076294,-1.7164764404296875
1733513251256501800,1.608501708984375,0.20908159017562866,-1.1595842838287354,-1.6670182943344116
1733513251266520800,1.618520751953125,0.11772909760475159,-1.1376698017120361,-1.628926396369934
1733513251276540000,1.628539794921875,0.07984563708305359,-1.0965572595596313,-1.6159906387329102
1733513251286558700,1.638558837890625,0.13802097737789154,-0.9600583910942078,-1.6092199087142944
1733513251296577800,1.648577880859375,0.30593594908714294,-0.7927061319351196,-1.5155019760131836
1733513251306596900,1.658596923828125,0.2588629424571991,-0.562070369720459,-1.386525273323059
1733513251316615700,1.66861572265625,0.10017421096563339,-0.32974767684936523,-1.2580684423446655
1733513251326634800,1.678634765625,0.05485578253865242,-0.08136986196041107,-1.0754809379577637
1733513251336653800,1.68865380859375,-0.07096792757511139,0.1272488534450531,-0.9789192080497742
1733513251346673000,1.6986728515625,-0.18636229634284973,0.21260526776313782,-0.9837621450424194
1733513251356691700,1.708691650390625,-0.18710771203041077,0.13164463639259338,-0.962283730506897
1733513251366710800,1.718710693359375,-0.13822810351848602,-0.06986071914434433,-0.899852454662323
1733513251376729600,1.7287294921875,-0.01552242785692215,-0.32377874851226807,-0.8122859001159668
1733513251386748700,1.738748779296875,0.1080569177865982,-0.6096805334091187,-0.7334230542182922
1733513251396767700,1.748767822265625,0.20438745617866516,-0.8556545972824097,-0.6544392704963684
1733513251406786600,1.75878662109375,0.24354684352874756,-0.9579458236694336,-0.5707851052284241
1733513251416805600,1.7688056640625,0.20836141705513,-0.8977029919624329,-0.47699102759361267
1733513251426824700,1.77882470703125,0.1699717491865158,-0.7654983997344971,-0.382072389125824
1733513251436843500,1.788843505859375,0.1470850706100464,-0.6633944511413574,-0.29248470067977905
1733513251446862600,1.798862548828125,0.12038088589906693,-0.6238840818405151,-0.222633957862854
1733513251456881700,1.808881591796875,0.08102202415466309,-0.5731471180915833,-0.13570812344551086
1733513251466901800,1.81890185546875,0.07343418151140213,-0.46103718876838684,-0.0005458352970890701
1733513251476920600,1.828920654296875,0.12286032736301422,-0.2429799735546112,0.14368058741092682
1733513251486939600,1.838939697265625,0.18987946212291718,0.10132168233394623,0.21212352812290192
1733513251496958700,1.848958740234375,0.21879181265830994,0.5692763924598694,0.1549430638551712
1733513251506977800,1.858977783203125,0.2584003806114197,1.0062874555587769,0.019976643845438957
1733513251516996600,1.86899658203125,0.3538174331188202,1.2288204431533813,-0.12736673653125763
1733513251527015700,1.879015625,0.4867192506790161,1.1586111783981323,-0.28243592381477356
1733513251537034800,1.88903466796875,0.6078270077705383,0.7723047137260437,-0.5166246891021729
1733513251547053600,1.899053466796875,0.6499093174934387,0.10332801192998886,-0.8476360440254211
1733513251557072600,1.90907275390625,0.5829476118087769,-0.692327618598938,-1.2317626476287842
1733513251567091700,1.919091796875,0.4241306781768799,-1.4647760391235352,-1.5205066204071045
1733513251577110800,1.92911083984375,0.21356572210788727,-2.066723346710205,-1.6667120456695557
1733513251587129600,1.939129638671875,0.02302631177008152,-2.4799692630767822,-1.7306379079818726
1733513251597148700,1.949148681640625,-0.12869183719158173,-3.0356948375701904,-1.410461187362671
1733513251607167700,1.959167724609375,-0.21799395978450775,-3.326925754547119,-0.17133241891860962
1733513251617186800,1.969186767578125,-0.2628410756587982,-2.1860203742980957,1.3267215490341187
1733513251627205600,1.97920556640625,-0.2607901692390442,-0.2342689484357834,2.315948247909546
1733513251637224700,1.989224609375,-0.254677414894104,1.2814675569534302,2.7687835693359375
1733513251647243800,1.999243896484375,-0.1547103077173233,1.824468731880188,2.953493356704712
1733513251657262800,2.009262939453125,-0.025886274874210358,1.54392409324646,3.046729564666748
1733513251667281700,2.01928173828125,0.0497281588613987,0.9065781235694885,3.0442185401916504
1733513251677300700,2.02930078125,0.09440294653177261,0.30138087272644043,3.010399580001831
1733513251687319800,2.03931982421875,0.13801683485507965,-0.18137960135936737,2.946263074874878
1733513251697338600,2.049338623046875,0.174398273229599,-0.6306818127632141,2.800469160079956
1733513251707357700,2.059357666015625,0.18864686787128448,-1.0212743282318115,2.483501672744751
1733513251717376800,2.069376708984375,0.14231958985328674,-1.2952499389648438,1.997360110282898
1733513251727395800,2.079395751953125,0.011044181883335114,-1.3964043855667114,1.451799750328064
1733513251737414700,2.08941455078125,-0.16478197276592255,-1.3578414916992188,0.9135439991950989
1733513251747433700,2.099433837890625,-0.34008949995040894,-1.3889961242675781,0.4685188829898834
1733513251757452800,2.109452880859375,-0.5649990439414978,-1.4897948503494263,0.24121516942977905
1733513251767472600,2.11947265625,-0.6785813570022583,-1.2696683406829834,0.40078452229499817
1733513251777491700,2.12949169921875,-0.5202820301055908,-0.33353763818740845,0.9031453728675842
1733513251787510500,2.139510498046875,-0.2749025821685791,0.835635244846344,1.5199700593948364
1733513251797529600,2.149529541015625,-0.12275618314743042,1.5978574752807617,1.9383970499038696
1733513251807548700,2.159548583984375,-0.14686448872089386,1.7852259874343872,2.0950205326080322
1733513251817567500,2.1695673828125,-0.1652991622686386,1.8057125806808472,1.985734462738037
1733513251827586600,2.179586669921875,-0.01969902589917183,1.9132474660873413,1.7005521059036255
1733513251837605600,2.189605712890625,0.06169862300157547,1.902429461479187,1.5126621723175049
1733513251847624700,2.199624755859375,0.07386539876461029,1.764121651649475,1.3611449003219604
1733513251857643500,2.2096435546875,0.062307003885507584,1.7174973487854004,1.1805870532989502
1733513251867662600,2.21966259765625,0.0019331448711454868,1.6930980682373047,1.0262478590011597
1733513251877681700,2.229681640625,-0.07769377529621124,1.650431513786316,0.8870729207992554
1733513251887700700,2.23970068359375,-0.13025246560573578,1.6883083581924438,0.7739961743354797
1733513251897719600,2.249719482421875,-0.16424664855003357,1.6466703414916992,0.6669333577156067
1733513251907738600,2.259738525390625,-0.19323104619979858,1.4838298559188843,0.5583160519599915
1733513251917757700,2.2697578125,-0.22039662301540375,1.2425587177276611,0.4415726959705353
1733513251927776500,2.279776611328125,-0.2467830628156662,1.0108766555786133,0.3414881229400635
1733513251937795600,2.289795654296875,-0.2607220411300659,0.8162664771080017,0.24454504251480103
1733513251947814700,2.299814697265625,-0.25239330530166626,0.646787703037262,0.13104385137557983
1733513251957833700,2.309833740234375,-0.23021075129508972,0.5221336483955383,-0.007965687662363052
1733513251967852500,2.3198525390625,-0.20752957463264465,0.42103397846221924,-0.17689822614192963
1733513251977871600,2.32987158203125,-0.19983170926570892,0.29896053671836853,-0.34530240297317505
1733513251987890700,2.339890625,-0.18778681755065918,0.13270771503448486,-0.48605644702911377
1733513251997909800,2.34990966796875,-0.14067018032073975,-0.09562985599040985,-0.5447381734848022
1733513252007928600,2.359928466796875,-0.049214817583560944,-0.29298874735832214,-0.5148255228996277
1733513252017947600,2.36994775390625,0.05178236961364746,-0.4008331894874573,-0.4786358177661896
1733513252027966700,2.379966796875,0.1358053982257843,-0.377220094203949,-0.4837971329689026
1733513252037985800,2.38998583984375,0.20870544016361237,-0.26922357082366943,-0.5418742895126343
1733513252048004600,2.400004638671875,0.2666229009628296,-0.12964323163032532,-0.6194731593132019
1733513252058024700,2.410024658203125,0.30001920461654663,-0.029798924922943115,-0.6815913915634155
1733513252068043800,2.420043701171875,0.3121830224990845,-0.06618107110261917,-0.7043517231941223
1733513252078062800,2.430062744140625,0.2764231562614441,-0.10815728455781937,-0.7008065581321716
1733513252088081700,2.44008154296875,0.15356168150901794,-0.07326104491949081,-0.6942119598388672
1733513252098100700,2.450100830078125,-0.03519519791007042,0.000019827857613563538,-0.6813768744468689
1733513252108119800,2.460119873046875,-0.2475322037935257,0.11527827382087708,-0.614108681678772
1733513252118139000,2.470138916015625,-0.4208166301250458,0.25822556018829346,-0.45600131154060364
1733513252128157700,2.48015771484375,-0.5408591628074646,0.36046215891838074,-0.209793359041214
1733513252138176800,2.4901767578125,-0.5601609945297241,0.3613798916339874,0.037197794765233994
1733513252148195800,2.50019580078125,-0.44321030378341675,0.33257871866226196,0.1440736949443817
1733513252158215000,2.51021484375,-0.2658275365829468,0.2779668867588043,0.0997413918375969
1733513252168233700,2.520233642578125,-0.15002092719078064,0.1849600225687027,-0.014463658444583416
1733513252178252800,2.530252685546875,-0.06420855224132538,0.15229475498199463,-0.11985612660646439
1733513252188271400,2.540271240234375,0.009638453833758831,0.15411855280399323,-0.20604121685028076
1733513252198290200,2.550290283203125,0.04943619668483734,0.12999536097049713,-0.2427733987569809
1733513252208309200,2.560309326171875,0.05145696923136711,0.07217050343751907,-0.22078067064285278
1733513252218328300,2.570328369140625,-0.005240665748715401,0.06954516470432281,-0.14853842556476593
1733513252228347400,2.580347412109375,-0.16289955377578735,0.12107977271080017,-0.07271553575992584
1733513252238366200,2.5903662109375,-0.34360992908477783,0.22734202444553375,-0.006761283613741398
1733513252248385300,2.60038525390625,-0.5309125185012817,0.22834700345993042,-0.02791942097246647
1733513252258404400,2.610404296875,-0.6720994710922241,0.04096273332834244,-0.12970171868801117
1733513252268423200,2.620423095703125,-0.7347713708877563,-0.07801860570907593,-0.24725103378295898
1733513252278442200,2.630442138671875,-0.7662829160690308,-0.03963951766490936,-0.22451084852218628
1733513252288461300,2.64046142578125,-0.7601398825645447,0.049541350454092026,-0.016623588278889656
1733513252298480400,2.65048046875,-0.6936798691749573,0.13987523317337036,0.23797328770160675
1733513252308499200,2.660499267578125,-0.6703786253929138,0.17554625868797302,0.2796196937561035
1733513252318519000,2.67051904296875,-0.7374064326286316,0.06657689809799194,-0.10515301674604416
1733513252328538000,2.6805380859375,-0.8065124750137329,-0.07038389891386032,-0.6845996975898743
1733513252338557200,2.69055712890625,-0.8178120255470276,-0.13921676576137543,-1.0618218183517456
1733513252348576300,2.700576171875,-0.7546703815460205,-0.23272961378097534,-1.0832823514938354
1733513252358595000,2.710594970703125,-0.5733312368392944,-0.44728267192840576,-0.9711359739303589
1733513252368614100,2.7206142578125,-0.28763365745544434,-0.8313874006271362,-0.8313912153244019
1733513252378633200,2.73063330078125,0.03073924407362938,-1.2900782823562622,-0.7370260953903198
1733513252388652000,2.740652099609375,0.3061057925224304,-1.5576215982437134,-0.8088567852973938
1733513252398671000,2.750671142578125,0.5638182759284973,-1.666308045387268,-1.094873309135437
1733513252408690200,2.760690185546875,0.8058484196662903,-1.7929223775863647,-1.4641863107681274
1733513252418709200,2.770709228515625,0.8948835134506226,-2.0890865325927734,-1.636523723602295
1733513252428728000,2.78072802734375,0.8247849345207214,-2.162508010864258,-1.6899030208587646
1733513252438747100,2.7907470703125,0.696738600730896,-1.6085261106491089,-1.8826797008514404
1733513252448766200,2.80076611328125,0.5520622134208679,-0.5164822936058044,-2.275838613510132
1733513252458785300,2.810785400390625,0.3452262282371521,0.5810473561286926,-2.6460306644439697
1733513252468804000,2.82080419921875,0.09592969715595245,1.213529109954834,-2.7708442211151123
1733513252478823200,2.8308232421875,-0.18971243500709534,1.1930932998657227,-2.591644763946533
1733513252488842200,2.84084228515625,-0.5802343487739563,-0.20823602378368378,-2.0328290462493896
1733513252498861000,2.850861083984375,-0.7717276215553284,-2.4111785888671875,-1.4767382144927979
1733513252508880100,2.860880126953125,-0.4842173755168915,-3.480731964111328,-1.4437049627304077
1733513252518899200,2.870899169921875,-0.013017643243074417,-3.4344234466552734,-1.7149600982666016
1733513252528918300,2.880918212890625,0.323300302028656,-2.7634899616241455,-1.9479358196258545
1733513252538937000,2.89093701171875,0.37717872858047485,-2.0002810955047607,-1.9549490213394165
1733513252548956200,2.9009560546875,0.11160159111022949,-1.0820798873901367,-1.7692382335662842
1733513252558975200,2.910975341796875,-0.34330999851226807,-0.07934804260730743,-1.544877290725708
1733513252568994300,2.920994384765625,-0.5523428916931152,0.5391256213188171,-1.3001532554626465
1733513252579013000,2.93101318359375,-0.3828752636909485,0.4331706762313843,-1.0689469575881958
1733513252589032200,2.9410322265625,-0.1578020602464676,0.0920327827334404,-0.9027227759361267
1733513252599052300,2.95105224609375,-0.04085467755794525,-0.18180276453495026,-0.7779803276062012
1733513252609071400,2.9610712890625,0.009683252312242985,-0.3119776248931885,-0.6371197700500488
1733513252619090200,2.971090087890625,0.030044984072446823,-0.30689287185668945,-0.5061710476875305
1733513252629109200,2.981109130859375,0.05550527572631836,-0.22291581332683563,-0.42853206396102905
1733513252639128300,2.99112841796875,0.04346432536840439,-0.1402241289615631,-0.41265854239463806
1733513252649147400,3.0011474609375,-0.03271054849028587,-0.10170982033014297,-0.442696750164032
1733513252659166200,3.011166259765625,-0.15005634725093842,-0.11305435746908188,-0.49737146496772766
1733513252669185300,3.021185302734375,-0.2794072926044464,-0.18157728016376495,-0.5525345206260681
1733513252679204400,3.031204345703125,-0.36210429668426514,-0.3311246931552887,-0.5923463702201843
1733513252689223200,3.04122314453125,-0.38278740644454956,-0.5970819592475891,-0.6129724979400635
1733513252699242200,3.0512421875,-0.36961567401885986,-0.9154974818229675,-0.6290542483329773
1733513252709261000,3.061260986328125,-0.3526324927806854,-1.2031725645065308,-0.6620998978614807
1733513252719280000,3.071280029296875,-0.3371414244174957,-1.3970155715942383,-0.7062771916389465
1733513252729299200,3.08129931640625,-0.31214290857315063,-1.3937689065933228,-0.7312051057815552
1733513252739318000,3.091318115234375,-0.25909727811813354,-1.2101045846939087,-0.7208169102668762
1733513252749337000,3.101337158203125,-0.17354491353034973,-0.9245166182518005,-0.6693583130836487
1733513252759356200,3.111356201171875,-0.08420278131961823,-0.591079831123352,-0.5814159512519836
1733513252769375000,3.121375,-0.008138621225953102,-0.3024941086769104,-0.4772166311740875
1733513252779394000,3.13139404296875,0.06820408999919891,-0.10958458483219147,-0.4295569658279419
1733513252789413000,3.1414130859375,0.1368357241153717,0.045750416815280914,-0.5121167898178101
1733513252799432200,3.15143212890625,0.1954023689031601,0.21403130888938904,-0.7168246507644653
1733513252809451000,3.161450927734375,0.22461290657520294,0.33042067289352417,-0.9681328535079956
1733513252819470000,3.171469970703125,0.22016222774982452,0.31986895203590393,-1.1643989086151123
1733513252829489200,3.1814892578125,0.20989033579826355,0.1530223935842514,-1.289207100868225
1733513252839508200,3.19150830078125,0.20789135992527008,-0.14286892116069794,-1.3899286985397339
1733513252849528000,3.201528076171875,0.22110889852046967,-0.5645388960838318,-1.5283656120300293
1733513252859547100,3.211547119140625,0.2537992000579834,-1.0594245195388794,-1.7709077596664429
1733513252869566200,3.221566162109375,0.29981595277786255,-1.4459370374679565,-2.0454275608062744
1733513252879585300,3.231585205078125,0.3070243299007416,-1.7100452184677124,-2.32422137260437
1733513252889604000,3.24160400390625,0.1750471591949463,-1.9729597568511963,-2.466261863708496
1733513252899623200,3.251623046875,-0.06393959373235703,-2.1096227169036865,-2.311145544052124
1733513252909642200,3.261642333984375,-0.29517433047294617,-2.1069562435150146,-1.934162974357605
1733513252919661300,3.271661376953125,-0.47672200202941895,-1.9958704710006714,-1.529739260673523
1733513252929680100,3.28168017578125,-0.6126447916030884,-1.8225183486938477,-1.2295598983764648
1733513252939699200,3.29169921875,-0.6695946455001831,-1.6490328311920166,-0.9044331312179565
1733513252949718300,3.30171826171875,-0.5994808673858643,-1.461790919303894,-0.28520461916923523
1733513252959737300,3.3117373046875,-0.4154319763183594,-1.0676414966583252,0.6737038493156433
1733513252969756200,3.321756103515625,-0.2211645096540451,-0.5122454166412354,1.8227397203445435
1733513252979775200,3.331775146484375,0.008520347997546196,0.0607089027762413,2.747392177581787
1733513252989794300,3.341794189453125,0.21466277539730072,0.47806215286254883,3.27333927154541
1733513252999813000,3.351813232421875,0.2924681007862091,0.659111499786377,3.5215206146240234
1733513253009832200,3.361832275390625,0.25919947028160095,0.6758724451065063,3.650420665740967
1733513253019851300,3.371851318359375,0.2058456838130951,0.639360249042511,3.7033417224884033
1733513253029870300,3.381870361328125,0.15492913126945496,0.5268474817276001,3.7285189628601074
1733513253039889200,3.39188916015625,0.11748002469539642,0.3754039406776428,3.7769253253936768
1733513253049908200,3.401908203125,0.11097794026136398,0.15740817785263062,3.8485047817230225
1733513253059927300,3.41192724609375,0.0330682210624218,-0.03220542147755623,3.885523557662964
1733513253069946400,3.4219462890625,-0.05143275856971741,-0.16185323894023895,3.8405046463012695
1733513253079966200,3.43196630859375,-0.15499642491340637,0.0042180344462394714,3.581735134124756
1733513253089985000,3.441985107421875,-0.306732714176178,1.0168761014938354,3.006922960281372
1733513253100004000,3.452004150390625,-0.4726545512676239,1.8753447532653809,2.374952554702759
1733513253110023200,3.462023193359375,-0.46029019355773926,1.5223705768585205,2.040048837661743
1733513253120042000,3.4720419921875,-0.4454502463340759,0.033269405364990234,2.2282161712646484
1733513253130061000,3.48206103515625,-0.687764585018158,-2.140657663345337,2.5889647006988525
1733513253140080000,3.492080078125,-0.5341164469718933,-3.1475064754486084,1.4440728425979614
1733513253150099200,3.50209912109375,-0.1286645531654358,-2.782167911529541,-0.004942161962389946
1733513253160118000,3.512117919921875,-0.24995023012161255,-2.4874727725982666,-0.39853739738464355
1733513253170137000,3.52213720703125,-0.529066264629364,-1.3751088380813599,0.6612613797187805
1733513253180156200,3.53215625,-0.6871597766876221,1.5931620597839355,2.3329951763153076
1733513253190175700,3.54217578125,-0.5881385207176208,4.067527770996094,3.4799394607543945
1733513253200194600,3.552194580078125,-0.4106268584728241,4.891802787780762,3.729377508163452
1733513253210213600,3.562213623046875,-0.32292887568473816,4.740167617797852,3.4543027877807617
1733513253220232700,3.572232666015625,-0.2997575104236603,4.323675155639648,3.0521397590637207
1733513253230251800,3.582251708984375,-0.2960171401500702,3.9368362426757812,2.6990976333618164
1733513253240270600,3.5922705078125,-0.27808767557144165,3.6510348320007324,2.4170241355895996
1733513253250289700,3.60228955078125,-0.2567943036556244,3.3818583488464355,2.1390819549560547
1733513253260308700,3.612308837890625,-0.2680509388446808,2.911118984222412,1.7687028646469116
1733513253270327800,3.622327880859375,-0.3076375424861908,2.333059072494507,1.320792555809021
1733513253280346600,3.6323466796875,-0.35880404710769653,2.0183866024017334,0.8789520263671875
1733513253290365700,3.64236572265625,-0.40574127435684204,1.9442362785339355,0.522175133228302
1733513253300384800,3.652384765625,-0.45806360244750977,1.9169607162475586,0.2146735042333603
1733513253310404900,3.66240478515625,-0.49893030524253845,1.718331217765808,-0.0932910144329071
1733513253320423700,3.672423583984375,-0.5102136135101318,1.3543596267700195,-0.42728284001350403
1733513253330442800,3.68244287109375,-0.49273237586021423,0.885539174079895,-0.766258716583252
1733513253340461800,3.6924619140625,-0.43990325927734375,0.4828132688999176,-1.0628149509429932
1733513253350481000,3.70248095703125,-0.37361153960227966,0.18096549808979034,-1.3367435932159424
1733513253360499700,3.712499755859375,-0.3379446268081665,-0.008061681874096394,-1.6256440877914429
1733513253370518800,3.722518798828125,-0.36752554774284363,-0.036023080348968506,-1.9048171043395996
1733513253380537900,3.732537841796875,-0.44228020310401917,-0.11307258903980255,-2.1385498046875
1733513253390557000,3.742556884765625,-0.5072413086891174,-0.31271085143089294,-2.2892889976501465
1733513253400575700,3.75257568359375,-0.5214479565620422,-0.6361035704612732,-2.1653025150299072
1733513253410594800,3.7625947265625,-0.48807260394096375,-0.8623610734939575,-1.2170348167419434
1733513253420614000,3.77261376953125,-0.313583642244339,-0.44221359491348267,0.19871605932712555
1733513253430632700,3.7826328125,-0.1251753568649292,0.47067636251449585,0.7596030831336975
1733513253440651800,3.79265185546875,-0.10282771289348602,1.0165681838989258,0.5224014520645142
1733513253450670600,3.802670654296875,-0.19691310822963715,0.9963157773017883,0.16601194441318512
1733513253460689700,3.812689697265625,-0.27865538001060486,0.6729371547698975,-0.10269967466592789
1733513253470708700,3.822708740234375,-0.3111424446105957,0.20996303856372833,-0.1952914148569107
1733513253480727600,3.8327275390625,-0.2709050178527832,-0.37025028467178345,-0.021668218076229095
1733513253490746600,3.84274658203125,-0.059186819940805435,-1.0246812105178833,0.07675186544656754
1733513253500765700,3.852765625,0.23512205481529236,-1.7707793712615967,-0.03926209360361099
1733513253510784500,3.862784423828125,0.5527419447898865,-1.9884004592895508,-0.1708488017320633
1733513253520804600,3.8728046875,0.8752821683883667,-1.871698021888733,-0.06957437843084335
1733513253530823700,3.88282373046875,1.030531644821167,-1.5413646697998047,-0.05637745186686516
1733513253540842800,3.8928427734375,0.9479945302009583,-1.020575761795044,-0.3383350968360901
1733513253550861600,3.902861572265625,0.6607719659805298,-0.8374636173248291,-0.5358533263206482
1733513253560880600,3.912880615234375,0.3164449632167816,-0.8692529797554016,-0.7156524062156677
1733513253570899700,3.922899658203125,0.014198914170265198,-0.5881360173225403,-1.0486427545547485
1733513253580918800,3.932918701171875,-0.11009986698627472,0.41197866201400757,-1.6513416767120361
1733513253590937600,3.9429375,-0.0464603453874588,1.6087487936019897,-2.3113138675689697
1733513253600956700,3.952956787109375,0.036068618297576904,2.3741629123687744,-2.796215772628784
1733513253610975700,3.962975830078125,0.227826789021492,1.9750972986221313,-2.8488385677337646
1733513253620994800,3.972994873046875,0.5643877983093262,0.5874602198600769,-2.541485548019409
1733513253631013600,3.983013671875,0.8761084079742432,-0.9303762912750244,-2.073460817337036
1733513253641032700,3.99303271484375,0.8329265713691711,-1.8192933797836304,-1.7578192949295044
1733513253651051800,4.0030517578125,0.6208491921424866,-2.0636582374572754,-1.6013047695159912
1733513253661070600,4.013070556640625,0.5261365175247192,-1.9383264780044556,-1.4858850240707397
1733513253671089700,4.023089599609375,0.5250380635261536,-1.3845646381378174,-1.4745901823043823
1733513253681108700,4.033108642578125,0.5947422981262207,-0.5579605102539062,-1.5182374715805054
1733513253691127800,4.0431279296875,0.5578417181968689,0.32617485523223877,-1.4785726070404053
1733513253701146600,4.053146728515625,0.09975054860115051,1.0462908744812012,-1.3265092372894287
1733513253711165700,4.063165771484375,-0.45001718401908875,1.481762409210205,-1.1533831357955933
1733513253721184800,4.073184814453125,-0.9074680805206299,0.8991309404373169,-1.0604774951934814
1733513253731204900,4.083204833984375,-0.8216293454170227,-0.6496442556381226,-1.093702793121338
1733513253741224000,4.093223876953125,-0.5054452419281006,-2.0875048637390137,-1.4284682273864746
1733513253751242800,4.10324267578125,-0.3737790584564209,-2.9593214988708496,-1.9921283721923828
1733513253761261800,4.11326171875,-0.3314518332481384,-3.255258560180664,-2.4575984477996826
1733513253771280600,4.12328076171875,-0.3502945005893707,-3.134936571121216,-2.63651967048645
1733513253781299700,4.1332998046875,-0.4339081645011902,-2.8145508766174316,-2.545478582382202
1733513253791318500,4.143318603515625,-0.5315189361572266,-2.4283885955810547,-2.2648658752441406
1733513253801337600,4.153337646484375,-0.567937433719635,-1.9565215110778809,-1.8586875200271606
1733513253811356700,4.163356689453125,-0.5034847855567932,-1.4497311115264893,-1.373427152633667
1733513253821375500,4.17337548828125,-0.36561641097068787,-1.0128743648529053,-0.8781782388687134
1733513253831394600,4.18339453125,-0.21696574985980988,-0.6200129389762878,-0.42628201842308044
1733513253841413600,4.19341357421875,-0.11185956746339798,-0.22266478836536407,-0.049618106335401535
1733513253851432700,4.2034326171875,-0.060043226927518845,0.13299687206745148,0.22978660464286804
1733513253861451500,4.213451416015625,-0.02975057065486908,0.4340709447860718,0.4090093672275543
1733513253871470600,4.223470703125,0.004747810773551464,0.7002891898155212,0.48116546869277954
1733513253881489700,4.23348974609375,0.04970835894346237,0.9567697048187256,0.4492594599723816
1733513253891508500,4.243508544921875,0.10764362663030624,1.1934878826141357,0.30332744121551514
1733513253901527600,4.253527587890625,0.1507575362920761,1.3633791208267212,0.016433361917734146
1733513253911546600,4.263546630859375,0.16476468741893768,1.4042725563049316,-0.41500434279441833
1733513253921565700,4.273565673828125,0.15835793316364288,1.323576807975769,-0.9506951570510864
1733513253931585800,4.283585693359375,0.19239920377731323,1.199788212776184,-1.5092509984970093
1733513253941604600,4.2936044921875,0.31206274032592773,1.0182421207427979,-2.0393002033233643
1733513253951623700,4.303623779296875,0.5149428248405457,0.6252745985984802,-2.593744993209839
1733513253961642800,4.313642822265625,0.7517779469490051,-0.1616189330816269,-3.1720101833343506
1733513253971661800,4.323661865234375,0.8674718737602234,-1.1668124198913574,-3.4758076667785645
1733513253981680600,4.3336806640625,0.7404425740242004,-2.0910868644714355,-3.2961668968200684
1733513253991699700,4.34369970703125,0.34645944833755493,-2.7204911708831787,-2.7350075244903564
1733513254001718800,4.35371875,-0.14102394878864288,-3.0967767238616943,-2.083796977996826
1733513254011737600,4.363737548828125,-0.48174795508384705,-3.430509567260742,-1.133439064025879
1733513254021756700,4.373756591796875,-0.3707761764526367,-2.527247667312622,1.0795258283615112
1733513254031775700,4.383775634765625,-0.12310606241226196,0.37815725803375244,2.9330549240112305
1733513254041794800,4.393794921875,0.14398662745952606,2.561776876449585,4.033982276916504
1733513254051813600,4.403813720703125,0.32627683877944946,3.1926653385162354,4.45694637298584
1733513254061832700,4.413832763671875,0.32001495361328125,2.8124570846557617,4.479248046875
1733513254071851800,4.423851806640625,0.21357576549053192,2.219233989715576,4.353597164154053
1733513254081870800,4.433870849609375,0.13929487764835358,1.7930914163589478,4.2587480545043945
1733513254091889700,4.4438896484375,0.15633654594421387,1.4396544694900513,4.271470546722412
1733513254101908700,4.45390869140625,0.15770700573921204,1.0578941106796265,4.289658069610596
1733513254111927800,4.463927734375,0.1202879399061203,0.6853958368301392,4.200013160705566
1733513254121947000,4.47394677734375,0.0003833705559372902,0.4529532194137573,3.9622628688812256
1733513254131966500,4.483966552734375,-0.16447003185749054,0.6079710721969604,3.5844719409942627
1733513254141985500,4.493985595703125,-0.2638706564903259,1.1525664329528809,3.0511696338653564
1733513254152004600,4.504004638671875,-0.4124401807785034,1.877414584159851,2.501960277557373
1733513254162023700,4.514023681640625,-0.44478878378868103,1.8381565809249878,2.220371961593628
1733513254172042500,4.52404248046875,-0.45480895042419434,1.595041275024414,2.0385446548461914
1733513254182061600,4.5340615234375,-0.3650926649570465,1.0111782550811768,2.0178427696228027
1733513254192080600,4.54408056640625,-0.2715456783771515,0.11131300032138824,2.047299385070801
1733513254202099700,4.554099609375,-0.231217160820961,-0.9353545308113098,2.011408805847168
1733513254212118500,4.564118408203125,-0.32673758268356323,-2.0090463161468506,1.642016053199768
1733513254222137600,4.5741376953125,-0.574977457523346,-2.578887701034546,0.8314230442047119
1733513254232156700,4.58415673828125,-0.884736955165863,-2.566133737564087,0.1991811990737915
1733513254242175500,4.594175537109375,-1.4542042016983032,-2.550354480743408,0.028202256187796593
1733513254252194600,4.604194580078125,-1.2764021158218384,-0.785793125629425,0.2520997226238251
1733513254262213600,4.614213623046875,-0.7492120862007141,1.1543231010437012,1.3042964935302734
1733513254272232700,4.624232666015625,-0.22584664821624756,2.5208323001861572,2.1307051181793213
1733513254282251500,4.63425146484375,0.030405107885599136,3.1521682739257812,2.220731019973755
1733513254292270600,4.6442705078125,0.13430741429328918,3.5971922874450684,1.9137203693389893
1733513254302289700,4.65428955078125,0.07248638570308685,3.8368709087371826,1.646996021270752
1733513254312308700,4.664308837890625,-0.09791263937950134,3.9001083374023438,1.4644556045532227
1733513254322327600,4.67432763671875,-0.28892841935157776,3.8607044219970703,1.31894850730896
1733513254332347600,4.68434765625,-0.44451990723609924,3.677563428878784,1.172710657119751
1733513254342366700,4.69436669921875,-0.5595897436141968,3.2238597869873047,0.925165057182312
1733513254352385800,4.7043857421875,-0.6114569306373596,2.6012930870056152,0.613304615020752
1733513254362404600,4.714404541015625,-0.6270278692245483,1.847578763961792,0.2400764375925064
1733513254372423700,4.724423583984375,-0.6379344463348389,1.0147550106048584,-0.1624728888273239
1733513254382442800,4.73444287109375,-0.6613628268241882,0.16991452872753143,-0.5764455795288086
1733513254392461800,4.7444619140625,-0.6535400748252869,-0.516601026058197,-0.9884712100028992
1733513254402480600,4.754480712890625,-0.5987386107444763,-1.0178178548812866,-1.3665488958358765
1733513254412499700,4.764499755859375,-0.4858427047729492,-1.4059423208236694,-1.684198021888733
1733513254422518800,4.774518798828125,-0.33840158581733704,-1.6789934635162354,-1.8032407760620117
1733513254432537900,4.784537841796875,-0.2614310383796692,-1.6589173078536987,-1.709434986114502
1733513254442556700,4.794556640625,-0.17078368365764618,-1.006772518157959,-0.9336223006248474
1733513254452575700,4.80457568359375,-0.11996474862098694,0.4306657910346985,0.3595275580883026
1733513254462594800,4.8145947265625,-0.2131684571504593,1.366548776626587,0.81088787317276
1733513254472614000,4.82461376953125,-0.3252944350242615,1.5676790475845337,0.5016298294067383
1733513254482632700,4.8346328125,-0.4825812578201294,1.6815569400787354,0.0953640341758728
1733513254492651800,4.84465185546875,-0.6131836771965027,1.7247858047485352,-0.0931343138217926
1733513254502670800,4.8546708984375,-0.6962074637413025,1.6537930965423584,-0.07241757959127426
1733513254512690700,4.864690673828125,-0.7008967399597168,1.4305695295333862,0.08862071484327316
1733513254522709500,4.87470947265625,-0.6600936651229858,1.0088499784469604,0.3287059962749481
1733513254532728600,4.884728515625,-0.6008215546607971,0.2758485972881317,0.4655439257621765
1733513254542747600,4.89474755859375,-0.4887738823890686,-0.7428658604621887,0.376264363527298
1733513254552766700,4.9047666015625,-0.3034486770629883,-1.6736072301864624,-0.09165561944246292
1733513254562785500,4.91478564453125,-0.07617023587226868,-2.2781684398651123,-0.8242350220680237
1733513254572804600,4.9248046875,0.13722071051597595,-2.599947690963745,-1.46295964717865
1733513254582823700,4.93482373046875,0.4004936218261719,-2.3513565063476562,-1.563978672027588
1733513254592842500,4.944842529296875,0.7199081182479858,-1.49209463596344,-1.0152294635772705
1733513254602861600,4.954861572265625,0.8813976645469666,-0.6065504550933838,-0.24867235124111176
1733513254612880600,4.964880615234375,0.7211939096450806,-0.06650251150131226,0.3100779354572296
1733513254622899700,4.974899658203125,0.28000718355178833,-0.15360306203365326,0.4946533739566803
1733513254632918500,4.98491845703125,-0.11642580479383469,-0.4885213375091553,0.2975451648235321
1733513254642937600,4.9949375,-0.22462737560272217,-0.5694092512130737,-0.2377089262008667
1733513254652956700,5.004956787109375,-0.0034878200385719538,-0.19993956387043,-1.0262490510940552
1733513254662975700,5.014975830078125,0.34515058994293213,0.4601041376590729,-1.8149404525756836
1733513254672994600,5.02499462890625,0.6531996726989746,0.7496705651283264,-2.228759288787842
1733513254683013600,5.035013671875,0.9168244004249573,0.38738906383514404,-2.1788673400878906
1733513254693033700,5.04503369140625,0.9638384580612183,-0.3539634644985199,-1.8744537830352783
1733513254703052800,5.055052734375,0.7507520318031311,-0.7800521850585938,-1.5799492597579956
1733513254713071600,5.065071533203125,0.4323766827583313,-0.43344420194625854,-1.53383207321167
1733513254723090700,5.075090576171875,0.19634421169757843,0.5391115546226501,-1.6996053457260132
1733513254733109800,5.08510986328125,0.20219144225120544,1.1220215559005737,-1.7061915397644043
1733513254743128800,5.09512890625,0.5675390362739563,1.1401617527008057,-1.3720253705978394
1733513254753147600,5.105147705078125,0.7366517186164856,1.4235906600952148,-1.0729801654815674
1733513254763166700,5.115166748046875,0.5077825784683228,1.4680489301681519,-1.1040228605270386
1733513254773185800,5.125185791015625,0.16746807098388672,1.2128561735153198,-1.2476173639297485
1733513254783204900,5.135204833984375,-0.06238775700330734,0.4936186969280243,-1.5885744094848633
1733513254793223700,5.1452236328125,-0.10723163932561874,-1.3264952898025513,-2.5923824310302734
1733513254803242800,5.15524267578125,-0.04757683351635933,-3.3782246112823486,-3.573359727859497
1733513254813261800,5.16526171875,-0.30963802337646484,-4.247262001037598,-3.697704792022705
1733513254823281000,5.175281005859375,-0.7453575730323792,-4.202407360076904,-3.1933376789093018
1733513254833299700,5.1852998046875,-1.0431559085845947,-3.715365409851074,-2.459500789642334
1733513254843318800,5.19531884765625,-1.0850239992141724,-3.0994884967803955,-1.8250881433486938
1733513254853337900,5.205337890625,-0.9818989038467407,-2.474120855331421,-1.456900715827942
1733513254863356700,5.215356689453125,-0.8484710454940796,-1.9149466753005981,-1.2426486015319824
1733513254873376500,5.22537646484375,-0.655834436416626,-1.5275431871414185,-0.9962596893310547
1733513254883395600,5.2353955078125,-0.3868362605571747,-1.2270177602767944,-0.7468885183334351
1733513254893414700,5.24541455078125,-0.17782410979270935,-0.8696664571762085,-0.49943816661834717
1733513254903433700,5.255433837890625,-0.06870028376579285,-0.40296849608421326,-0.19125714898109436
1733513254913452500,5.26545263671875,0.01858508214354515,0.06696734577417374,0.16108594834804535
1733513254923471600,5.2754716796875,0.1150282695889473,0.4662819802761078,0.5040885806083679
1733513254933490700,5.28549072265625,0.1979360729455948,0.8363358378410339,0.7547727227210999
1733513254943509500,5.295509521484375,0.24636751413345337,1.175636887550354,0.8380785584449768
1733513254953528600,5.305528564453125,0.25491225719451904,1.4334068298339844,0.6787845492362976
1733513254963547600,5.315547607421875,0.20589490234851837,1.5181747674942017,0.27713775634765625
1733513254973566700,5.325566650390625,0.09957286715507507,1.38849675655365,-0.2959931194782257
1733513254983585500,5.33558544921875,-0.009569336660206318,1.0814239978790283,-0.872532069683075
1733513254993604600,5.3456044921875,-0.03812694549560547,0.6788100004196167,-1.2953914403915405
1733513255003623700,5.355623779296875,0.047930970788002014,0.19623903930187225,-1.5489743947982788
1733513255013642800,5.365642822265625,0.16597232222557068,-0.41897842288017273,-1.7826224565505981
1733513255023661600,5.37566162109375,0.24402424693107605,-1.1158530712127686,-2.0929861068725586
1733513255033680600,5.3856806640625,0.26912790536880493,-1.7618935108184814,-2.357487678527832
1733513255043699700,5.39569970703125,0.2037944495677948,-2.208711624145508,-2.381495237350464
1733513255053719800,5.4057197265625,0.01621394045650959,-2.402237892150879,-2.176980495452881
1733513255063738600,5.415738525390625,-0.19921688735485077,-2.4211480617523193,-1.9416924715042114
1733513255073757700,5.4257578125,-0.33960017561912537,-2.458827495574951,-1.916799545288086
1733513255083776800,5.43577685546875,-0.4402812421321869,-2.6907875537872314,-2.159776210784912
1733513255093795800,5.4457958984375,-0.3142901062965393,-3.303696393966675,-1.3044719696044922
1733513255103814700,5.455814697265625,0.014819872565567493,-2.7207396030426025,1.0624598264694214
1733513255113833700,5.465833740234375,0.22305729985237122,-0.6514796018600464,2.9796078205108643
1733513255123852800,5.475852783203125,0.39807066321372986,1.0289069414138794,3.9263274669647217
1733513255133871900,5.485871826171875,0.553045392036438,1.815850019454956,4.179707050323486
1733513255143890700,5.495890625,0.6652625203132629,1.9637573957443237,4.139946937561035
1733513255153909800,5.50590966796875,0.7890010476112366,1.7185951471328735,4.049170017242432
1733513255163928800,5.5159287109375,0.7901718020439148,1.4306148290634155,3.963008165359497
1733513255173948000,5.525947998046875,0.5549119710922241,1.3556289672851562,3.8288075923919678
1733513255183966700,5.535966796875,0.2414989322423935,1.246919870376587,3.633594512939453
1733513255193985500,5.545985595703125,-0.023691337555646896,0.9785680770874023,3.428177833557129
1733513255204004400,5.55600439453125,-0.17341771721839905,0.6314274072647095,3.236079454421997
1733513255214023400,5.5660234375,-0.20924600958824158,0.25752511620521545,3.110424757003784
1733513255224043300,5.576043212890625,-0.16748178005218506,-0.06051623821258545,3.024801015853882
1733513255234062300,5.586062255859375,-0.18761545419692993,-0.14544755220413208,2.92680025100708
1733513255244081200,5.5960810546875,-0.2767184376716614,-0.1376921534538269,2.7729990482330322
1733513255254100200,5.606100341796875,-0.37310412526130676,-0.26803624629974365,2.632295608520508
1733513255264119300,5.616119384765625,-0.38981759548187256,-0.5357670187950134,2.4754226207733154
1733513255274138400,5.626138427734375,-0.266681432723999,-0.8750550746917725,2.2221531867980957
1733513255284157200,5.6361572265625,-0.3075433671474457,-1.2767614126205444,1.8556442260742188
1733513255294176300,5.64617626953125,-0.7676054239273071,-1.5874685049057007,1.0462613105773926
1733513255304195300,5.6561953125,-1.176245093345642,-1.448231816291809,0.06871362030506134
1733513255314214400,5.66621435546875,-1.2498704195022583,-0.9415451288223267,-0.40808072686195374
1733513255324233200,5.676233154296875,-1.27323317527771,0.4551087021827698,0.34411871433258057
1733513255334252300,5.686252197265625,-1.0062025785446167,1.8432203531265259,2.0015954971313477
1733513255344271400,5.696271240234375,-0.5860996842384338,2.8559083938598633,2.9221975803375244
1733513255354290200,5.706290283203125,-0.32658660411834717,3.2938194274902344,2.7482407093048096
1733513255364309200,5.716309326171875,-0.21769072115421295,3.481428861618042,2.248873233795166
1733513255374328300,5.726328369140625,-0.23125624656677246,3.544382333755493,1.9194915294647217
1733513255384348400,5.736348388671875,-0.2798224687576294,3.6367697715759277,1.7716403007507324
1733513255394367500,5.746367431640625,-0.36869004368782043,3.646270751953125,1.6266772747039795
1733513255404386300,5.75638623046875,-0.4887101948261261,3.5007483959198,1.3989708423614502
1733513255414405400,5.7664052734375,-0.619956374168396,3.130225658416748,1.0477489233016968
1733513255424424400,5.776424560546875,-0.6971328854560852,2.577104330062866,0.6205552816390991
1733513255434443500,5.786443603515625,-0.7049221992492676,1.9903315305709839,0.2162100225687027
1733513255444462300,5.79646240234375,-0.7083070874214172,1.4314690828323364,-0.13079507648944855
1733513255454481400,5.8064814453125,-0.674835205078125,1.037882685661316,-0.43213188648223877
1733513255464500500,5.81650048828125,-0.6340650916099548,0.7138016223907471,-0.7250807285308838
1733513255474519300,5.826519287109375,-0.6829038262367249,0.259907603263855,-1.0747888088226318
1733513255484538400,5.836538330078125,-0.7428367137908936,-0.19777952134609222,-1.4681975841522217
1733513255494557400,5.846557373046875,-0.6990621089935303,-0.5887302160263062,-1.8354451656341553
1733513255504576500,5.856576416015625,-0.5558815002441406,-0.8467215299606323,-2.08240008354187
1733513255514595300,5.86659521484375,-0.3987325131893158,-1.0144894123077393,-2.1618924140930176
1733513255524614400,5.876614501953125,-0.24339646100997925,-1.305761694908142,-1.702970266342163
1733513255534633500,5.886633544921875,-0.1543707400560379,-1.1152713298797607,-0.3717440366744995
1733513255544652500,5.896652587890625,-0.03717754781246185,-0.06537255644798279,0.5071627497673035
1733513255554672000,5.906672119140625,0.023668766021728516,1.2630752325057983,0.41665205359458923
1733513255564691200,5.916691162109375,-0.1124081090092659,2.1981685161590576,0.27914291620254517
1733513255574710300,5.926710205078125,-0.3660043478012085,2.524352550506592,0.31980761885643005
1733513255584729300,5.936729248046875,-0.5518508553504944,2.4303364753723145,0.42947524785995483
1733513255594748200,5.946748046875,-0.609516978263855,2.150444507598877,0.49339765310287476
1733513255604767200,5.956767333984375,-0.6266837120056152,1.5886114835739136,0.5468571186065674
1733513255614786300,5.966786376953125,-0.6603891253471375,0.6236687898635864,0.5501518249511719
1733513255624805400,5.976805419921875,-0.6248465776443481,-0.5545874238014221,0.26577815413475037
1733513255634824200,5.98682421875,-0.4427408277988434,-1.6662483215332031,-0.4597296714782715
1733513255644843300,5.99684326171875,-0.15427014231681824,-2.4497671127319336,-1.3506286144256592
1733513255654862300,6.0068623046875,0.21863128244876862,-3.199970006942749,-1.9838975667953491
1733513255664881400,6.01688134765625,0.5680686831474304,-4.461817741394043,-2.0815048217773438
1733513255674900200,6.026900146484375,0.7545609474182129,-4.3856730461120605,-1.884361743927002
1733513255684919300,6.036919189453125,0.7438241243362427,-1.3771357536315918,-1.946973443031311
1733513255694938400,6.0469384765625,0.4433204233646393,0.9147900938987732,-1.327101469039917
1733513255704958500,6.05695849609375,0.03858599811792374,1.189322829246521,-0.2553962767124176
1733513255714977300,6.066977294921875,-0.3358578085899353,0.6485264897346497,0.3668510913848877
1733513255724996400,6.076996337890625,-0.5305761694908142,0.15995068848133087,0.49033838510513306
1733513255735015400,6.087015380859375,-0.5367022156715393,-0.09790103882551193,0.15036381781101227
1733513255745034500,6.097034423828125,-0.34646278619766235,-0.16543321311473846,-0.6116722822189331
1733513255755053300,6.10705322265625,0.07116136699914932,-0.1683051586151123,-1.4085135459899902
1733513255765072400,6.117072265625,0.5580791234970093,-0.9275044798851013,-1.8243499994277954
1733513255775091500,6.127091552734375,1.0475852489471436,-2.0970277786254883,-1.959342122077942
1733513255785110500,6.137110595703125,1.3863321542739868,-3.122392177581787,-1.957258939743042
1733513255795129300,6.14712939453125,1.4718079566955566,-3.3185224533081055,-2.0461738109588623
1733513255805148400,6.1571484375,1.270033836364746,-1.8478174209594727,-2.363647699356079
1733513255815167500,6.16716748046875,0.9353067278862,0.739151656627655,-2.644352436065674
1733513255825186300,6.177186279296875,0.42927470803260803,2.9045681953430176,-2.3879520893096924
1733513255835205400,6.187205322265625,0.35496988892555237,3.926769256591797,-1.884850263595581
1733513255845224400,6.197224365234375,0.6417319178581238,4.322977066040039,-1.1243654489517212
1733513255855243500,6.207243408203125,0.7846882343292236,4.6335930824279785,-0.5075609683990479
1733513255865262300,6.217262451171875,0.30520153045654297,4.2624969482421875,-0.17169189453125
1733513255875282200,6.2272822265625,-0.3176446259021759,2.843167543411255,0.1999300718307495
1733513255885301200,6.23730126953125,-0.6802840828895569,0.9255947470664978,0.3937373757362366
1733513255895320300,6.2473203125,-0.6018481850624084,-1.037438154220581,0.153863787651062
1733513255905339100,6.257339111328125,-0.37894031405448914,-2.876730442047119,-0.4479837119579315
1733513255915358200,6.267358154296875,-0.3121093809604645,-4.661123275756836,-1.582445502281189
1733513255925377300,6.277377197265625,-0.530803918838501,-5.156468868255615,-2.4262897968292236
1733513255935396400,6.287396240234375,-0.7180193066596985,-4.797962665557861,-2.7606382369995117
1733513255945415200,6.297415283203125,-0.7164579033851624,-4.141485691070557,-2.7212491035461426
1733513255955434200,6.307434326171875,-0.6531692147254944,-3.45489764213562,-2.4527370929718018
1733513255965453300,6.317453369140625,-0.6172171235084534,-2.912384510040283,-2.093324661254883
1733513255975472400,6.327472412109375,-0.5661622881889343,-2.4669322967529297,-1.7377938032150269
1733513255985491200,6.3374912109375,-0.46928131580352783,-1.9804128408432007,-1.453641414642334
1733513255995510300,6.34751025390625,-0.3832148313522339,-1.394540548324585,-1.2063533067703247
1733513256005529300,6.357529296875,-0.29831168055534363,-0.7876341938972473,-0.9258701205253601
1733513256015548400,6.36754833984375,-0.16680856049060822,-0.26745128631591797,-0.5385294556617737
1733513256025568300,6.377568359375,0.002000164007768035,0.17352958023548126,-0.14627590775489807
1733513256035587300,6.38758740234375,0.12299145013093948,0.5589662194252014,0.12552893161773682
1733513256045606400,6.3976064453125,0.15339408814907074,0.8441428542137146,0.1915186047554016
1733513256055625500,6.40762548828125,0.119883693754673,0.9640790224075317,0.03761636093258858
1733513256065644300,6.417644287109375,0.062498968094587326,0.8838736414909363,-0.28671324253082275
1733513256075663400,6.427663330078125,0.021838366985321045,0.6325032114982605,-0.6851933002471924
1733513256085682400,6.437682373046875,0.03879045322537422,0.2992951273918152,-1.0439746379852295
1733513256095701500,6.447701416015625,0.18003150820732117,-0.01296589057892561,-1.3497685194015503
1733513256105720300,6.45772021484375,0.39511558413505554,-0.34152671694755554,-1.6312999725341797
1733513256115739400,6.467739501953125,0.6144843697547913,-0.7090293169021606,-1.8435602188110352
1733513256125758500,6.477758544921875,0.7129899263381958,-0.952065646648407,-1.8526750802993774
1733513256135777500,6.487777587890625,0.5692958235740662,-1.0402125120162964,-1.6654701232910156
1733513256145796400,6.49779638671875,0.23523347079753876,-1.0938252210617065,-1.3864160776138306
1733513256155815400,6.5078154296875,-0.1615791916847229,-1.202915072441101,-1.1664974689483643
1733513256165834500,6.51783447265625,-0.48957359790802,-1.4578852653503418,-1.1559324264526367
1733513256175854300,6.527854248046875,-0.6961501240730286,-2.0533008575439453,-1.424830436706543
1733513256185873200,6.537873046875,-0.6940667629241943,-2.8462722301483154,-1.4412280321121216
1733513256195892500,6.547892578125,-0.3061089813709259,-3.4717159271240234,-0.0006538296584039927
1733513256205911300,6.557911376953125,-0.030285140499472618,-2.3173186779022217,1.8228857517242432
1733513256215930400,6.567930419921875,0.10390937328338623,-0.7706931829452515,3.047913074493408
1733513256225949400,6.577949462890625,0.16849902272224426,0.32059112191200256,3.7591309547424316
1733513256235968500,6.587968505859375,0.36881065368652344,1.3696132898330688,4.2635884284973145
1733513256245987300,6.5979873046875,0.606364369392395,2.145723581314087,4.683081150054932
1733513256256006400,6.60800634765625,0.605948269367218,2.5466597080230713,4.856551647186279
1733513256266025500,6.618025390625,0.2852943241596222,2.60646653175354,4.6871185302734375
1733513256276044300,6.628044189453125,-0.08887980133295059,2.2857460975646973,4.297918319702148
1733513256286063400,6.6380634765625,-0.2684556841850281,1.6400662660598755,3.8219401836395264
1733513256296082400,6.64808251953125,-0.2977936863899231,0.8343467712402344,3.325639247894287
1733513256306101500,6.6581015625,-0.2120998203754425,0.0671050101518631,2.920919895172119
1733513256316121600,6.66812158203125,-0.1276148557662964,-0.5635361671447754,2.619359016418457
1733513256326140400,6.678140380859375,-0.12636876106262207,-1.08586585521698,2.406655788421631
1733513256336159500,6.688159423828125,-0.21051926910877228,-1.34480619430542,2.241004467010498
1733513256346178600,6.698178466796875,-0.34924840927124023,-1.341277837753296,2.075836181640625
1733513256356197600,6.70819775390625,-0.345883309841156,-1.7128379344940186,2.100332021713257
1733513256366216400,6.718216552734375,-0.5775260925292969,-2.439624071121216,2.3084285259246826
1733513256376235500,6.728235595703125,-0.8328930735588074,-2.260847330093384,1.4600824117660522
1733513256386254600,6.738254638671875,-0.7667984962463379,-1.3319718837738037,-0.41422000527381897
1733513256396273400,6.7482734375,-0.7059975862503052,-1.2188405990600586,-1.239793062210083
1733513256406292500,6.75829248046875,-0.7564650177955627,-1.7165435552597046,-1.2340624332427979
1733513256416311600,6.7683115234375,-0.9465072751045227,-1.5165925025939941,-0.29816901683807373
1733513256426330600,6.77833056640625,-0.9105492830276489,1.0962965488433838,1.6108982563018799
1733513256436349400,6.788349365234375,-0.4885748028755188,3.4539847373962402,2.8457565307617188
1733513256446368500,6.798368408203125,-0.12107641249895096,4.544670581817627,2.9648797512054443
1733513256456387600,6.8083876953125,0.038405999541282654,4.686037063598633,2.6956398487091064
1733513256466407400,6.818407470703125,0.042928844690322876,4.423619270324707,2.408372402191162
1733513256476426500,6.828426513671875,0.021253013983368874,4.210279941558838,2.222460985183716
1733513256486445300,6.8384453125,-0.046082351356744766,3.9919207096099854,2.041710376739502
1733513256496464400,6.84846435546875,-0.21177421510219574,3.6414599418640137,1.760969877243042
1733513256506483500,6.8584833984375,-0.4216259717941284,3.1002206802368164,1.4270752668380737
1733513256516502300,6.868502197265625,-0.588013768196106,2.4780337810516357,1.0912094116210938
1733513256526521300,6.878521240234375,-0.6845035552978516,1.8020288944244385,0.7759739756584167
1733513256536540400,6.88854052734375,-0.7171451449394226,1.1565229892730713,0.5050668716430664
1733513256546559500,6.8985595703125,-0.7275581359863281,0.6703317165374756,0.2390756756067276
1733513256556578300,6.908578369140625,-0.7420275211334229,0.2851482033729553,-0.0604105219244957
1733513256566597400,6.918597412109375,-0.7688546180725098,0.007443116046488285,-0.45478183031082153
1733513256576616400,6.928616455078125,-0.7557448744773865,-0.10641570389270782,-0.9121079444885254
1733513256586635500,6.938635498046875,-0.6641363501548767,-0.12702937424182892,-1.3352187871932983
1733513256596654300,6.948654296875,-0.5220366716384888,-0.19238530099391937,-1.679064393043518
1733513256606673400,6.95867333984375,-0.40336063504219055,-0.35419604182243347,-1.8999522924423218
1733513256616693500,6.968693603515625,-0.3203859329223633,-0.71258544921875,-1.942557692527771
1733513256626712600,6.978712646484375,-0.23585695028305054,-1.0924580097198486,-1.632008671760559
1733513256636731400,6.9887314453125,-0.07000397890806198,-0.8302100300788879,-0.8118709921836853
1733513256646750500,6.99875048828125,0.1254986822605133,0.3617015779018402,0.0030094641260802746
1733513256656769500,7.00876953125,0.1081925705075264,1.2701927423477173,0.39303886890411377
1733513256666788600,7.01878857421875,-0.12277832627296448,1.523427963256836,0.6391112208366394
1733513256676807400,7.028807373046875,-0.38934481143951416,1.510011076927185,0.7745863795280457
1733513256686826500,7.038826416015625,-0.5765762329101562,1.4477537870407104,0.8049879670143127
1733513256696845600,7.048845458984375,-0.7018725275993347,1.3109853267669678,0.7423006296157837
1733513256706864600,7.05886474609375,-0.7877517342567444,0.9836240410804749,0.576112687587738
1733513256716883500,7.068883544921875,-0.8743211627006531,0.392463356256485,0.3115847706794739
1733513256726902500,7.078902587890625,-0.8936429619789124,-0.32498690485954285,-0.07614565640687943
1733513256736921600,7.088921630859375,-0.7493287920951843,-1.2273904085159302,-0.47002869844436646
1733513256746940400,7.0989404296875,-0.4866330325603485,-2.162017583847046,-0.816459596157074
1733513256756960500,7.10896044921875,-0.23986071348190308,-2.9335808753967285,-0.9249691963195801
1733513256766979300,7.118979248046875,-0.0004505268298089504,-3.261239767074585,-0.44911953806877136
1733513256776998400,7.128998291015625,0.28420591354370117,-1.7804263830184937,-0.29554715752601624
1733513256787017500,7.139017578125,0.8698922991752625,0.6565492153167725,-0.6635618805885315
1733513256797036300,7.149036376953125,1.4295777082443237,1.9262292385101318,-0.22470693290233612
1733513256807055400,7.159055419921875,1.3320655822753906,1.5800912380218506,0.6048887372016907
1733513256817074400,7.169074462890625,0.6325977444648743,0.6382121443748474,0.863758385181427
1733513256827093500,7.179093505859375,-0.10696738213300705,-0.2614652216434479,0.6393143534660339
1733513256837112300,7.1891123046875,-0.4842282831668854,-0.6170733571052551,0.029508337378501892
1733513256847131400,7.19913134765625,-0.47718846797943115,0.1350070685148239,-0.9385291934013367
1733513256857150500,7.209150390625,-0.2977135181427002,1.5077025890350342,-2.0512146949768066
1733513256867169300,7.219169189453125,-0.12946061789989471,2.067639112472534,-2.83712100982666
1733513256877188400,7.229188232421875,0.0362970307469368,1.641451120376587,-3.1707305908203125
1733513256887207400,7.23920751953125,0.3729994297027588,0.603545606136322,-3.0187504291534424
1733513256897227500,7.2492275390625,0.700434148311615,-0.6046497225761414,-2.567593812942505
1733513256907246600,7.25924658203125,0.7748809456825256,-1.5927050113677979,-2.0340986251831055
1733513256917265400,7.269265380859375,0.5281434655189514,-1.9740016460418701,-1.6737010478973389
1733513256927284500,7.279284423828125,0.20762482285499573,-2.013113021850586,-1.5244311094284058
1733513256937303600,7.289303466796875,0.059926215559244156,-1.421560525894165,-1.6292566061019897
1733513256947322400,7.299322265625,0.48190781474113464,-0.727898895740509,-1.7388219833374023
1733513256957341400,7.309341552734375,0.7472444176673889,-0.2666628062725067,-1.720178246498108
1733513256967360500,7.319360595703125,0.4668002426624298,0.129253089427948,-1.7556872367858887
1733513256977379600,7.329379638671875,-0.11007460206747055,0.26220273971557617,-1.7992314100265503
1733513256987398400,7.3393984375,-0.48535898327827454,-0.6100956797599792,-2.112117052078247
1733513256997417500,7.34941748046875,-0.48823606967926025,-1.9030253887176514,-2.464782238006592
1733513257007436500,7.3594365234375,-0.46966981887817383,-2.5226047039031982,-2.4147233963012695
1733513257017455600,7.36945556640625,-0.5839024782180786,-2.6411023139953613,-2.080660343170166
1733513257027474400,7.379474365234375,-0.7277696132659912,-2.350238084793091,-1.6525661945343018
1733513257037494500,7.38949462890625,-0.8233098983764648,-1.889121651649475,-1.3019781112670898
1733513257047513600,7.399513671875,-0.8308596611022949,-1.488545298576355,-1.1224972009658813
1733513257057532700,7.40953271484375,-0.7371876835823059,-1.2453393936157227,-1.010535478591919
1733513257067551500,7.419551513671875,-0.5587971806526184,-1.1884430646896362,-0.8431868553161621
1733513257077570600,7.429570556640625,-0.3361284136772156,-1.1438599824905396,-0.5921337008476257
1733513257087589400,7.43958935546875,-0.2200467884540558,-0.9656617045402527,-0.3098290264606476
1733513257097608400,7.4496083984375,-0.19975124299526215,-0.7127602696418762,-0.05708464980125427
1733513257107627300,7.459627197265625,-0.17632047832012177,-0.4903154671192169,0.11751964688301086
1733513257117646300,7.469646240234375,-0.10828233510255814,-0.3235623836517334,0.2051132172346115
1733513257127665400,7.47966552734375,-0.03944681957364082,-0.1792512685060501,0.21396395564079285
1733513257137684500,7.4896845703125,-0.0007017711759544909,-0.014705019071698189,0.17779946327209473
1733513257147703300,7.499703369140625,0.02218783088028431,0.15348239243030548,0.10974077880382538
1733513257157722400,7.509722412109375,0.03658497706055641,0.30376702547073364,-0.005435531958937645
1733513257167741400,7.519741455078125,0.05608624219894409,0.40609657764434814,-0.19881458580493927
1733513257177761500,7.529761474609375,0.07245147228240967,0.4212290048599243,-0.48703888058662415
1733513257187780400,7.5397802734375,0.08049128949642181,0.32927563786506653,-0.8666114807128906
1733513257197800700,7.54980078125,0.09004691988229752,0.103502556681633,-1.2765576839447021
1733513257207819500,7.559819580078125,0.13228943943977356,-0.2344893366098404,-1.6725947856903076
1733513257217838600,7.569838623046875,0.21749775111675262,-0.6831855177879333,-2.051236152648926
1733513257227857700,7.579857666015625,0.34238138794898987,-1.2143425941467285,-2.4218249320983887
1733513257237876700,7.589876708984375,0.4276149570941925,-1.739087700843811,-2.6921491622924805
1733513257247895600,7.5998955078125,0.39075228571891785,-2.1454174518585205,-2.727703332901001
1733513257257914600,7.60991455078125,0.20798781514167786,-2.373723268508911,-2.4909024238586426
1733513257267933700,7.61993359375,-0.06142660975456238,-2.418379068374634,-2.137688159942627
1733513257277952800,7.629952880859375,-0.3280958831310272,-2.4852943420410156,-1.9379961490631104
1733513257287971600,7.6399716796875,-0.5932194590568542,-2.803175449371338,-2.09847354888916
1733513257297990700,7.64999072265625,-0.7840961217880249,-3.3621366024017334,-2.3591301441192627
1733513257308009700,7.660009765625,-0.6573868989944458,-4.112689018249512,-1.8311328887939453
1733513257318029600,7.670029541015625,-0.30929508805274963,-4.050911903381348,-0.07243187725543976
1733513257328048400,7.68004833984375,-0.09496785700321198,-2.2243845462799072,1.6939482688903809
1733513257338067500,7.6900673828125,0.040775056928396225,0.09243056923151016,2.8060944080352783
1733513257348086500,7.70008642578125,0.20080974698066711,1.7266887426376343,3.2129323482513428
1733513257358105600,7.710105712890625,0.365329384803772,2.1048035621643066,3.342708110809326
1733513257368124400,7.72012451171875,0.528661847114563,1.8504810333251953,3.512571334838867
1733513257378143500,7.7301435546875,0.6562576293945312,1.5887296199798584,3.7665226459503174
1733513257388162600,7.74016259765625,0.6212498545646667,1.5342378616333008,3.9660258293151855
1733513257398181600,7.750181640625,0.3800588846206665,1.6159569025039673,3.997894048690796
1733513257408200400,7.760200439453125,0.0910736694931984,1.5802565813064575,3.8691532611846924
1733513257418219500,7.770219482421875,-0.12433763593435287,1.37082040309906,3.695012092590332
1733513257428238600,7.780238525390625,-0.21163977682590485,0.9408828020095825,3.5323073863983154
1733513257438257400,7.79025732421875,-0.19366174936294556,0.3570639491081238,3.3188889026641846
1733513257448277500,7.800277587890625,-0.13344287872314453,-0.228700190782547,3.0161805152893066
1733513257458296600,7.810296630859375,-0.11914315074682236,-0.6362120509147644,2.7007789611816406
1733513257468315600,7.820315673828125,-0.11839347332715988,-0.7309314012527466,2.3949873447418213
1733513257478334700,7.830334716796875,-0.15163052082061768,-0.5470614433288574,2.0780322551727295
1733513257488353500,7.840353515625,-0.19581183791160583,-0.4957028925418854,1.8455619812011719
1733513257498372600,7.85037255859375,-0.23517531156539917,-1.256077527999878,2.0212392807006836
1733513257508391700,7.8603916015625,-0.5984283685684204,-1.9050261974334717,2.072718381881714
1733513257518410800,7.87041064453125,-0.8336692452430725,-1.8802851438522339,0.9229668974876404
1733513257528429600,7.8804296875,-0.716776967048645,-2.2048730850219727,-0.028920352458953857
1733513257538448600,7.89044873046875,-0.6914362907409668,-2.255038022994995,-0.5052424669265747
1733513257548467700,7.9004677734375,-0.926998496055603,-1.6712390184402466,-0.6399816274642944
1733513257558486500,7.910486572265625,-1.0132248401641846,-0.09355800598859787,0.0774206593632698
1733513257568505600,7.920505615234375,-0.8541603684425354,1.5754247903823853,1.3411425352096558
1733513257578525400,7.930525390625,-0.6079119443893433,3.174455165863037,2.185307502746582
1733513257588544500,7.94054443359375,-0.40934768319129944,4.013374328613281,2.2865066528320312
1733513257598563600,7.9505634765625,-0.31854164600372314,4.060549736022949,2.1184744834899902
1733513257608582400,7.96058251953125,-0.3035166263580322,3.8146772384643555,1.9198133945465088
1733513257618601500,7.9706015625,-0.323144793510437,3.5864176750183105,1.7467131614685059
1733513257628620500,7.98062060546875,-0.37936118245124817,3.3762919902801514,1.5643593072891235
1733513257638639400,7.990639404296875,-0.40111714601516724,3.06414794921875,1.2977594137191772
1733513257648658400,8.000658447265625,-0.33664149045944214,2.5991744995117188,0.9775398969650269
1733513257658677500,8.010677490234375,-0.22908976674079895,2.070830821990967,0.6395469903945923
1733513257668696600,8.020696533203125,-0.17616716027259827,1.6346442699432373,0.3379563093185425
1733513257678715400,8.03071533203125,-0.22759492695331573,1.3184764385223389,0.0927950069308281
1733513257688734500,8.040734375,-0.3215051591396332,1.0319464206695557,-0.1155129224061966
1733513257698753500,8.05075341796875,-0.4243873357772827,0.7321123480796814,-0.33429479598999023
1733513257708773600,8.060773681640624,-0.5369051098823547,0.41973555088043213,-0.5875611901283264
1733513257718792700,8.070792724609374,-0.6388956904411316,0.1607183963060379,-0.8500105738639832
1733513257728811500,8.0808115234375,-0.6562464833259583,0.051800716668367386,-1.081789493560791
1733513257738830600,8.09083056640625,-0.5793584585189819,0.006892733741551638,-1.2541499137878418
1733513257748849700,8.100849609375,-0.44263631105422974,-0.13678373396396637,-1.2817213535308838
1733513257758868500,8.110868408203125,-0.2684621214866638,-0.27761515974998474,-0.8669527173042297
1733513257768887600,8.120887451171875,-0.1159285232424736,0.15529365837574005,0.20427322387695312
1733513257778906600,8.13090673828125,0.08552459627389908,1.2332842350006104,0.8883777260780334
1733513257788925700,8.14092578125,0.15092730522155762,1.6011255979537964,0.6278167366981506
1733513257798944500,8.150944580078125,-0.01858619786798954,1.45547354221344,0.21187083423137665
1733513257808963600,8.160963623046875,-0.222100168466568,1.3921440839767456,0.10478326678276062
1733513257818982700,8.170982666015625,-0.39713314175605774,1.4884499311447144,0.25506818294525146
1733513257829002500,8.18100244140625,-0.4948226809501648,1.530777931213379,0.4867837131023407
1733513257839021600,8.191021484375,-0.5432643294334412,1.4139740467071533,0.6562970280647278
1733513257849040400,8.201040283203126,-0.587814211845398,0.9716751575469971,0.7284601926803589
1733513257859059500,8.2110595703125,-0.6507676243782043,0.13422247767448425,0.5500612258911133
1733513257869078500,8.22107861328125,-0.6882688999176025,-1.006091594696045,0.001976843923330307
1733513257879097300,8.231097412109374,-0.5298625230789185,-1.9775376319885254,-0.745022177696228
1733513257889116400,8.241116455078124,-0.2951085567474365,-2.52058744430542,-1.4657971858978271
1733513257899135500,8.251135498046875,-0.09680692106485367,-2.765472173690796,-1.9313403367996216
1733513257909154600,8.261154541015625,0.10438024997711182,-2.8789079189300537,-1.9247127771377563
1733513257919173400,8.27117333984375,0.305833101272583,-2.3729350566864014,-1.4615583419799805
1733513257929192400,8.2811923828125,0.45353975892066956,-1.0705270767211914,-1.1132924556732178
1733513257939211500,8.29121142578125,0.5468025803565979,0.10183834284543991,-0.7822735905647278
1733513257949230600,8.301230712890625,0.5021355152130127,-0.16600856184959412,-0.1837954968214035
1733513257959250400,8.31125048828125,0.20084255933761597,-0.9420065879821777,0.08104278147220612
1733513257969269500,8.32126953125,-0.10246778279542923,-1.6812103986740112,-0.05276454612612724
1733513257979288600,8.33128857421875,-0.14884787797927856,-2.017475128173828,-0.4753393530845642
1733513257989307600,8.3413076171875,0.059296268969774246,-1.9342395067214966,-1.151096224784851
1733513257999326500,8.351326416015626,0.4322361946105957,-1.3213192224502563,-1.862615704536438
1733513258009345500,8.361345458984376,0.6972806453704834,-0.7906383275985718,-2.2622110843658447
1733513258019364600,8.371364501953124,0.8270652890205383,-0.7161270976066589,-2.3091137409210205
1733513258029383700,8.3813837890625,0.8737478852272034,-0.9160777926445007,-2.131650447845459
1733513258039402500,8.391402587890624,0.7321763038635254,-0.9113079309463501,-1.877989411354065
1733513258049421600,8.401421630859375,0.513957142829895,-0.33191758394241333,-1.717816710472107
1733513258059440600,8.411440673828125,0.4776192009449005,0.7813262343406677,-1.6993834972381592
1733513258069459700,8.421459716796875,0.560714602470398,1.7288973331451416,-1.6032377481460571
1733513258079478500,8.431478515625,0.8608049154281616,2.5936081409454346,-1.4178816080093384
1733513258089498600,8.44149853515625,1.4320333003997803,3.1967272758483887,-1.2738444805145264
1733513258099517700,8.451517578125,1.2404571771621704,3.898469924926758,-1.1342263221740723
1733513258109536800,8.461536865234375,0.6256001591682434,4.185618877410889,-1.074385643005371
1733513258119555600,8.4715556640625,0.03225858509540558,3.614631414413452,-0.8963239789009094
1733513258129574700,8.48157470703125,-0.505757212638855,2.3072633743286133,-0.8082130551338196
1733513258139593700,8.49159375,-1.0176961421966553,0.36980998516082764,-0.7582240104675293
1733513258149612500,8.501612548828126,-1.0518226623535156,-2.488826274871826,-1.0724354982376099
1733513258159631600,8.511631591796874,-0.8024953007698059,-4.668486595153809,-1.536223292350769
1733513258169650400,8.521650390625,-0.778655469417572,-5.437141418457031,-1.6833274364471436
1733513258179669500,8.53166943359375,-0.8613560795783997,-5.410175800323486,-1.6302467584609985
1733513258189688600,8.5416884765625,-0.9091997146606445,-5.0044474601745605,-1.493475079536438
1733513258199707100,8.55170703125,-0.8424451351165771,-4.450965881347656,-1.3606879711151123
1733513258209727000,8.56172705078125,-0.7062718868255615,-3.7633533477783203,-1.2785906791687012
1733513258219746000,8.57174609375,-0.5745351910591125,-2.9245681762695312,-1.233328104019165
1733513258229765000,8.58176513671875,-0.48310351371765137,-2.058303117752075,-1.2056794166564941
1733513258239784000,8.591783935546875,-0.37474456429481506,-1.2780038118362427,-1.13594388961792
1733513258249803000,8.601802978515625,-0.23812970519065857,-0.6262366771697998,-0.9817420244216919
1733513258259822000,8.611822021484375,-0.12077552080154419,-0.09763011336326599,-0.7546926736831665
1733513258269841000,8.6218408203125,-0.05464763194322586,0.33478787541389465,-0.5304190516471863
1733513258279860000,8.63185986328125,-0.005785300396382809,0.6522367000579834,-0.4019763767719269
1733513258289879000,8.641879150390626,0.1359928697347641,0.796108603477478,-0.4640631675720215
1733513258299898000,8.651898193359376,0.2944849133491516,0.7540985941886902,-0.7000316977500916
1733513258309917000,8.6619169921875,0.36878231167793274,0.5579898357391357,-1.0146628618240356
1733513258319936000,8.67193603515625,0.3889351487159729,0.2309407740831375,-1.2905683517456055
1733513258329956000,8.6819560546875,0.38503628969192505,-0.17985475063323975,-1.5192010402679443
1733513258339975200,8.69197509765625,0.3530755937099457,-0.5810030698776245,-1.724366307258606
1733513258349994200,8.701994140625,0.30511367321014404,-0.9192423820495605,-1.8904231786727905
1733513258360013000,8.712012939453125,0.21424712240695953,-1.1877378225326538,-1.960059642791748
1733513258370032000,8.7220322265625,0.04639820381999016,-1.3623485565185547,-1.8752238750457764
1733513258380051200,8.73205126953125,-0.19727656245231628,-1.4308130741119385,-1.6556435823440552
1733513258390070000,8.742070068359375,-0.43251171708106995,-1.4661582708358765,-1.4071834087371826
1733513258400089000,8.752089111328125,-0.6042377948760986,-1.5822060108184814,-1.2866184711456299
1733513258410108200,8.762108154296875,-0.6686194539070129,-1.846234679222107,-1.3088250160217285
1733513258420127200,8.772127197265625,-0.5857905149459839,-2.143873691558838,-1.1576299667358398
1733513258430146000,8.78214599609375,-0.39353662729263306,-2.273160457611084,-0.2161862701177597
1733513258440165000,8.7921650390625,-0.15890739858150482,-1.714437484741211,1.763380527496338
1733513258450185000,8.80218505859375,0.10524143278598785,0.11342979222536087,3.460561513900757
1733513258460204000,8.8122041015625,0.4233313798904419,1.837567925453186,4.113142490386963
1733513258470222800,8.822222900390624,0.6536849737167358,2.435842275619507,4.1241350173950195
1733513258480242000,8.832241943359374,0.7736384868621826,2.2596585750579834,4.050795555114746
1733513258490261000,8.842260986328125,0.8401432037353516,1.9190863370895386,4.080413818359375
1733513258500280000,8.852280029296875,0.8070230484008789,1.4547778367996216,4.1873345375061035
1733513258510299000,8.862298828125,0.576513409614563,0.966533362865448,4.241805553436279
1733513258520318000,8.87231787109375,0.26375719904899597,0.5762543678283691,4.231630325317383
1733513258530337000,8.8823369140625,-0.001967419870197773,0.23884464800357819,4.2145209312438965
1733513258540356000,8.892356201171875,-0.2088877111673355,0.04259951785206795,4.067642688751221
1733513258550375000,8.902375,-0.3381865918636322,0.027078881859779358,3.7514231204986572
1733513258560394000,8.91239404296875,-0.4322217106819153,0.3419371247291565,3.325937271118164
1733513258570414000,8.9224140625,-0.41448426246643066,0.4466443657875061,2.891723871231079
1733513258580433200,8.93243310546875,-0.3565373420715332,0.29159674048423767,2.4879610538482666
1733513258590452000,8.942451904296876,-0.2719942033290863,-0.023092737421393394,2.22192120552063
1733513258600471000,8.952470947265626,-0.23082458972930908,-0.3373696208000183,2.0485870838165283
1733513258610490000,8.962489990234374,-0.20518633723258972,-0.8764919638633728,1.9450092315673828
1733513258620509200,8.97250927734375,-0.3107683062553406,-1.3149714469909668,1.3136839866638184
1733513258630528000,8.982528076171874,-0.4440848231315613,-1.7006182670593262,0.5274682641029358
1733513258640547000,8.992547119140625,-0.6302050352096558,-2.260463237762451,0.6678019762039185
1733513258650566100,9.002566162109375,-0.7911177277565002,-1.4552074670791626,1.0542055368423462
1733513258660585200,9.012585205078125,-0.7628498673439026,0.8145971894264221,1.9281708002090454
1733513258670604000,9.02260400390625,-0.45002245903015137,2.3462603092193604,2.89738130569458
1733513258680623000,9.032623046875,-0.12835434079170227,2.6079463958740234,3.074514150619507
1733513258690643200,9.042643310546875,-0.02209608443081379,2.3103270530700684,2.584866762161255
1733513258700662000,9.052662109375,-0.07874560356140137,2.0524134635925293,1.9786516427993774
1733513258710681000,9.06268115234375,-0.178185373544693,2.1751580238342285,1.517051339149475
1733513258720700000,9.072699951171876,-0.2671806514263153,2.5634982585906982,1.2076735496520996
1733513258730719000,9.082718994140626,-0.3346848487854004,3.142362117767334,1.0552654266357422
1733513258740738000,9.092738037109376,-0.406596302986145,3.6090991497039795,0.9451321363449097
1733513258750756900,9.1027568359375,-0.5281751751899719,3.58536696434021,0.7098489999771118
1733513258760776000,9.11277587890625,-0.6427207589149475,3.143834352493286,0.35951271653175354
1733513258770795000,9.122794921875,-0.6849175095558167,2.5297086238861084,-0.012480017729103565
1733513258780814000,9.13281396484375,-0.6996687650680542,1.932172179222107,-0.35800984501838684
1733513258790833000,9.1428330078125,-0.7041007876396179,1.3880975246429443,-0.6519405245780945
1733513258800853000,9.15285302734375,-0.6810711622238159,0.7997360825538635,-0.8837060332298279
1733513258810872000,9.1628720703125,-0.6398012042045593,0.07462868094444275,-1.1062476634979248
1733513258820891100,9.17289111328125,-0.6256320476531982,-0.6856824159622192,-1.394582748413086
1733513258830910000,9.182909912109375,-0.589336633682251,-1.3479585647583008,-1.6910450458526611
1733513258840929000,9.192928955078125,-0.5356138944625854,-1.9098739624023438,-1.9106520414352417
1733513258850948000,9.202947998046875,-0.4267425239086151,-2.3295276165008545,-1.6759021282196045
1733513258860967200,9.21296728515625,-0.28283220529556274,-1.5333929061889648,-0.23591336607933044
1733513258870986000,9.222986083984376,-0.07320361584424973,0.9176468253135681,0.6234706044197083
1733513258881005000,9.233005126953126,0.005518912337720394,2.075415849685669,0.24534296989440918
1733513258891024100,9.243024169921876,-0.14530149102210999,2.351813316345215,-0.10676634311676025
1733513258901043200,9.253043212890624,-0.3482944071292877,2.337756395339966,-0.0709843784570694
1733513258911062000,9.26306201171875,-0.5307909846305847,2.1768412590026855,0.19919811189174652
1733513258921082000,9.27308203125,-0.6858693361282349,1.8536626100540161,0.5594505071640015
1733513258931101200,9.28310107421875,-0.7866886258125305,1.2816147804260254,0.9045005440711975
1733513258941120300,9.293120361328125,-0.868024468421936,0.448324054479599,1.0795974731445312
1733513258951139000,9.30313916015625,-0.8070721626281738,-0.45924076437950134,0.7474026679992676
1733513258961158100,9.313158203125,-0.5473268032073975,-1.0416944026947021,0.06248198822140694
1733513258971177200,9.32317724609375,-0.3386729061603546,-1.5042437314987183,-0.8892683982849121
1733513258981196300,9.3331962890625,-0.2114836573600769,-2.2236461639404297,-1.805226445198059
1733513258991215000,9.343215087890625,-0.12359987199306488,-2.8738369941711426,-2.103407859802246
1733513259001234200,9.353234130859375,-0.0509565994143486,-2.727527379989624,-1.7933496236801147
1733513259011253000,9.3632529296875,0.19034017622470856,-1.0545867681503296,-1.3817893266677856
1733513259021272000,9.37327197265625,0.4983944892883301,0.2902931272983551,-0.9395133256912231
1733513259031292000,9.3832919921875,0.7192437648773193,-0.1651928722858429,-0.17243076860904694
1733513259041311000,9.39331103515625,0.506151020526886,-0.7501315474510193,0.1415766030550003
1733513259051330000,9.403330078125,0.05952877178788185,-1.0298893451690674,-0.02801535464823246
1733513259061349000,9.41334912109375,-0.15037810802459717,-1.169919490814209,-0.5552669763565063
1733513259071368000,9.423367919921875,0.02716071903705597,-0.9994210004806519,-1.2975231409072876
1733513259081387000,9.433386962890625,0.32381904125213623,-0.533380389213562,-2.0177273750305176
1733513259091406000,9.443406005859375,0.5344864726066589,-0.5716511011123657,-2.449793815612793
1733513259101425200,9.453425048828125,0.7325961589813232,-0.7644584774971008,-2.544816732406616
1733513259111444000,9.46344384765625,0.9149971604347229,-0.9198935627937317,-2.3904311656951904
1733513259121463000,9.473463134765625,0.9846432209014893,-0.9246332049369812,-2.102492570877075
1733513259131482000,9.483482177734375,0.7526171803474426,-0.6513800621032715,-1.8843284845352173
1733513259141502200,9.493502197265625,0.42798495292663574,-0.13765402138233185,-1.738613486289978
1733513259151521000,9.50352099609375,0.2557702958583832,0.4534447193145752,-1.625633955001831
1733513259161540000,9.5135400390625,0.3935436010360718,0.8464351296424866,-1.485404372215271
1733513259171559200,9.52355908203125,0.5861010551452637,1.056895136833191,-1.3215550184249878
1733513259181578200,9.533578125,0.5920353531837463,1.0880252122879028,-1.1692336797714233
1733513259191597000,9.54359716796875,0.2743165194988251,1.0028953552246094,-1.106353759765625
1733513259201615600,9.55361572265625,-0.0836208239197731,0.7214276790618896,-1.1651816368103027
1733513259211634700,9.563634765625,-0.28595608472824097,-0.3049425780773163,-1.6660034656524658
1733513259221653500,9.573653564453124,-0.3937889337539673,-2.1552155017852783,-2.800704002380371
1733513259231672600,9.583672607421875,-0.4467371106147766,-3.0231075286865234,-3.3329553604125977
1733513259241691600,9.593691650390625,-0.452235609292984,-3.183730363845825,-3.2079854011535645
1733513259251710700,9.603710693359375,-0.5462968945503235,-3.0005240440368652,-2.6490612030029297
1733513259261730600,9.61373046875,-0.6876538395881653,-2.65024995803833,-1.9635146856307983
1733513259271749400,9.623749267578125,-0.7964144349098206,-2.2003509998321533,-1.3799653053283691
1733513259281768400,9.6337685546875,-0.807279109954834,-1.690746545791626,-0.9911549091339111
1733513259291787500,9.64378759765625,-0.7072198390960693,-1.1796172857284546,-0.7270585894584656
1733513259301806300,9.653806396484375,-0.5259077548980713,-0.813833475112915,-0.4546387493610382
1733513259311825400,9.663825439453126,-0.35689765214920044,-0.6506804823875427,-0.18916314840316772
1733513259321844500,9.673844482421876,-0.25071197748184204,-0.5492108464241028,0.009611779823899269
1733513259331863600,9.683863525390626,-0.1932409703731537,-0.3857342600822449,0.13741502165794373
1733513259341882400,9.69388232421875,-0.16220252215862274,-0.12768377363681793,0.23292239010334015
1733513259351901400,9.7039013671875,-0.1129731833934784,0.11168406158685684,0.321190744638443
1733513259361920500,9.71392041015625,-0.05307012423872948,0.29816943407058716,0.3754371106624603
1733513259371940600,9.723940673828125,0.00798337534070015,0.4704040586948395,0.34296944737434387
1733513259381959700,9.733959716796875,0.08365384489297867,0.6238126158714294,0.1706492155790329
1733513259391978500,9.743978515625,0.1692342609167099,0.7519618272781372,-0.17886777222156525
1733513259401997600,9.75399755859375,0.2406623512506485,0.7831552028656006,-0.6675482392311096
1733513259412016600,9.7640166015625,0.27952131628990173,0.6624855399131775,-1.2204606533050537
1733513259422035500,9.774035400390625,0.3037252426147461,0.45475029945373535,-1.705847978591919
1733513259432054500,9.784054443359375,0.35737916827201843,0.16350461542606354,-2.0769424438476562
1733513259442073600,9.794073486328125,0.4417768120765686,-0.27529045939445496,-2.4144060611724854
1733513259452092700,9.8040927734375,0.5221496820449829,-0.8750537633895874,-2.800443172454834
1733513259462111500,9.814111572265626,0.5552091002464294,-1.6347553730010986,-3.1432502269744873
1733513259472130600,9.824130615234376,0.3844275176525116,-2.4444587230682373,-3.2328693866729736
1733513259482150700,9.834150634765624,-0.08178336918354034,-3.116870880126953,-2.9762916564941406
1733513259492169700,9.844169677734374,-0.6269444227218628,-3.7567126750946045,-2.5784029960632324
1733513259502188800,9.854188720703124,-1.001356601715088,-4.72927188873291,-2.027653932571411
1733513259512207600,9.86420751953125,-0.8312695026397705,-5.332265377044678,0.2178903967142105
1733513259522226700,9.874226806640625,-0.5012345314025879,-2.5686986446380615,2.290894031524658
1733513259532245800,9.884245849609375,-0.13987180590629578,0.578770637512207,3.659874677658081
1733513259542264600,9.8942646484375,0.11766300350427628,2.149437665939331,4.25197696685791
1733513259552283600,9.90428369140625,0.2607005834579468,2.467825412750244,4.476585865020752
1733513259562302500,9.914302490234375,0.4536304473876953,2.3284385204315186,4.524162292480469
1733513259572321500,9.924321533203125,0.6599529981613159,1.5355846881866455,4.341062068939209
1733513259582341600,9.934341552734375,0.7401135563850403,0.8791163563728333,4.05607271194458
1733513259592360400,9.9443603515625,0.5922830700874329,0.8846544027328491,3.7377493381500244
1733513259602379500,9.954379638671876,0.3195663392543793,1.0823794603347778,3.3932037353515625
1733513259612398600,9.964398681640626,0.08614318072795868,1.2550452947616577,3.1634366512298584
1733513259622417400,9.97441748046875,-0.07114436477422714,1.4163738489151,3.0369412899017334
1733513259632436500,9.9844365234375,-0.18088044226169586,1.4214398860931396,3.0131514072418213
1733513259642455600,9.99445556640625,-0.2571110427379608,1.2454659938812256,3.0498456954956055
1733513259652474600,10.004474609375,-0.37018486857414246,0.9872342348098755,3.0518150329589844
1733513259662493400,10.014493408203125,-0.492937833070755,0.5305899977684021,3.0070908069610596
1733513259672512500,10.024512451171875,-0.5933147668838501,0.1598936915397644,2.8228297233581543
1733513259682531600,10.034531494140625,-0.5605478286743164,-0.2678126096725464,2.5520970821380615
1733513259692551700,10.0445517578125,-0.41731715202331543,-0.9761587977409363,2.2604799270629883
1733513259702570800,10.05457080078125,-0.36472538113594055,-1.6292868852615356,1.8504515886306763
1733513259712589600,10.064589599609375,-0.5447172522544861,-2.1448590755462646,1.172853946685791
1733513259722608600,10.074608642578125,-0.838436484336853,-2.1398873329162598,0.43252551555633545
1733513259732627700,10.084627685546875,-0.9514613151550293,-1.763373851776123,-0.009285451844334602
1733513259742646500,10.094646484375,-0.9882574677467346,-1.327195644378662,-0.05677619203925133
1733513259752665600,10.10466552734375,-1.0130215883255005,-0.43702080845832825,0.37447428703308105
1733513259762684700,10.1146845703125,-0.8202394247055054,1.6317694187164307,1.4976657629013062
1733513259772703700,10.124703857421874,-0.3330093324184418,3.0624496936798096,2.510995388031006
1733513259782722600,10.13472265625,0.027708176523447037,3.3269925117492676,2.633364200592041
1733513259792741600,10.14474169921875,0.1445716917514801,3.076237678527832,2.2376856803894043
1733513259802761500,10.154761474609375,0.06907546520233154,2.6592931747436523,1.7504533529281616
1733513259812780500,10.164780517578125,-0.08173615485429764,2.5312373638153076,1.4127320051193237
1733513259822799600,10.174799560546875,-0.23544077575206757,2.656259059906006,1.2019904851913452
1733513259832818400,10.184818359375,-0.3518885374069214,2.796802043914795,1.0092005729675293
1733513259842837500,10.19483740234375,-0.4248759150505066,2.7476565837860107,0.7755347490310669
1733513259852856600,10.204856689453125,-0.3897855579853058,2.4760913848876953,0.5323828458786011
1733513259862875400,10.21487548828125,-0.32339954376220703,2.039278030395508,0.2499920129776001
1733513259872894500,10.22489453125,-0.3466185927391052,1.5048636198043823,-0.07285954058170319
1733513259882913500,10.23491357421875,-0.4152413606643677,1.1283254623413086,-0.32821327447891235
1733513259892932600,10.2449326171875,-0.48514801263809204,0.7384711503982544,-0.5581961274147034
1733513259902952700,10.25495263671875,-0.5167568922042847,0.23109222948551178,-0.8355492949485779
1733513259912971500,10.264971435546874,-0.5038951635360718,-0.3390335440635681,-1.1612796783447266
1733513259922990600,10.274990478515624,-0.4549270272254944,-0.8274526000022888,-1.4373294115066528
1733513259933009700,10.285009765625,-0.37695392966270447,-1.0848073959350586,-1.6685326099395752
1733513259943028500,10.295028564453125,-0.2508610785007477,-1.171714425086975,-1.5140926837921143
1733513259953047600,10.305047607421875,-0.14809183776378632,-0.7360918521881104,-0.46506795287132263
1733513259963066600,10.315066650390625,-0.09954695403575897,0.7899999022483826,0.5788254141807556
1733513259973085700,10.325085693359375,-0.09601347148418427,1.896681308746338,0.4889783263206482
1733513259983104500,10.3351044921875,-0.16584663093090057,2.2350411415100098,0.11567007005214691
1733513259993123600,10.34512353515625,-0.3393915295600891,2.272210121154785,-0.009855368174612522
1733513260003142700,10.355142578125,-0.5303757190704346,2.101849317550659,0.11446491628885269
1733513260013162500,10.36516259765625,-0.6704190969467163,1.7750483751296997,0.35765066742897034
1733513260023181600,10.375181640625,-0.7666506171226501,1.25295090675354,0.6055392026901245
1733513260033200400,10.385200439453126,-0.8538763523101807,0.6686765551567078,0.7559502720832825
1733513260043219500,10.395219482421876,-0.9310196042060852,0.03698645159602165,0.6027047634124756
1733513260053238500,10.405238525390626,-0.9284000992774963,-0.6568750739097595,0.07234210520982742
1733513260063257300,10.41525732421875,-0.7623162865638733,-1.2066229581832886,-0.7839142680168152
1733513260073276400,10.4252763671875,-0.5076190233230591,-1.613942265510559,-1.7789942026138306
1733513260083295500,10.43529541015625,-0.2452181875705719,-2.361283540725708,-2.4263100624084473
1733513260093314600,10.445314453125,0.05386252701282501,-3.1743950843811035,-1.8698996305465698
1733513260103333400,10.45533349609375,0.38311800360679626,-2.1575331687927246,-0.7941827774047852
1733513260113353500,10.465353515625,0.39505746960639954,0.6695110201835632,-0.8584100008010864
1733513260123372500,10.47537255859375,0.31706002354621887,2.1599929332733154,-0.5849355459213257
1733513260133391600,10.4853916015625,0.48755186796188354,1.7221407890319824,0.2295035719871521
1733513260143410700,10.49541064453125,0.5126341581344604,0.6448423862457275,0.600333571434021
1733513260153429500,10.505429443359375,0.2143375128507614,-0.3421860635280609,0.46151068806648254
1733513260163448600,10.515448486328125,-0.07993775606155396,-0.7231460213661194,-0.03829226642847061
1733513260173467600,10.525467529296876,-0.07489186525344849,-0.6435691714286804,-0.7841225266456604
1733513260183486500,10.535486572265626,0.1302017867565155,-0.3587193787097931,-1.648406744003296
1733513260193505500,10.545505615234376,0.3872780501842499,-0.27332964539527893,-2.3288965225219727
1733513260203525400,10.555525390625,0.6699386835098267,-0.4902867376804352,-2.617257595062256
1733513260213544200,10.565544189453124,0.9823543429374695,-1.0234334468841553,-2.559532403945923
1733513260223564000,10.57556396484375,1.192538857460022,-1.4375494718551636,-2.33498215675354
1733513260233583000,10.5855830078125,1.1102279424667358,-1.3769959211349487,-2.1085989475250244
1733513260243602200,10.595602294921875,0.7778581976890564,-0.8829967379570007,-1.8773245811462402
1733513260253621200,10.605621337890625,0.457946240901947,-0.1786678582429886,-1.658634901046753
1733513260263640000,10.61564013671875,0.3679892122745514,0.789604663848877,-1.4482628107070923
1733513260273659100,10.6256591796875,0.5005896091461182,1.527339220046997,-1.2433032989501953
1733513260283678200,10.63567822265625,0.5022357106208801,1.7960960865020752,-1.111978530883789
1733513260293697000,10.645697021484375,0.3286963999271393,1.6412569284439087,-1.0546507835388184
1733513260303716000,10.655716064453125,0.08275498449802399,1.129353404045105,-1.1419907808303833
1733513260313735200,10.665735107421876,-0.15563760697841644,-0.07108161598443985,-1.6683293581008911
1733513260323755300,10.67575537109375,-0.313010036945343,-1.9701608419418335,-2.8686106204986572
1733513260333774300,10.6857744140625,-0.40436017513275146,-2.6944026947021484,-3.3883285522460938
1733513260343793200,10.695793212890624,-0.4645131528377533,-2.7051069736480713,-3.223924398422241
1733513260353812200,10.705812255859374,-0.5369529724121094,-2.470395088195801,-2.6457998752593994
1733513260363831300,10.715831298828125,-0.6520152688026428,-2.1841368675231934,-1.9706952571868896
1733513260373850400,10.725850341796875,-0.7784996628761292,-1.8823137283325195,-1.428076982498169
1733513260383869200,10.735869140625,-0.8204686045646667,-1.5224177837371826,-1.07538640499115
1733513260393888300,10.74588818359375,-0.7420832514762878,-1.0869289636611938,-0.7972576022148132
1733513260403907300,10.7559072265625,-0.5958392024040222,-0.6545448303222656,-0.4731805920600891
1733513260413926100,10.765926025390625,-0.48333820700645447,-0.2732236087322235,-0.08899219334125519
1733513260423946200,10.7759462890625,-0.4223858416080475,0.04505012184381485,0.2813945412635803
1733513260433965300,10.78596533203125,-0.3808967173099518,0.2681870758533478,0.5696622729301453
1733513260443984400,10.795984375,-0.3381846249103546,0.382822722196579,0.7494276762008667
1733513260454003500,10.80600341796875,-0.28404176235198975,0.4524310827255249,0.8129139542579651
1733513260464022300,10.816022216796876,-0.2173638790845871,0.5465944409370422,0.7370315790176392
1733513260474041300,10.826041259765624,-0.14154979586601257,0.682144820690155,0.5192172527313232
1733513260484060200,10.83606005859375,-0.05550886690616608,0.8018212914466858,0.1575198769569397
1733513260494079200,10.846079345703124,0.020812802016735077,0.8183611631393433,-0.3258305490016937
1733513260504098300,10.856098388671874,0.07727999240159988,0.6301477551460266,-0.8943049907684326
1733513260514117000,10.8661171875,0.12295400351285934,0.2993823289871216,-1.4780030250549316
1733513260524137200,10.87613720703125,0.22991995513439178,-0.0013518822379410267,-1.979727864265442
1733513260534156300,10.88615625,0.4542260468006134,-0.32354217767715454,-2.433258533477783
1733513260544175000,10.896175048828125,0.7027288675308228,-0.7587336897850037,-2.9280805587768555
1733513260554194200,10.906194091796875,0.8300668597221375,-1.274705171585083,-3.345118761062622
1733513260564213200,10.916213134765625,0.7418665885925293,-1.7766668796539307,-3.438483476638794
1733513260574232300,10.926232421875,0.40674343705177307,-2.181570529937744,-3.125295639038086
1733513260584251100,10.936251220703125,-0.07045944780111313,-2.4114484786987305,-2.5713348388671875
1733513260594270200,10.946270263671876,-0.4958794414997101,-2.7518694400787354,-2.0609023571014404
1733513260604289300,10.956289306640626,-0.7805995941162109,-3.314988136291504,-1.775193691253662
1733513260614308000,10.96630810546875,-0.856595516204834,-3.784782648086548,-1.3185925483703613
1733513260624328200,10.976328125,-0.6370115280151367,-3.280622959136963,0.38693922758102417
1733513260634347300,10.98634716796875,-0.4443952143192291,-0.8956048488616943,2.3858389854431152
1733513260644366300,10.996366455078125,-0.17691776156425476,1.4598565101623535,3.7956383228302
1733513260654385400,11.006385498046875,0.07227820158004761,2.379051446914673,4.299318790435791
1733513260664404200,11.016404296875,0.32272639870643616,2.1888675689697266,4.352809906005859
1733513260674423300,11.02642333984375,0.5568896532058716,1.740824580192566,4.272166728973389
1733513260684442400,11.0364423828125,0.7999267578125,1.1882359981536865,4.22800350189209
1733513260694461400,11.04646142578125,0.9154752492904663,0.57657790184021,4.1147284507751465
1733513260704480300,11.056480224609375,0.75067138671875,0.18775628507137299,3.8541550636291504
1733513260714499300,11.066499267578125,0.4660343527793884,-0.018830975517630577,3.4961326122283936
1733513260724519200,11.076519287109376,0.21996308863162994,-0.10276079922914505,3.2044434547424316
1733513260734538200,11.086538330078126,-0.0049818819388747215,0.0338234081864357,3.011091947555542
1733513260744557000,11.09655712890625,-0.1738697588443756,0.051026247441768646,2.876075506210327
1733513260754576100,11.106576171875,-0.29295220971107483,-0.07872695475816727,2.8134777545928955
1733513260764595200,11.11659521484375,-0.4024454355239868,-0.3221220374107361,2.781996965408325
1733513260774614300,11.1266142578125,-0.48095595836639404,-0.7046752572059631,2.6969382762908936
1733513260784633000,11.136633056640624,-0.4828697144985199,-1.060950756072998,2.5146234035491943
1733513260794652200,11.146652099609375,-0.4148637652397156,-1.1881784200668335,2.287966728210449
1733513260804671200,11.156671142578125,-0.34099051356315613,-1.0563503503799438,2.0281920433044434
1733513260814690300,11.166690185546875,-0.35269615054130554,-0.7459155917167664,1.647406816482544
1733513260824710100,11.176710205078125,-0.4332568645477295,-0.26242324709892273,0.8302411437034607
1733513260834729200,11.186729248046875,-0.5645357966423035,-0.187127947807312,-0.054453227669000626
1733513260844748300,11.196748291015625,-0.7654701471328735,-0.9039623737335205,-0.27474528551101685
1733513260854767400,11.206767333984375,-1.0289034843444824,-1.7247244119644165,0.1386694610118866
1733513260864786200,11.2167861328125,-1.1793779134750366,-0.8896808624267578,0.8380321860313416
1733513260874805200,11.22680517578125,-0.9416470527648926,1.1753140687942505,1.9116572141647339
1733513260884824300,11.23682421875,-0.5115793347358704,2.3412458896636963,2.5883350372314453
1733513260894843400,11.246843505859376,-0.29487523436546326,2.6174209117889404,2.5355613231658936
1733513260904862200,11.2568623046875,-0.2675465941429138,2.507397174835205,2.0716724395751953
1733513260914881300,11.26688134765625,-0.3191080391407013,2.5541343688964844,1.639243721961975
1733513260924901000,11.276901123046875,-0.3751603960990906,2.8923733234405518,1.385892391204834
1733513260934920200,11.286920166015625,-0.40375208854675293,3.33968186378479,1.2439768314361572
1733513260944939300,11.296939208984375,-0.4382467567920685,3.601344108581543,1.0905647277832031
1733513260954958000,11.3069580078125,-0.5605902671813965,3.452979326248169,0.8007293343544006
1733513260964977200,11.31697705078125,-0.6789849996566772,2.992734909057617,0.4043932259082794
1733513260974996200,11.326996337890625,-0.7129999995231628,2.398158311843872,0.015889164060354233
1733513260985015000,11.33701513671875,-0.6749064922332764,1.811906337738037,-0.3112650215625763
1733513260995034000,11.3470341796875,-0.6202512383460999,1.3239659070968628,-0.5486972332000732
1733513261005053200,11.35705322265625,-0.5670068860054016,0.8373585343360901,-0.6862707734107971
1733513261015072300,11.367072265625,-0.5437609553337097,0.28330758213996887,-0.7901713252067566
1733513261025092000,11.377092041015626,-0.5044177770614624,-0.30577945709228516,-0.8494546413421631
1733513261035111200,11.387111083984376,-0.47571316361427307,-0.8084931969642639,-0.8622072339057922
1733513261045130200,11.397130126953124,-0.4791513979434967,-1.1388804912567139,-0.7387962341308594
1733513261055149300,11.4071494140625,-0.4648512899875641,-0.9117973446846008,-0.30425697565078735
1733513261065168100,11.417168212890624,-0.25150051712989807,0.2924383282661438,0.35068386793136597
1733513261075187200,11.427187255859375,0.1305006444454193,1.305652379989624,0.4434817135334015
1733513261085206300,11.437206298828125,0.1798032969236374,1.7236281633377075,0.15460577607154846
1733513261095225300,11.447225341796875,-0.0064267683774232864,2.1197426319122314,0.025960184633731842
1733513261105244200,11.457244140625,-0.23939678072929382,2.3384833335876465,0.1325007826089859
1733513261115264300,11.46726416015625,-0.4746748208999634,2.299644947052002,0.3542257249355316
1733513261125283300,11.477283447265625,-0.6943033337593079,2.038947105407715,0.5873094201087952
1733513261135302400,11.487302490234375,-0.9049583077430725,1.5419971942901611,0.7950870990753174
1733513261145321200,11.4973212890625,-1.088060736656189,0.6643458604812622,0.9162647128105164
1733513261155340300,11.50734033203125,-1.131740927696228,-0.5990875363349915,0.6602752804756165
1733513261165359400,11.517359375,-0.9003474712371826,-1.6774101257324219,-0.2144843190908432
1733513261175378400,11.52737841796875,-0.6192750334739685,-2.3022711277008057,-1.3804819583892822
1733513261185397200,11.537397216796874,-0.35292163491249084,-2.7126686573028564,-2.1084563732147217
1733513261195415600,11.54741552734375,-0.08004830032587051,-2.5242581367492676,-1.699467658996582
1733513261205434600,11.5574345703125,-0.05766197666525841,-1.0710681676864624,-0.9682436585426331
1733513261215454500,11.567454345703124,-0.07378102093935013,0.4779438376426697,-0.4941418766975403
1733513261225473300,11.577473388671875,0.2269057333469391,0.6318390369415283,-0.09273513406515121
1733513261235492400,11.587492431640625,0.5478706955909729,-0.25071921944618225,0.15235957503318787
1733513261245511400,11.597511474609375,0.4371750056743622,-1.0949411392211914,0.06640110909938812
1733513261255530500,11.607530517578125,0.17663905024528503,-1.6911755800247192,-0.26515495777130127
1733513261265549300,11.61754931640625,0.14221647381782532,-2.1837494373321533,-0.8355119228363037
1733513261275568400,11.627568359375,0.4134807586669922,-2.3230717182159424,-1.5452477931976318
1733513261285587500,11.63758740234375,0.7618821859359741,-2.023186683654785,-2.2612199783325195
1733513261295606300,11.647606201171875,0.9939258098602295,-1.5060011148452759,-2.8567183017730713
1733513261305625300,11.657625244140625,1.121181845664978,-0.9610326290130615,-3.2134881019592285
1733513261315645400,11.6676455078125,1.1347647905349731,-0.5252166986465454,-3.216268539428711
1733513261325664500,11.67766455078125,0.9695900082588196,-0.14622819423675537,-2.994677782058716
1733513261335683600,11.68768359375,0.6914401650428772,0.14502868056297302,-2.6126840114593506
1733513261345702400,11.697702392578124,0.5286952257156372,0.4659225344657898,-2.072852849960327
1733513261355721500,11.707721435546874,0.6243522763252258,0.8218505382537842,-1.4617133140563965
1733513261365740500,11.717740478515625,0.7125858664512634,1.2942569255828857,-0.9959411025047302
1733513261375759600,11.727759521484375,0.5236556529998779,1.5433546304702759,-0.8239744305610657
1733513261385778400,11.7377783203125,0.2566244304180145,1.3524707555770874,-0.9012366533279419
1733513261395797500,11.747797607421875,-0.005445519927889109,1.0120817422866821,-1.0379643440246582
1733513261405817600,11.757817626953125,-0.21811918914318085,0.30688902735710144,-1.3743565082550049
1733513261415836700,11.767836669921875,-0.3177339434623718,-1.3838986158370972,-2.514646053314209
1733513261425855500,11.77785546875,-0.4586731791496277,-2.492166042327881,-3.297360420227051
1733513261435874600,11.78787451171875,-0.4766993224620819,-2.903045177459717,-3.3639471530914307
1733513261445893600,11.7978935546875,-0.476656973361969,-2.999366521835327,-2.919949531555176
1733513261455912700,11.80791259765625,-0.5961554050445557,-2.9639341831207275,-2.2674756050109863
1733513261465931500,11.817931640625,-0.7651089429855347,-2.8348734378814697,-1.7163840532302856
1733513261475950600,11.82795068359375,-0.8702108263969421,-2.5477294921875,-1.3319439888000488
1733513261485969700,11.8379697265625,-0.8237961530685425,-2.1244399547576904,-1.0708682537078857
1733513261495988500,11.847988525390624,-0.6491601467132568,-1.6254119873046875,-0.8205922245979309
1733513261506008300,11.85800830078125,-0.4675629138946533,-1.1374170780181885,-0.5513125658035278
1733513261516027400,11.86802734375,-0.33302080631256104,-0.6805435419082642,-0.2829005718231201
1733513261526046500,11.87804638671875,-0.2348855882883072,-0.32261550426483154,-0.0659346655011177
1733513261536065500,11.8880654296875,-0.17298094928264618,-0.05913830175995827,0.08078420162200928
1733513261546084400,11.89808447265625,-0.12902313470840454,0.12672248482704163,0.14552870392799377
1733513261556103400,11.908103515625,-0.0858229398727417,0.2525818943977356,0.11147619783878326
1733513261566122500,11.91812255859375,-0.03447563201189041,0.34763097763061523,-0.01480842661112547
1733513261576141600,11.9281416015625,0.03633462265133858,0.41390401124954224,-0.22063055634498596
1733513261586160400,11.938160400390625,0.10791783034801483,0.423544704914093,-0.5113257169723511
1733513261596180500,11.948180419921876,0.17077456414699554,0.36577674746513367,-0.8782446384429932
1733513261606199600,11.958199462890626,0.21405693888664246,0.2615469992160797,-1.303623914718628
1733513261616218600,11.968218505859374,0.261202335357666,0.08788226544857025,-1.7428576946258545
1733513261626237400,11.978237548828124,0.3567200303077698,-0.30247288942337036,-2.1981911659240723
1733513261636256500,11.988256591796874,0.47383201122283936,-0.8985149264335632,-2.6782054901123047
1733513261646275600,11.998275634765625,0.5190905928611755,-1.6211087703704834,-3.0462875366210938
1733513261656294700,12.008294677734375,0.4052148461341858,-2.322303295135498,-3.0911636352539062
1733513261666313500,12.0183134765625,0.06862208992242813,-2.8401899337768555,-2.789508819580078
1733513261676332500,12.02833251953125,-0.4038386344909668,-3.1849584579467773,-2.392641305923462
1733513261686351600,12.0383515625,-0.8035462498664856,-3.6073379516601562,-2.2014360427856445
1733513261696371500,12.048371337890625,-0.814635694026947,-4.025326728820801,-1.3479193449020386
1733513261706390300,12.058390380859375,-0.21464096009731293,-2.484049081802368,1.4396774768829346
1733513261716409300,12.068409423828125,0.2079068273305893,0.3907565176486969,3.586463451385498
1733513261726428400,12.078428466796876,0.3930191993713379,1.8331094980239868,4.375269412994385
1733513261736447500,12.088447509765626,0.5795171856880188,2.009333610534668,4.404771327972412
1733513261746466300,12.09846630859375,0.8547143936157227,1.5536410808563232,4.342475414276123
1733513261756485400,12.1084853515625,1.0036746263504028,0.9150621891021729,4.3586201667785645
1733513261766504400,12.11850439453125,0.8927100300788879,0.4072975516319275,4.367770671844482
1733513261776523500,12.1285234375,0.5086148381233215,0.4789600074291229,4.173787593841553
1733513261786543400,12.13854345703125,0.0979481041431427,0.850452721118927,3.756058692932129
1733513261796562400,12.1485625,-0.04251446574926376,1.2242897748947144,3.2903451919555664
1733513261806581500,12.15858154296875,-0.046134013682603836,1.4475204944610596,2.9616281986236572
1733513261816600600,12.1686005859375,-0.02684926427900791,1.5195767879486084,2.810851812362671
1733513261826619400,12.178619384765625,0.027620000764727592,1.3614252805709839,2.7921619415283203
1733513261836638500,12.188638427734375,0.08375144749879837,0.9295989871025085,2.874629020690918
1733513261846657500,12.198657470703125,0.06735909730195999,0.40604400634765625,2.9362711906433105
1733513261856676600,12.208676513671875,0.00016487890388816595,-0.11274001002311707,2.859368324279785
1733513261866695400,12.2186953125,-0.11063159257173538,-0.3644163906574249,2.5979528427124023
1733513261876715500,12.228715576171876,-0.2563818693161011,-0.16298499703407288,2.1742331981658936
1733513261886734600,12.238734619140626,-0.3768416941165924,0.030897390097379684,1.7387263774871826
1733513261896753700,12.248753662109374,-0.44273149967193604,-0.046057045459747314,1.420680046081543
1733513261906772500,12.2587724609375,-0.5059263110160828,-0.387889564037323,1.0541675090789795
1733513261916791600,12.26879150390625,-0.6631127595901489,-0.6230834126472473,0.6035408973693848
1733513261926810600,12.278810546875,-0.8684539198875427,-0.6773210763931274,0.4339369833469391
1733513261936829400,12.288829345703125,-1.09162437915802,-0.4180540442466736,0.4208422303199768
1733513261946848500,12.2988486328125,-1.3157485723495483,0.22437961399555206,0.47190290689468384
1733513261956867600,12.30886767578125,-1.363770604133606,1.5871936082839966,0.8970110416412354
1733513261966887400,12.318887451171875,-1.0676649808883667,3.3951032161712646,1.8497174978256226
1733513261976906500,12.328906494140625,-0.6114617586135864,4.115177154541016,2.509105682373047
1733513261986925600,12.338925537109375,-0.356728196144104,4.129871845245361,2.486448049545288
1733513261996944400,12.3489443359375,-0.33371978998184204,3.9854185581207275,2.0528564453125
1733513262006963500,12.35896337890625,-0.43108218908309937,3.98010516166687,1.5955889225006104
1733513262016982500,12.368982421875,-0.5397859811782837,4.00886344909668,1.2851892709732056
1733513262027001300,12.37900146484375,-0.6264620423316956,3.785168170928955,1.0512046813964844
1733513262037020400,12.3890205078125,-0.6696939468383789,3.2730348110198975,0.7901086211204529
1733513262047039500,12.39903955078125,-0.6831272840499878,2.6070520877838135,0.4990442991256714
1733513262057059600,12.4090595703125,-0.7099453210830688,1.8776824474334717,0.1767197996377945
1733513262067078700,12.41907861328125,-0.7834693789482117,1.2130385637283325,-0.2009935975074768
1733513262077097500,12.429097412109375,-0.8677584528923035,0.6483480930328369,-0.5984141826629639
1733513262087116500,12.439116455078125,-0.8818452954292297,0.10371392220258713,-0.9805864691734314
1733513262097135600,12.449135498046875,-0.740534245967865,-0.4118026793003082,-1.2927396297454834
1733513262107154400,12.459154541015625,-0.4917755126953125,-0.7499938607215881,-1.4848947525024414
1733513262117173500,12.469173583984375,-0.21177606284618378,-0.7764438390731812,-1.477914571762085
1733513262127192600,12.479192626953125,0.11826177686452866,0.011344728991389275,-0.6822584867477417
1733513262137211600,12.489211669921875,0.2754628360271454,1.6425782442092896,0.507781445980072
