time,seconds_elapsed,z,y,x
1733513249683513000,0.03551318359375,-0.230382288557291,-0.1284936934441328,-0.2000332361913286
1733513249693532000,0.045531982421875,-0.12542787613272666,-0.1302326460659504,-0.30661366064883766
1733513249703551000,0.055551025390625,-0.01702478455901146,-0.11279343548715114,-0.3379612773317843
1733513249713570000,0.065570068359375,0.0534042579293251,-0.04757774373292923,-0.3495312305510044
1733513249723589000,0.075589111328125,0.03747136026024818,0.007315291449427604,-0.3969632456703111
1733513249733608000,0.08560791015625,0.02665945886671543,0.006934767699241637,-0.31000253590214993
1733513249743627000,0.095626953125,0.060274728220701214,0.0035696751803159714,-0.13748104629162697
1733513249753646000,0.10564599609375,0.12586977468132973,-0.027076222974061964,0.09704800494788214
1733513249763665000,0.115664794921875,0.007162146714329719,0.002353285127878189,0.333854280404374
1733513249773684000,0.12568408203125,-0.1729880842089653,0.07832067252099513,0.46823199038580054
1733513249783703000,0.135703125,-0.293809343329072,0.16397358762621878,0.49670182314272965
1733513249793723100,0.14572314453125,-0.29145430463552474,0.17456395522356033,0.4336054250974208
1733513249803741000,0.155740966796875,-0.1581090795069933,0.16681611757576464,0.19299999481998384
1733513249813761000,0.165760986328125,0.060167176192998884,0.08003273713588714,-0.1746635431405157
1733513249823780000,0.175780029296875,0.161270758408308,-0.020085341173410414,-0.5638953543085604
1733513249833799200,0.185799072265625,0.2333727025449276,-0.09866612593531608,-0.975274042289704
1733513249843818000,0.19581787109375,0.34984804141521453,-0.19231003979444503,-1.2758426506206393
1733513249853837000,0.205837158203125,0.4414215787410736,-0.23525661659538744,-1.2841091053150593
1733513249863856000,0.215856201171875,0.3843874398767948,-0.20408523326218128,-1.1922126927103847
1733513249873875200,0.225875244140625,0.2743798357158899,-0.04633388115167617,-0.999606446448341
1733513249883894000,0.23589404296875,0.23061200565993784,0.1373123751938343,-0.729934423097223
1733513249893913000,0.2459130859375,0.16083762768805027,0.2275432657390833,-0.5773621541250497
1733513249903933000,0.255932861328125,-0.011398176848888397,0.2819055550456047,-0.02483739453870803
1733513249913952000,0.265951904296875,-0.18424714484810828,0.19963234550654888,0.3291201645545661
1733513249923971000,0.27597119140625,-0.17040157484710217,0.05743395183682441,0.6169403504714369
1733513249933990000,0.285989990234375,-0.044617724883556364,-0.3508493274122476,0.9761537477336824
1733513249944009000,0.296009033203125,-0.006986790147423744,-0.3484410972267389,0.8244270627401769
1733513249954028000,0.306028076171875,-0.022310031485557553,-0.27624855219721794,0.7450946558933704
1733513249964046800,0.316046875,-0.0433048887193203,-0.2374719545572996,0.6119330071708187
1733513249974066000,0.32606591796875,-0.16270809773504732,-0.1794762771844864,0.4659758454894647
1733513249984085000,0.3360849609375,-0.23405893124341964,-0.15649170743823052,0.3345032092997804
1733513249994104000,0.34610400390625,-0.3263812411099672,-0.18444822037816047,0.19512710650917142
1733513250004123000,0.356122802734375,-0.4580523955464363,-0.1269815353155136,-0.03284936301540583
1733513250014142000,0.366141845703125,-0.37752632193565366,0.001558335357904434,-0.29670601461865004
1733513250024161000,0.3761611328125,-0.23410101681947706,0.03042436435818672,-0.4400120772693306
1733513250034180000,0.38618017578125,-0.008410100948810577,-0.01156710367500782,-0.6336069692425429
1733513250044199000,0.396198974609375,0.22922668878138064,-0.04665770627856254,-0.8287129233658314
1733513250054218000,0.406218017578125,0.372381944784522,-0.10903262164890766,-0.8716917950011789
1733513250064237000,0.416237060546875,0.34107670593857764,-0.12369944490492343,-0.7917347534500062
1733513250074256100,0.426256103515625,0.3095394119024277,-0.0573515342503786,-0.6874640855059028
1733513250084275000,0.43627490234375,0.26876959461867805,0.0375578694999218,-0.5829375065719709
1733513250094294000,0.4462939453125,0.1964893713057041,0.1500952843993902,-0.5509450526468456
1733513250104313000,0.45631298828125,0.16073708992302416,0.2561848383337259,-0.5895156428532674
1733513250114332000,0.466331787109375,0.13751461976766585,0.2873690811485052,-0.6484921844895929
1733513250124351000,0.47635107421875,0.2156476607620716,0.2535416303485632,-0.759136552184075
1733513250134370000,0.4863701171875,0.33193887523710724,0.25054887827336786,-0.8694638167534023
1733513250144389000,0.49638916015625,0.42042730602920053,0.2229880866527557,-0.8812347724374383
1733513250154409200,0.5064091796875,0.37333062381148335,0.1746557251602411,-0.7629774455212056
1733513250164428000,0.516427978515625,0.3115419838964939,0.134632926851511,-0.44882966304048894
1733513250174447000,0.526447021484375,0.2166664824157953,0.05699965207278728,0.015804814309999346
1733513250184466200,0.536466064453125,0.11139818173646926,-0.05855915647447109,0.4840459378503263
1733513250194484200,0.546484130859375,0.07395020235180855,-0.1686141069084406,0.8331183917831629
1733513250204503300,0.55650341796875,-0.06274900937974452,-0.23142858273983,0.9347646295078098
1733513250214522000,0.566522216796875,-0.24663871909230947,-0.224835760346055,0.7388295310840011
1733513250224541200,0.576541259765625,-0.3689776892989874,-0.09188917914628981,0.47752515777945514
1733513250234560300,0.586560302734375,-0.3568862694889307,0.05867430728673934,0.2725076121032238
1733513250244579000,0.5965791015625,-0.18853519743084907,0.15552315466701983,0.08593107445947826
1733513250254598100,0.60659814453125,0.07944003193974494,0.17575637987852097,-0.07764628039076923
1733513250264617200,0.6166171875,0.3203963214814663,0.15610650751292704,-0.2550464088883251
1733513250274636300,0.62663623046875,0.48784313817620273,0.10109364534318446,-0.37295199975743887
1733513250284655000,0.636655029296875,0.5880313591122627,0.052073886108398436,-0.41049306425303217
1733513250294674200,0.646674072265625,0.713586661016941,0.04738485150933265,-0.3362693787220865
1733513250304693200,0.656693359375,0.8542240889802575,0.026807342904806134,-0.1456565712995827
1733513250314712300,0.66671240234375,0.870426158979535,-0.03464402787983417,0.2596434543550014
1733513250324731100,0.676731201171875,0.6785331755533814,-0.1291769995331764,0.7936362031571567
1733513250334750200,0.686750244140625,0.29902970832586284,-0.22688334052562711,1.0853587302748113
1733513250344769300,0.696769287109375,-0.08193886301815509,-0.2776052275031805,1.0742028377491981
1733513250354788400,0.706788330078125,-0.31984394829571244,-0.2130985608011484,1.0171127309139818
1733513250364807200,0.71680712890625,-0.4511491920292377,-0.13320961605012416,0.9165001470860094
1733513250374826200,0.726826171875,-0.4585843104660511,-0.09406710770726204,0.6918035029496997
1733513250384845300,0.73684521484375,-0.3288561067909002,-0.24585282941162584,0.35392997696660455
1733513250394864000,0.746864013671875,-0.16395166805535555,-0.25049217965006826,0.06210844645388424
1733513250404883200,0.75688330078125,-0.24851298853158948,-0.02276946569085121,-0.2422482290484011
1733513250414902300,0.76690234375,-0.40392479177862406,-0.17876374500095843,-0.7056303682502358
1733513250424921300,0.77692138671875,-0.39350422779023647,-0.4849140989869833,-1.091279498625919
1733513250434940200,0.786940185546875,-0.23318273293077946,-0.5371031359076499,-1.335331196899712
1733513250444959200,0.796959228515625,-0.2298334225028753,-0.1344452953249216,-1.4297554474815726
1733513250454978300,0.806978271484375,-0.38993075321763754,-0.1390776313006878,-1.5138818836718797
1733513250464998100,0.816998046875,-0.4397898858860135,-0.14749123938083647,-1.5264204627275466
1733513250475017200,0.827017333984375,-0.45449937923997635,-0.3767933314859867,-1.5807552795052529
1733513250485036000,0.8370361328125,-0.2762327701061964,-0.2748264104396105,-1.3915209938943385
1733513250495055000,0.84705517578125,-0.20755144806802273,0.34169805270731446,-1.2171736770961432
1733513250505074200,0.85707421875,-0.39827801806330676,0.7626537665247917,-1.3232549746587872
1733513250515093000,0.867093017578125,-0.7933166158139705,0.9867284793704748,-1.586377795562148
1733513250525112000,0.877112060546875,-0.7004711588561534,0.533828059759736,-1.9777942572928964
1733513250535131100,0.887131103515625,-0.2772907547265291,-0.17585107242465017,-1.4341507598310708
1733513250545150200,0.897150146484375,0.7831687312871217,-0.8318991521865129,-0.20331118014976382
1733513250555169000,0.9071689453125,1.2845958659186958,-1.0634352869540453,1.3418985925912856
1733513250565188000,0.91718798828125,0.3996303094550967,-0.9414999291121959,3.15887261172235
1733513250575207200,0.927207275390625,-1.0324833915904164,-0.6751911716490984,4.814420681883394
1733513250585226200,0.937226318359375,-1.807614070111513,-0.7243506316155195,5.172646383282542
1733513250595245000,0.9472451171875,-1.2597595308259129,-1.0587895069748163,4.0379514482349155
1733513250605264100,0.95726416015625,-0.22495529507249593,-1.0555267057865858,3.2248744854182
1733513250615283200,0.967283203125,0.22373685919344424,-0.8723498205184936,2.739816886307299
1733513250625302000,0.977302001953125,0.011018822142481803,-0.2573433607190847,2.343185028015822
1733513250635321000,0.987321044921875,-0.8903750142917036,0.9216022194653749,1.870331369178742
1733513250645340200,0.997340087890625,-1.9517241426214575,1.4261018934100866,0.9655829616196453
1733513250655359200,1.007359130859375,-2.243736957922578,1.076841296494007,-0.15433321423009036
1733513250665378000,1.0173779296875,-2.0190555113554,0.4019651821434498,-1.0274455435536802
1733513250675397000,1.027397216796875,-1.7100106049716473,-0.28938334358036516,-1.6055471909344194
1733513250685416200,1.037416259765625,-1.5187681944087146,-0.8715764980584383,-2.131556101375818
1733513250695435300,1.047435302734375,-1.449089093504846,-1.189208031001687,-2.5563871953219173
1733513250705454000,1.0574541015625,-1.6859031686753034,-1.1737380746692418,-2.8405677095621824
1733513250715473200,1.06747314453125,-2.2129913987860084,-0.9209048848509788,-2.8589544301241636
1733513250725492200,1.0774921875,-2.6053990635111925,-0.6436760894447565,-2.721151641064882
1733513250735511300,1.08751123046875,-2.2567492919698355,-0.4945347447693348,-2.412495441737771
1733513250745530000,1.097530029296875,-1.3705296437919139,-0.5939180790632963,-1.722167198972404
1733513250755549200,1.107549072265625,-0.6390382005110382,-0.9529758473724126,-0.9314419148258865
1733513250765568300,1.117568359375,-0.27214900792390107,-1.365693309676647,-0.3370481810748577
1733513250775587000,1.127587158203125,-0.3118754536345601,-1.6103022765070198,0.00904328428581357
1733513250785606100,1.137606201171875,-0.8176306805983186,-1.640392294344306,0.14218494966626166
1733513250795625200,1.147625244140625,-1.6837909988269208,-1.3804413814753294,0.10677578263282775
1733513250805644300,1.157644287109375,-2.5644872074082494,-0.8285726381123065,-0.020111790788918733
1733513250815664400,1.167664306640625,-3.337383551006019,-0.2055383546799421,-0.17828195283338427
1733513250825683200,1.17768310546875,-3.7278099787861105,0.3676771280944347,-0.2794974709905684
1733513250835702300,1.187702392578125,-3.488327561189234,0.707353904107213,-0.1645630779519677
1733513250845721300,1.197721435546875,-2.57057471062839,0.6572217997163534,0.097585491091758
1733513250855740400,1.207740478515625,-1.5746300746232271,0.30816110928654666,0.12364742245674133
1733513250865759200,1.21775927734375,-0.8336562249869107,-0.30501345891058446,0.07278992640078068
1733513250875778300,1.2277783203125,0.06352087053507566,-0.6450549765825271,0.231895761860162
1733513250885797400,1.23779736328125,0.690676910072565,-0.6594815613418817,0.5363720451541245
1733513250895816200,1.247816162109375,-0.027107202634215354,-0.7727244941622018,1.0860632983475922
1733513250905835300,1.257835205078125,-1.2968030210629105,-0.986647815349698,1.574898662431538
1733513250915854300,1.267854248046875,-1.5747183374285696,-1.5466612867236136,1.5784971253149211
1733513250925873200,1.277873046875,-0.5773804934993386,-2.179087667879462,1.4314092060379684
1733513250935892200,1.287892333984375,0.8030123726591467,-2.497185064768791,1.3457608209773897
1733513250945911300,1.297911376953125,1.537221842727065,-2.5449580388128754,1.1733859002307057
1733513250955930000,1.30793017578125,1.7396248219907282,-2.379351881548762,0.7867296386390924
1733513250965949200,1.31794921875,2.0134739118307827,-2.0000649796813725,0.4002025563850999
1733513250975968000,1.327968017578125,2.2606354857534168,-1.6060206536650656,-0.04982128487601876
1733513250985987000,1.337987060546875,2.337544245649874,-1.338945588004589,-0.5865699082575738
1733513250996006100,1.348006103515625,1.9524606402024625,-1.1484387982398272,-0.9054849051401018
1733513251006025000,1.35802490234375,-0.06226911690831184,-1.0115496168941258,-0.531958320365101
1733513251016044000,1.3680439453125,-5.397433628311753,-0.20315292084813116,-0.07785086305215955
1733513251026063000,1.37806298828125,-11.658086845225094,1.5409025770664213,-0.060398500730842346
1733513251036082200,1.388082275390625,-6.65014411740899,2.1776889069974423,-0.9663419632934034
1733513251046101000,1.39810107421875,2.1206822406619787,1.524037951505184,-0.8523599025435745
1733513251056120000,1.4081201171875,6.129840140610933,0.30638474726378917,-0.30766528859362
1733513251066139100,1.41813916015625,6.6604188431859015,-1.7545464967906474,-0.4205037322662771
1733513251076158200,1.428158203125,6.472054326146841,-3.186849582928419,-0.21393720358237622
1733513251086177000,1.438177001953125,5.879079080891609,-3.2726983128666878,0.038277415946125985
1733513251096196000,1.448196044921875,2.9585189662039277,-2.5404466988682746,-0.23514511904492974
1733513251106215200,1.458215087890625,-0.6809738467037677,-0.7520365109205246,-1.543091027021408
1733513251116234200,1.468234130859375,-1.35039461825788,1.6272767921835183,-0.8876463199801743
1733513251126253000,1.478253173828125,-0.22639088083356618,2.83126562820971,1.0297001175474374
1733513251136272100,1.488272216796875,0.2777525270193815,3.159122787091136,2.8296026634335516
1733513251146292200,1.498292236328125,0.6912167160376906,2.7308541199117897,4.544958721086383
1733513251156311300,1.508311279296875,1.032034771040082,1.533672625812888,5.534151544743776
1733513251166330000,1.518330078125,1.1017863526582716,0.11674538798332214,5.315259787493944
1733513251176349200,1.52834912109375,0.9931927069485187,-0.3765501703798771,4.385224378465116
1733513251186368800,1.53836865234375,1.4307067568570375,-0.00772328772842884,3.1041964341610666
1733513251196387800,1.548387939453125,2.1908850731790066,0.34299335321485996,1.9538892117008566
1733513251206406700,1.55840673828125,2.7930782286345956,0.37940439076721666,0.9768125769685954
1733513251216425700,1.56842578125,3.044140317127108,0.378847925928235,0.1772717528775334
1733513251226444800,1.57844482421875,3.0907892555773255,0.46547933067679403,-0.5819929557308554
1733513251236463900,1.5884638671875,2.7692642223268744,0.6133990246027707,-1.4432956047952175
1733513251246482700,1.598482666015625,2.070128695988655,0.7715460980325937,-2.4879493266507984
1733513251256501800,1.608501708984375,1.3089181140094994,1.018045408654213,-3.68221201069355
1733513251266520800,1.618520751953125,0.7201900778699666,1.2771809134870766,-4.402848005700111
1733513251276540000,1.628539794921875,0.44109300437383353,1.4577753810465335,-4.233586833059787
1733513251286558700,1.638558837890625,0.5265367702404037,1.555123994642496,-3.0582360624969005
1733513251296577800,1.648577880859375,0.4497638751506805,1.6965391289800404,-1.7756567970976231
1733513251306596900,1.658596923828125,0.3075210578173399,1.974271197733283,-1.6373004658088086
1733513251316615700,1.66861572265625,-0.01842471448481083,2.0235750346064565,-1.780488601168245
1733513251326634800,1.678634765625,-1.0215595542550087,1.8890800549209117,-0.7953231333307922
1733513251336653800,1.68865380859375,-2.0435434714019296,1.6575310606718063,-0.42728696266561744
1733513251346673000,1.6986728515625,-2.714942849552631,1.5214730694532395,-0.2551660897452384
1733513251356691700,1.708691650390625,-3.33727862932682,1.3477806363672018,0.45750228738300497
1733513251366710800,1.718710693359375,-3.5156326244831084,1.2889099297255278,0.9725490012399852
1733513251376729600,1.7287294921875,-3.288611336791515,1.2423247041612864,1.271493515500426
1733513251386748700,1.738748779296875,-2.887669067955017,1.213751520627737,0.9984307537324726
1733513251396767700,1.748767822265625,-2.690424494367838,1.3598182801634073,0.236156853370741
1733513251406786600,1.75878662109375,-2.9144974536478516,1.5146411776065825,-0.1330782447554171
1733513251416805600,1.7688056640625,-3.3726316822588442,1.4519465287625788,-0.1309847796075046
1733513251426824700,1.77882470703125,-3.6691502845466135,1.0702648407131432,0.16049531705640255
1733513251436843500,1.788843505859375,-3.452478541433811,0.4460825562894344,0.36367812158614393
1733513251446862600,1.798862548828125,-2.7167197960972786,-0.16165420476794243,0.28093583323061466
1733513251456881700,1.808881591796875,-1.8889643195867538,-0.5284557190716266,0.026109496833756563
1733513251466901800,1.81890185546875,-1.2656781072199343,-0.7730980036497116,-0.11060155146606265
1733513251476920600,1.828920654296875,-0.8750899860721081,-1.12435591186285,0.06707469055913388
1733513251486939600,1.838939697265625,-0.45965062452331185,-1.8079864105552435,0.12020561143979429
1733513251496958700,1.848958740234375,-0.06604512831568718,-2.806601142552495,-0.0004437251795083284
1733513251506977800,1.858977783203125,0.08950432983636855,-3.7663825782865286,-0.07975581989064812
1733513251516996600,1.86899658203125,-0.039913638845831156,-4.531369756194949,-0.127811702529341
1733513251527015700,1.879015625,-0.3188951962035149,-5.236501308077574,-0.4500653423152864
1733513251537034800,1.88903466796875,-0.5737012204647064,-5.886116139921546,-1.1885431373521684
1733513251547053600,1.899053466796875,-0.6017922465045005,-5.839096030071377,-2.4250055253513154
1733513251557072600,1.90907275390625,-0.6158873342871666,-4.694039860007167,-3.871555017375946
1733513251567091700,1.919091796875,-0.9001029198408126,-2.3704350001215935,-4.796759060725569
1733513251577110800,1.92911083984375,-1.609636506074667,1.1922171496897935,-4.761304008723795
1733513251587129600,1.939129638671875,-2.9074446125268936,4.749325693899393,-4.03351346578747
1733513251597148700,1.949148681640625,-6.357634166240691,7.427079507264494,-3.228392138150334
1733513251607167700,1.959167724609375,-14.770014750421046,8.687015855962038,-1.9070222465857862
1733513251617186800,1.969186767578125,-19.59095606624484,8.887501603427529,0.1270677522942424
1733513251627205600,1.97920556640625,-15.633824706131218,8.556262400892376,1.630004171320796
1733513251637224700,1.989224609375,-8.786501481586694,7.12635585450232,2.331462295387685
1733513251647243800,1.999243896484375,-4.420721516042947,4.502848010587692,2.898883704930544
1733513251657262800,2.009262939453125,-2.6706618092775343,2.943527733299136,3.376514661172032
1733513251667281700,2.01928173828125,-1.2449392705738545,2.6931530425488948,3.235407277609408
1733513251677300700,2.02930078125,0.930154943755269,2.740764104029536,2.942735413877666
1733513251687319800,2.03931982421875,3.070142773389816,2.6247178042262793,2.611730020098388
1733513251697338600,2.049338623046875,4.829487025851011,2.5834803694307804,2.1936571682408452
1733513251707357700,2.059357666015625,6.31809944370985,2.681481893977523,1.6647195108711719
1733513251717376800,2.069376708984375,7.5962360504865645,2.7027988227725026,0.8530835406430065
1733513251727395800,2.079395751953125,8.128019452676176,2.666960032150149,-0.26421310035809875
1733513251737414700,2.08941455078125,7.969998051452636,2.627580792441964,-1.3926046974778175
1733513251747433700,2.099433837890625,6.960207845446467,2.364468785193562,-2.2114351092547175
1733513251757452800,2.109452880859375,4.759426816675067,1.6448691474974155,-2.929506514470279
1733513251767472600,2.11947265625,1.5811878257036207,0.8704512934207915,-2.8962299755513667
1733513251777491700,2.12949169921875,-0.8458984514445066,0.35241175442337985,-1.617601785865426
1733513251787510500,2.139510498046875,-1.6155752484738826,-0.1506587635010481,-0.45981560582667586
1733513251797529600,2.149529541015625,-0.8841261830300092,-0.31336393862664697,-0.3077607117921114
1733513251807548700,2.159548583984375,1.3919739983588457,-0.34202480044364925,-0.8730281581714748
1733513251817567500,2.1695673828125,3.4776562373101707,-0.5864806225389242,-1.21894002918154
1733513251827586600,2.179586669921875,4.903280284075438,-0.9716735335797071,-1.277811758736521
1733513251837605600,2.189605712890625,4.903117786990106,-1.3622948994100093,-1.5865762407436965
1733513251847624700,2.199624755859375,4.8910202297002074,-1.719229684215784,-1.8338867216177284
1733513251857643500,2.2096435546875,5.120774741747975,-2.1436650568425653,-1.6517809727124868
1733513251867662600,2.21966259765625,4.981797063690424,-2.124288156199455,-1.3692157847143709
1733513251877681700,2.229681640625,4.65412286016047,-1.7510066322267055,-0.8808303563550114
1733513251887700700,2.23970068359375,4.410997994408011,-1.5892507206499575,-0.5274738684274256
1733513251897719600,2.249719482421875,4.265895111468434,-1.456342133373022,-0.2156976373836398
1733513251907738600,2.259738525390625,4.366840288251638,-1.4516139358073472,0.0005919745437800884
1733513251917757700,2.2697578125,4.468435745637119,-1.5886276203155516,0.21885858563259242
1733513251927776500,2.279776611328125,4.463298382748663,-1.7941630523860455,0.47842079144492744
1733513251937795600,2.289795654296875,4.3729386051267385,-2.031581230929494,0.7715100038059055
1733513251947814700,2.299814697265625,4.264251435914636,-2.3076263695091006,1.1191523518703876
1733513251957833700,2.309833740234375,4.007719976100326,-2.5058786588340998,1.4211251279108226
1733513251967852500,2.3198525390625,3.5312910891249776,-2.6921815671682356,1.5057919545881449
1733513251977871600,2.32987158203125,2.7661706402257082,-2.838809467718005,1.397522718527168
1733513251987890700,2.339890625,1.8676333622664212,-2.8568156645298,1.2737506467774509
1733513251997909800,2.34990966796875,0.8294055818051099,-2.5323762051373717,1.364485833583027
1733513252007928600,2.359928466796875,-0.6598094781219959,-1.7586901724666355,1.9153288871601222
1733513252017947600,2.36994775390625,-1.7607883137896656,-1.1275783810406923,2.4349328989952803
1733513252027966700,2.379966796875,-2.2173478404298423,-0.8424953650027514,2.6342849662557244
1733513252037985800,2.38998583984375,-2.317645074698329,-0.6845645646721125,2.9031495456814764
1733513252048004600,2.400004638671875,-2.3764625898480416,-0.6347060165256262,3.0957535999864336
1733513252058024700,2.410024658203125,-2.4778455735266207,-0.587258621174097,3.2188965800523754
1733513252068043800,2.420043701171875,-2.794647669908404,-0.46180034990310664,3.2446219729393717
1733513252078062800,2.430062744140625,-3.0992849889829754,-0.32016777342259883,2.7493068914473056
1733513252088081700,2.44008154296875,-3.2046848070874807,-0.18661738111078738,1.6681221589215098
1733513252098100700,2.450100830078125,-3.170217304818332,-0.02221007824242115,0.25863179309442635
1733513252108119800,2.460119873046875,-3.3875448814913627,0.32369594754874703,-1.066295790951699
1733513252118139000,2.470138916015625,-4.149234479159117,0.7380810508042573,-1.8159524209983646
1733513252128157700,2.48015771484375,-5.136288537222146,1.1296715539276598,-2.0177078961387274
1733513252138176800,2.4901767578125,-5.655726252579688,1.3750164338171482,-1.4352005611449479
1733513252148195800,2.50019580078125,-5.320418777692318,1.5483903024733066,0.17652941007763145
1733513252158215000,2.51021484375,-4.300987759898603,1.623739265707135,1.896377226191759
1733513252168233700,2.520233642578125,-3.219405114096403,0.9037328007757663,2.2830429862640798
1733513252178252800,2.530252685546875,-2.794881186403334,-0.47483401899933814,1.541545989536494
1733513252188271400,2.540271240234375,-2.7081729170262814,-1.4781120666325092,0.48016734285131096
1733513252198290200,2.550290283203125,-2.6146868240773675,-1.9842641839593649,-0.6655139733739197
1733513252208309200,2.560309326171875,-2.2470514892980455,-2.0670658012866974,-1.8414657785698771
1733513252218328300,2.570328369140625,-1.748519199325144,-1.561878729599714,-2.830646619528532
1733513252228347400,2.580347412109375,-0.9542267242163419,-0.4027081094652414,-3.6493908143267033
1733513252238366200,2.5903662109375,0.11814297982156276,1.0126204609960316,-3.8840380668520926
1733513252248385300,2.60038525390625,1.3426800983577967,2.1700293321549893,-3.4301369457662103
1733513252258404400,2.610404296875,2.3748821887888014,2.710939459130168,-2.2888884974218904
1733513252268423200,2.620423095703125,2.390193593558669,2.5192899290710686,-0.7315203771144151
1733513252278442200,2.630442138671875,0.8251667751915752,1.7492676796048878,0.35190248972699045
1733513252288461300,2.64046142578125,-1.7426158205002544,0.8758575363785028,1.1013646201148628
1733513252298480400,2.65048046875,-3.924766967603564,0.3143903590649366,1.925557143446803
1733513252308499200,2.660499267578125,-4.559876888754964,-0.20881284630596636,2.417092414139211
1733513252318519000,2.67051904296875,-2.860862601833045,-1.0114408958226442,2.5199554072424766
1733513252328538000,2.6805380859375,-0.2976600274078548,-1.808724077180028,3.2482632520511743
1733513252338557200,2.69055712890625,1.2864941007554531,-2.4395260720044374,4.4658132881790396
1733513252348576300,2.700576171875,1.8579796909973023,-3.088757457488775,5.270142296394705
1733513252358595000,2.710594970703125,2.8108880260914564,-3.195941236400604,6.040616965803504
1733513252368614100,2.7206142578125,4.15864645062685,-2.7504005319029092,6.5875394849359985
1733513252378633200,2.73063330078125,5.011556826660037,-2.232628703930974,6.306178119769692
1733513252388652000,2.740652099609375,5.456023764446377,-1.8033464757949114,5.340564324620366
1733513252398671000,2.750671142578125,5.681247062805294,-1.2918863151878117,4.222598990577459
1733513252408690200,2.760690185546875,5.683714329701662,-0.610599164751172,3.457174590295553
1733513252418709200,2.770709228515625,5.219391183322668,-0.2584644737035036,2.375336216166615
1733513252428728000,2.78072802734375,4.689021155062318,-0.44416181735992427,1.0675036323715001
1733513252438747100,2.7907470703125,4.859634326833486,-0.4269178370922804,0.33280615959092974
1733513252448766200,2.80076611328125,5.793711996990442,0.013223054188489913,-0.3133485949270427
1733513252458785300,2.810785400390625,6.5088698528468605,0.6688830114156007,-1.3312556180238724
1733513252468804000,2.82080419921875,5.8280316152215,1.3617244060456752,-2.519954822720587
1733513252478823200,2.8308232421875,4.267267568865418,2.0049141732782125,-3.9661709911376235
1733513252488842200,2.84084228515625,1.2675637748360633,2.621142283827066,-6.899315862110257
1733513252498861000,2.850861083984375,-1.9556325482368468,2.752071679985523,-8.9757872051239
1733513252508880100,2.860880126953125,-1.0812415772795676,1.9484364992529153,-7.255956632405519
1733513252518899200,2.870899169921875,0.9659504797577857,1.2219897721409796,-3.732503689560294
1733513252528918300,2.880918212890625,1.18835645567365,0.8324421730220317,-2.568083186073601
1733513252538937000,2.89093701171875,0.3193838565032929,0.9335077613145113,-1.957452457140386
1733513252548956200,2.9009560546875,-0.9860966112077235,1.2754928142696618,-1.6446182414762676
1733513252558975200,2.910975341796875,-1.7250141128361225,1.3810960459917783,-1.198941562573984
1733513252568994300,2.920994384765625,-2.0196799268640575,1.5771511175334452,0.14884930292628704
1733513252579013000,2.93101318359375,-2.2430839008413255,1.4386732056915759,2.0562511234141887
1733513252589032200,2.9410322265625,-2.320978749165684,0.7168383562892675,2.493278120458126
1733513252599052300,2.95105224609375,-2.1662394383527337,0.08289221822023392,1.6767447335772214
1733513252609071400,2.9610712890625,-1.8932276761196554,-0.13485095351636409,0.9036057403299957
1733513252619090200,2.971090087890625,-1.508732976476103,-0.025184125617146492,0.3478132476519793
1733513252629109200,2.981109130859375,-1.103604215735197,0.1694534803420305,-0.16092903229855
1733513252639128300,2.99112841796875,-0.7023780153907835,0.43459436306953425,-0.7218860681328922
1733513252649147400,3.0011474609375,-0.49547816309928894,0.49224283443987366,-1.351454356443882
1733513252659166200,3.011166259765625,-0.4038236694917083,0.3984299937546253,-1.8368059700652957
1733513252669185300,3.021185302734375,-0.4204465952515602,0.31458442033231254,-1.9696770018108187
1733513252679204400,3.031204345703125,-0.43622240266278384,0.37929216256439685,-1.7634511032581328
1733513252689223200,3.04122314453125,-0.4874167294576764,0.6857768630713224,-1.2585609686911106
1733513252699242200,3.0512421875,-0.5812623033687472,0.9408084397166967,-0.7837341831501573
1733513252709261000,3.061260986328125,-0.7563850615188479,0.8860510136127472,-0.508028944049403
1733513252719280000,3.071280029296875,-0.9805822317004204,0.5766612393140792,-0.2965678482569754
1733513252729299200,3.08129931640625,-1.2765513834118842,-0.05565408268272876,-0.120014545847103
1733513252739318000,3.091318115234375,-1.5639838851854204,-0.7651613654315471,0.14633790462724863
1733513252749337000,3.101337158203125,-1.7398016398623584,-1.3880501029133796,0.5809045029070228
1733513252759356200,3.111356201171875,-1.7880409162439406,-1.794517857173085,1.064835728336498
1733513252769375000,3.121375,-1.6458029212161898,-1.7487275813788175,1.507680106422305
1733513252779394000,3.13139404296875,-1.2385168363109231,-1.105381746801734,1.8151107094772159
1733513252789413000,3.1414130859375,-0.7031365786731243,-0.3514513849586248,1.666890132908523
1733513252799432200,3.15143212890625,-0.23344401421546934,-0.027324644777178764,1.161080983800441
1733513252809451000,3.161450927734375,-0.10187398206591605,0.0008884732723236083,0.4184180120334029
1733513252819470000,3.171469970703125,-0.43862873315215106,0.042464930763840676,-0.3499762709047645
1733513252829489200,3.1814892578125,-0.9995768550276756,0.3936123643398285,-0.9183028125938028
1733513252839508200,3.19150830078125,-1.5426456213414668,0.8970359334856272,-1.3262453886464238
1733513252849528000,3.201528076171875,-2.029900145974755,1.5266279679983854,-1.7109519774749875
1733513252859547100,3.211547119140625,-2.410787176515162,2.498393856036663,-2.130866365545988
1733513252869566200,3.221566162109375,-2.9260511133193967,3.348887234055996,-2.6098306162178515
1733513252879585300,3.231585205078125,-3.6660228001758455,4.039536671599746,-3.0778859348624943
1733513252889604000,3.24160400390625,-4.460281373015046,4.793789689525962,-4.097106817036867
1733513252899623200,3.251623046875,-5.6809805208235975,4.872261753216385,-4.798400398191809
1733513252909642200,3.261642333984375,-6.928209948161244,4.336881787839531,-4.581828608322144
1733513252919661300,3.271661376953125,-8.010408387774229,3.557086332377791,-3.7863714733481406
1733513252929680100,3.28168017578125,-9.293599355331063,2.5784037968188525,-2.5286598149627446
1733513252939699200,3.29169921875,-11.220726524573564,2.0451924076527357,-0.746311995793879
1733513252949718300,3.30171826171875,-13.777691812044381,2.5061457853376865,1.1312459636375307
1733513252959737300,3.3117373046875,-16.372563344061373,3.2273230476140973,2.7081127112716437
1733513252969756200,3.321756103515625,-18.003119888567923,4.052435900661349,3.2432109370976683
1733513252979775200,3.331775146484375,-17.079673502540587,5.185607571664452,2.9486870157584546
1733513252989794300,3.341794189453125,-13.360816645538806,5.96852262045145,2.6634707287296653
1733513252999813000,3.351813232421875,-9.475656296658515,5.66695024190545,1.6422990047484636
1733513253009832200,3.361832275390625,-6.314975758731364,4.357441760787368,0.5308164568535984
1733513253019851300,3.371851318359375,-3.6111262578621504,2.9675404770493508,-0.04724690434336662
1733513253029870300,3.381870361328125,-1.2930410381808877,2.6206302426517007,-0.4359054456681013
1733513253039889200,3.39188916015625,0.5670337253995239,3.213720638719201,-0.9092278910607099
1733513253049908200,3.401908203125,2.00527248519659,3.9933699637085196,-1.2781485894754527
1733513253059927300,3.41192724609375,3.1753882777154443,4.7472442114502185,-1.8016373337894678
1733513253069946400,3.4219462890625,4.043951565432549,5.7655333657324315,-1.9310515030793844
1733513253079966200,3.43196630859375,5.4027346573293205,6.608065555614233,-1.7602628286108373
1733513253089985000,3.441985107421875,8.43113087735772,7.255663202416897,-2.0406103405594824
1733513253100004000,3.452004150390625,10.72800029053092,8.044712223914265,-2.102363324639201
1733513253110023200,3.462023193359375,9.84277462182641,7.643765863424539,-1.2915985842876136
1733513253120042000,3.4720419921875,7.477917714098095,6.503267210534214,0.5018475520007312
1733513253130061000,3.48206103515625,5.4972711361140005,4.574644834297895,1.141270660176128
1733513253140080000,3.492080078125,6.138931794083118,0.708750911423564,1.282492902290076
1733513253150099200,3.50209912109375,6.23943448779583,-0.8320148875206709,1.6782605449676513
1733513253160118000,3.512117919921875,2.233852108246088,-0.7065665531218052,-0.8173919034063816
1733513253170137000,3.52213720703125,-3.7196138128489253,-0.3739876264154911,-3.6044086400449276
1733513253180156200,3.53215625,-7.162570492699742,1.1176350791752339,-3.621602351430058
1733513253190175700,3.54217578125,-4.3853532655417915,2.76086113564074,-2.509182668815553
1733513253200194600,3.552194580078125,0.3869004456110298,3.3485897124141455,-2.2866104694873095
1733513253210213600,3.562213623046875,4.4131800146222115,2.708723536646366,-2.6565999661773443
1733513253220232700,3.572232666015625,6.9541416772753,1.160233280929923,-2.579180041888356
1733513253230251800,3.582251708984375,8.639425252747536,-0.24363573788404463,-2.395335778752714
1733513253240270600,3.5922705078125,9.987448465698957,-1.2218354583621025,-2.280208201229572
1733513253250289700,3.60228955078125,11.167575949144362,-1.8410177425414322,-2.421594109472632
1733513253260308700,3.612308837890625,12.440933504951,-2.446864159807563,-2.6856366755694148
1733513253270327800,3.622327880859375,13.074644080698489,-3.3595383919298647,-2.5012784715622662
1733513253280346600,3.6323466796875,12.21261808579564,-4.299706780177354,-1.7629979526631534
1733513253290365700,3.64236572265625,10.566049148643016,-5.303803742977976,-0.7633747742757201
1733513253300384800,3.652384765625,9.196404470992087,-5.9392795748323195,0.08977364829704165
1733513253310404900,3.66240478515625,8.664428761100769,-6.233264274728298,0.6849993028275668
1733513253320423700,3.672423583984375,8.454162208855152,-6.347243705129623,1.2047661040090023
1733513253330442800,3.68244287109375,7.9621075904637575,-6.391741018503904,1.7581741857685147
1733513253340461800,3.6924619140625,6.949257996886968,-6.323064957162737,2.321799417898804
1733513253350481000,3.70248095703125,5.82872193557322,-6.027057811528444,2.7877240081250667
1733513253360499700,3.712499755859375,5.061041865319013,-5.42008092892766,2.8464865782171485
1733513253370518800,3.722518798828125,4.054170761629939,-4.519120515474677,1.9650041876941917
1733513253380537900,3.732537841796875,2.694506502984464,-3.497022032037377,0.8091673881575465
1733513253390557000,3.742556884765625,0.7728852376818657,-2.004073630800843,0.6729632664665579
1733513253400575700,3.75257568359375,-2.343497308835387,0.1552770709514618,1.7234049240738152
1733513253410594800,3.7625947265625,-9.599330607122182,3.7784430184364317,3.5710564055413005
1733513253420614000,3.77261376953125,-20.110590180957317,8.923309998911618,6.316017376738786
1733513253430632700,3.7826328125,-22.36449489715099,11.209857924556731,8.99234963286817
1733513253440651800,3.79265185546875,-14.461320557171106,6.98125940130353,8.071282835453749
1733513253450670600,3.802670654296875,-7.605349331268668,1.342198452320695,4.8490728930696845
1733513253460689700,3.812689697265625,-4.459163182640076,-1.8058792091429232,2.0967625820226967
1733513253470708700,3.822708740234375,-3.585988601735234,-2.5628672049909826,0.48269371952377255
1733513253480727600,3.8327275390625,-3.684720194122195,-2.135140974125266,-0.8781685167346149
1733513253490746600,3.84274658203125,-2.5633213784992694,-0.16866203770339488,-1.6782659517951308
1733513253500765700,3.852765625,0.1960240918815136,2.697887085333466,-2.08286630474776
1733513253510784500,3.862784423828125,4.370363201680779,4.627020918223262,-2.5925480575054882
1733513253520804600,3.8728046875,7.637140892326832,5.10957471781969,-1.2951589071176945
1733513253530823700,3.88282373046875,8.827700337937474,5.552647570899128,0.04409662361890077
1733513253540842800,3.8928427734375,9.655891283255816,5.188771588653326,0.2508642278328538
1733513253550861600,3.902861572265625,9.383078550726175,2.175333283782005,-0.20806670411378145
1733513253560880600,3.912880615234375,8.626285785189271,-1.6053005226969719,-0.7592870665706694
1733513253570899700,3.922899658203125,8.569359198352695,-4.584475907960534,-1.0685234038732945
1733513253580918800,3.932918701171875,9.508122395977377,-5.839717376840114,-0.9424049151279031
1733513253590937600,3.9429375,10.651782143247127,-5.255472550529241,-0.31647271829694507
1733513253600956700,3.952956787109375,10.395385123467445,-3.9275931309401986,-0.2675134570777416
1733513253610975700,3.962975830078125,8.506035019433497,-2.048984785673022,0.04613455918729305
1733513253620994800,3.972994873046875,6.222329623737931,0.2569523155748844,0.8184623091168701
1733513253631013600,3.983013671875,4.913094114342331,2.1358564289182422,0.9214917448282242
1733513253641032700,3.99303271484375,4.321774819600582,2.986016044938564,-0.5403403642632066
1733513253651051800,4.0030517578125,4.317364017421007,3.2151211531668897,-2.1729535490386187
1733513253661070600,4.013070556640625,3.7283038997828957,3.299292305281758,-2.34601499074474
1733513253671089700,4.023089599609375,3.253326088398695,2.9803070196419954,-2.51251765845716
1733513253681108700,4.033108642578125,2.466330492299795,2.751385451287031,-2.9356916328459977
1733513253691127800,4.0431279296875,0.7832803749680519,2.933926961261034,-3.500723809164762
1733513253701146600,4.053146728515625,-1.0413116448860615,2.926107811942696,-4.221856647777557
1733513253711165700,4.063165771484375,-2.1177637228667736,1.83630357350111,-4.649596030385792
1733513253721184800,4.073184814453125,-2.17737560326457,0.6734329298049211,-3.8535418063014744
1733513253731204900,4.083204833984375,-1.7987061026431619,-0.16686054123938082,-1.7329270779177546
1733513253741224000,4.093223876953125,-1.8542988105274736,-0.20977146220505236,-0.428577440867573
1733513253751242800,4.10324267578125,-2.0303109187327326,0.2835743650406599,-1.1821477372266351
1733513253761261800,4.11326171875,-2.729396906840801,0.6526666206300258,-1.729857607344538
1733513253771280600,4.12328076171875,-3.697715869295597,1.1284300294339655,-2.0982919835470617
1733513253781299700,4.1332998046875,-4.495686448395252,1.4246078554600476,-2.3874634379424156
1733513253791318500,4.143318603515625,-4.935801036190987,1.042141154512763,-2.3597207138836382
1733513253801337600,4.153337646484375,-5.237963781845569,0.13756605769395827,-1.9381527133867142
1733513253811356700,4.163356689453125,-5.3970373224705455,-0.6612181758761405,-1.374174283904582
1733513253821375500,4.17337548828125,-5.305631542927027,-0.9938052858889103,-0.7644239910677075
1733513253831394600,4.18339453125,-4.917933371067047,-1.0960580381393432,-0.4495147226952016
1733513253841413600,4.19341357421875,-4.460351807902753,-1.0634054763376712,-0.33271672774180766
1733513253851432700,4.2034326171875,-3.959856693424284,-0.9149918614149093,-0.23336992606595158
1733513253861451500,4.213451416015625,-3.3484567336842415,-0.7667366519242524,0.10766600947082042
1733513253871470600,4.223470703125,-2.7137244136735794,-0.8104390155285597,0.6016263153530657
1733513253881489700,4.23348974609375,-2.0160390861436723,-0.8564303668528794,1.1257194553010166
1733513253891508500,4.243508544921875,-1.307910106010735,-0.633742139929533,1.5671186760798095
1733513253901527600,4.253527587890625,-0.6151473295748233,-0.13711772940456868,1.771307954238355
1733513253911546600,4.263546630859375,0.014165595735609531,0.35071371833384035,1.6719753272183238
1733513253921565700,4.273565673828125,0.23535072461962697,0.7468050400078297,1.2847510564804077
1733513253931585800,4.283585693359375,-0.204277833224833,0.8833376630008221,0.8509278239138424
1733513253941604600,4.2936044921875,-1.190513268381357,1.0220821168243885,0.44637934727892276
1733513253951623700,4.303623779296875,-2.3256281824067235,1.6824118194282054,-0.10669731056913732
1733513253961642800,4.313642822265625,-3.241171247963607,3.6393671407014128,-1.5644650928311048
1733513253971661800,4.323661865234375,-4.469133957034349,6.093548345524073,-3.840203601300716
1733513253981680600,4.3336806640625,-6.186435303536057,7.878088998562097,-6.09437310591042
1733513253991699700,4.34369970703125,-7.928962276709079,8.492204062479734,-8.06131965984404
1733513254001718800,4.35371875,-9.736888481509684,7.3828265240401025,-8.953599923235178
1733513254011737600,4.363737548828125,-14.140536113154887,5.01235294547379,-7.412574596571922
1733513254021756700,4.373756591796875,-29.180950689744947,3.0749983967274424,-2.1021651717185974
1733513254031775700,4.383775634765625,-33.018112439131734,2.7895523925960064,2.073651609417796
1733513254041794800,4.393794921875,-23.915731821227073,3.7482279129147527,2.2688166002519425
1733513254051813600,4.403813720703125,-13.459770356243848,5.106851430335641,1.455925515396148
1733513254061832700,4.413832763671875,-5.513268915712833,6.333372416165471,-0.13309475749880076
1733513254071851800,4.423851806640625,-1.4963774989023804,7.42505530796051,-1.5364980584971606
1733513254081870800,4.433870849609375,0.7579851901918649,7.387387548345327,-2.1482045999683437
1733513254091889700,4.4438896484375,2.755434726677835,6.531244766262173,-2.2884765556201336
1733513254101908700,4.45390869140625,4.545723860239982,6.274207695013284,-2.4938901148766277
1733513254111927800,4.463927734375,5.674404065042734,6.593670535036921,-2.547848791818321
1733513254121947000,4.47394677734375,6.704577133864164,6.641440586471557,-2.584966808596253
1733513254131966500,4.483966552734375,7.7885636259377,6.266414264658093,-2.6513696643084286
1733513254141985500,4.493985595703125,9.676716629141568,5.891435873639583,-2.2858633043818175
1733513254152004600,4.504004638671875,11.282094308727979,6.094944768318533,-2.2031527263388035
1733513254162023700,4.514023681640625,10.750120936924219,6.495552106112242,-1.8881756534270941
1733513254172042500,4.52404248046875,9.894712898856401,6.060106094649433,-1.4697982656650244
1733513254182061600,4.5340615234375,8.772733068475127,4.783346036922931,-1.0230262658067046
1733513254192080600,4.54408056640625,6.800478471261263,2.8952047241568564,-0.06655746175199746
1733513254202099700,4.554099609375,5.489051589301228,0.9158195444107056,0.45326735322698947
1733513254212118500,4.564118408203125,4.578138521632552,-0.5497340694218874,0.6242676246196032
1733513254222137600,4.5741376953125,4.285638507336378,-1.4971458529263735,0.2997797960408032
1733513254232156700,4.58415673828125,4.0326755536586045,-1.9680109682947395,0.3273946559362113
1733513254242175500,4.594175537109375,3.835323428043723,-1.93242586017251,-0.6369627094112337
1733513254252194600,4.604194580078125,3.7273400231868026,-1.9064514609605072,-0.34222434160374104
1733513254262213600,4.614213623046875,0.5134831908673048,-1.5893535965025425,1.2966726726815103
1733513254272232700,4.624232666015625,-1.5256687675774097,-1.3811322863489388,0.8639820243414491
1733513254282251500,4.63425146484375,2.289397469857335,-0.6440864238113164,-1.264127078385651
1733513254292270600,4.6442705078125,5.180685312831401,-0.8426660453945398,-2.563464001840353
1733513254302289700,4.65428955078125,6.569769434967637,-1.182601764604449,-3.1599311808645725
1733513254312308700,4.664308837890625,7.358776955410837,-1.7426438775509594,-3.3222628465026616
1733513254322327600,4.67432763671875,7.949245770803094,-2.6832781297445294,-2.892385575082898
1733513254332347600,4.68434765625,8.49489637030363,-3.635733752635121,-2.099838774597645
1733513254342366700,4.69436669921875,9.471032143989206,-4.3127322659671306,-1.4813814436919985
1733513254352385800,4.7043857421875,10.219965428197384,-4.840573652532696,-0.9218746066659689
1733513254362404600,4.714404541015625,10.447661254149676,-5.436661476850509,-0.46401057329848405
1733513254372423700,4.724423583984375,10.3724905700922,-6.260556186279654,-0.07019201886206865
1733513254382442800,4.73444287109375,9.83244144386053,-6.7489142882406705,0.24487068650647997
1733513254392461800,4.7444619140625,8.900003942126036,-6.980059377864003,0.7340703538581729
1733513254402480600,4.754480712890625,7.528043388748168,-6.653312810572982,1.4921818007782102
1733513254412499700,4.764499755859375,5.849644896614551,-5.457421940806507,2.2359455733940004
1733513254422518800,4.774518798828125,2.9687562825798985,-3.379138579934835,3.1658357287332413
1733513254432537900,4.784537841796875,-0.919529066453129,-0.8262351350754499,3.389001217779517
1733513254442556700,4.794556640625,-7.862015815639495,2.6732202615886926,3.1558743066892028
1733513254452575700,4.80457568359375,-19.179768297725914,7.7120228225708,2.4873075216159224
1733513254462594800,4.8145947265625,-22.141032178723812,10.237440294611453,0.3448314553622156
1733513254472614000,4.82461376953125,-16.302420717298983,7.731254177263379,0.8754302508771419
1733513254482632700,4.8346328125,-9.973299528837204,3.4795617786705493,2.0822439350657165
1733513254492651800,4.84465185546875,-6.00753828754425,0.34227263772487637,1.722116345568001
1733513254502670800,4.8546708984375,-4.427705383580923,-1.5250778159469365,0.8759607044920324
1733513254512690700,4.864690673828125,-3.623537118884921,-2.6818361142426728,0.08192578434087336
1733513254522709500,4.87470947265625,-2.429438977754116,-3.0871546984672547,-0.5844320194460452
1733513254532728600,4.884728515625,-0.3767718503065407,-2.49011877964437,-1.4877679298587143
1733513254542747600,4.89474755859375,2.1742887431651354,-1.4750801515907048,-2.125284035369009
1733513254552766700,4.9047666015625,4.261926207837462,-0.47939387426078317,-2.306007536135614
1733513254562785500,4.91478564453125,5.297783752036095,0.9024503597497939,-1.352842011409998
1733513254572804600,4.9248046875,4.546383785453439,3.2008284239202736,0.0860650761026889
1733513254582823700,4.93482373046875,2.8582535883784295,6.4007216128170485,1.5311052595429122
1733513254592842500,4.944842529296875,2.717316008424759,7.5610525089025495,3.9771678937092423
1733513254602861600,4.954861572265625,3.2010446970194577,6.633823681727051,4.9555765807628624
1733513254612880600,4.964880615234375,3.919802623194456,4.257147156867385,3.3892350265353914
1733513254622899700,4.974899658203125,5.306077533128858,0.02038520090281963,1.2555644172236322
1733513254632918500,4.98491845703125,6.6157496803760525,-3.7218759125620124,0.763287388253212
1733513254642937600,4.9949375,7.822430239704251,-5.753965093013644,1.5498288108438252
1733513254652956700,5.004956787109375,9.489417695507406,-6.156850312611461,3.065639032229781
1733513254662975700,5.014975830078125,10.6173643253386,-5.257611316123604,4.081327064102888
1733513254672994600,5.02499462890625,9.819594821768998,-3.558520749095082,3.693826752902567
1733513254683013600,5.035013671875,7.912993138682841,-1.2988678446382282,2.9564859990715977
1733513254693033700,5.04503369140625,6.5568398107677694,1.0068465537697076,2.1261355376318094
1733513254703052800,5.055052734375,6.197778535327315,2.2920301564484835,0.4736970508586615
1733513254713071600,5.065071533203125,6.603847645658254,2.1440134318888187,-0.6477005226552486
1733513254723090700,5.075090576171875,7.907858113881945,1.7879069146007298,-1.4294658168852328
1733513254733109800,5.08510986328125,7.574973482227325,1.5447048919588326,-1.0296269061807541
1733513254743128800,5.09512890625,4.7929181673884385,1.5432693061977625,0.19987915987446903
1733513254753147600,5.105147705078125,2.71399358600378,1.459406197118759,-0.5916090714685619
1733513254763166700,5.115166748046875,2.321810962206125,1.1526041012257338,-3.3623695237025615
1733513254773185800,5.125185791015625,1.2490928831219672,1.1532523360013962,-4.54917838460803
1733513254783204900,5.135204833984375,0.15415237777046858,0.8398293606638908,-4.576354560825228
1733513254793223700,5.1452236328125,-0.14128376304283738,1.0708329959899185,-4.699230998909473
1733513254803242800,5.15524267578125,-0.8204130047932267,1.5575415771782397,-5.479363138979673
1733513254813261800,5.16526171875,-3.427162898391485,1.774912992992997,-6.082657533675432
1733513254823281000,5.175281005859375,-5.473935268712044,1.929779729577899,-5.779657168152928
1733513254833299700,5.1852998046875,-6.3874705015778535,1.8736714733868836,-4.380627990585565
1733513254843318800,5.19531884765625,-6.668411595505476,1.5229314515680075,-2.402345657514781
1733513254853337900,5.205337890625,-6.6239797485828396,1.1601198836833237,-0.5541491093851626
1733513254863356700,5.215356689453125,-6.559938361304998,1.0696961009144783,0.8727196767441928
1733513254873376500,5.22537646484375,-6.503153228765726,1.2758943808078764,1.9703534397676585
1733513254883395600,5.2353955078125,-6.084207685726881,1.0682838960289955,2.52253227199316
1733513254893414700,5.24541455078125,-5.47839867786169,0.18026362816989422,2.0812752361640334
1733513254903433700,5.255433837890625,-5.123816009140015,-0.7251110945940017,1.0948701435290276
1733513254913452500,5.26545263671875,-4.716228603200614,-1.3389789057523012,0.5913295238748193
1733513254923471600,5.2754716796875,-4.013860670812428,-1.4549234987467528,0.4866089202061295
1733513254933490700,5.28549072265625,-3.1545956650555134,-1.1788193234562874,0.31373087224289775
1733513254943509500,5.295509521484375,-2.242072531841695,-0.5299310523211955,-0.011448884122818708
1733513254953528600,5.305528564453125,-1.1026187118291855,0.15080021779835223,-0.37933687848895786
1733513254963547600,5.315547607421875,0.11285159541517495,0.5597691412240267,-0.7734848110102117
1733513254973566700,5.325566650390625,1.0920680917203425,0.5284983891695737,-1.1412760670036077
1733513254983585500,5.33558544921875,1.4286179678842426,0.0379325480312109,-1.247332595451176
1733513254993604600,5.3456044921875,0.9050546970292925,-0.41807752803266046,-1.0666595096975564
1733513255003623700,5.355623779296875,-0.17778116370439528,-0.23504735775887964,-0.7341978526953608
1733513255013642800,5.365642822265625,-1.1282172634661196,1.0987690506637096,-1.006510161422193
1733513255023661600,5.37566162109375,-1.7493688018918037,3.339227425307035,-1.946963504090905
1733513255033680600,5.3856806640625,-2.4444015690863132,5.316191515386104,-2.932654457107186
1733513255043699700,5.39569970703125,-3.6344095182940364,6.500021945002675,-3.7491134635776278
1733513255053719800,5.4057197265625,-4.928160166049003,6.323689226540923,-4.320383657503128
1733513255063738600,5.415738525390625,-5.983137421259284,5.139287719038129,-4.270293346427381
1733513255073757700,5.4257578125,-7.073608014655113,3.652826926255226,-3.4107331571161743
1733513255083776800,5.43577685546875,-9.585461656245588,1.9845260497659443,-1.547402314349264
1733513255093795800,5.4457958984375,-18.530724543768166,1.145194117230177,1.6651517648085952
1733513255103814700,5.455814697265625,-33.59973977642059,1.816357348537445,5.50159835166335
1733513255113833700,5.465833740234375,-30.60151891442537,2.9886610064893957,5.796452820131182
1733513255123852800,5.475852783203125,-19.695984128427504,4.889488197827339,4.788286708195507
1733513255133871900,5.485871826171875,-10.088857168340683,6.431746865677833,3.1185578447297213
1733513255143890700,5.495890625,-4.2037087044075125,7.622325015988945,0.27047742144986986
1733513255153909800,5.50590966796875,-0.316896204406023,8.524266257172822,-1.9720047141060233
1733513255163928800,5.5159287109375,2.8119784516766666,8.028577666193247,-3.86180314642936
1733513255173948000,5.525947998046875,5.030076233690977,5.995273849254846,-5.747725906363129
1733513255183966700,5.535966796875,6.0038651519894595,4.4510377438515425,-6.299622706776857
1733513255193985500,5.545985595703125,6.127448277038336,4.196076309832931,-5.744789852911234
1733513255204004400,5.55600439453125,6.0011120538890355,4.375162126395106,-4.856382923822105
1733513255214023400,5.5660234375,5.770366192716359,4.321047089847922,-3.7013790679782628
1733513255224043300,5.576043212890625,5.721019685745239,4.206994009688496,-2.267751747499406
1733513255234062300,5.586062255859375,6.12384060793519,4.446019038906694,-1.393123314524442
1733513255244081200,5.5960810546875,6.874923763653635,5.086798237866163,-0.9261157513670623
1733513255254100200,5.606100341796875,7.129075634855032,5.551112616416812,-0.49590574086159467
1733513255264119300,5.616119384765625,6.763666451692581,5.364762361809611,0.5416514468617737
1733513255274138400,5.626138427734375,6.803693341654538,4.420338654205203,1.3426241303868591
1733513255284157200,5.6361572265625,6.892553528368473,3.159653532966971,1.2809702227674424
1733513255294176300,5.64617626953125,6.865475551828742,1.6049802047014234,-0.10384630505219102
1733513255304195300,5.6561953125,6.235213070708513,-0.12717968823611736,-0.8965133709162473
1733513255314214400,5.66621435546875,4.46888904236257,-0.6260404795110225,-0.7511781405255198
1733513255324233200,5.676233154296875,1.4426545304127036,-0.6113309861570596,-1.398314307296276
1733513255334252300,5.686252197265625,-3.1896903593122956,-0.6866717660844326,-0.9137086897365748
1733513255344271400,5.696271240234375,-2.2483817149884997,-0.5164718512892723,-0.12069237204343079
1733513255354290200,5.706290283203125,3.659153498928249,-0.16391162830591202,-1.49803330328539
1733513255364309200,5.716309326171875,6.739317023333907,-0.42298049764335155,-2.3625340177387
1733513255374328300,5.726328369140625,7.681645219963788,-1.2224147195547819,-2.688846577526629
1733513255384348400,5.736348388671875,8.097246713271737,-2.245713226431608,-2.8508444811657068
1733513255394367500,5.746367431640625,8.892856408458947,-2.9689801544636487,-2.880103016614914
1733513255404386300,5.75638623046875,9.871517901229858,-3.5108594187319278,-2.7102368638187646
1733513255414405400,5.7664052734375,10.764690729546546,-4.053957995662093,-2.412790040770173
1733513255424424400,5.776424560546875,11.476921299779415,-4.691185639619827,-1.8299505512125789
1733513255434443500,5.786443603515625,11.130433090186118,-5.387221446377039,-0.7124953586488961
1733513255444462300,5.79646240234375,10.389242967450619,-6.005949557048082,0.17563538384735583
1733513255454481400,5.8064814453125,9.55888052331209,-6.505972377839684,0.8764666081875562
1733513255464500500,5.81650048828125,8.745518313813209,-6.77759969997704,1.3414926421388982
1733513255474519300,5.826519287109375,8.26216371922791,-6.752857472908496,1.4583933668144047
1733513255484538400,5.836538330078125,7.630256393510103,-6.402514341452718,1.6577692533418535
1733513255494557400,5.846557373046875,6.571525338724255,-5.428545390412211,2.178848452296108
1733513255504576500,5.856576416015625,4.599992626044154,-3.748578041526675,2.820710039664805
1733513255514595300,5.86659521484375,1.6657751574039459,-1.6409686329275368,2.885390309368074
1733513255524614400,5.876614501953125,-3.602210837739706,1.3615244995594025,2.565854696369171
1733513255534633500,5.886633544921875,-15.481460892277955,6.384457875758409,2.0413142510451374
1733513255544652500,5.896652587890625,-25.850611504292488,11.22636832985282,2.228383613707125
1733513255554672000,5.906672119140625,-22.033169185376167,9.91317560726404,5.2172500796407455
1733513255564691200,5.916691162109375,-13.340267193984985,5.180951854813099,6.109730249518155
1733513255574710300,5.926710205078125,-7.799020722544193,1.52749598300457,4.406488115768134
1733513255584729300,5.936729248046875,-4.756470304957032,-1.1525982560068369,2.0321328734628854
1733513255594748200,5.946748046875,-2.5839871499091385,-2.455102995842695,-0.10712262330912053
1733513255604767200,5.956767333984375,-0.6179508426882326,-2.9463299312382936,-1.9005590419210492
1733513255614786300,5.966786376953125,1.4814512940578162,-2.715053324189782,-3.4674326571986076
1733513255624805400,5.976805419921875,3.8399996031612154,-2.0336001695364714,-4.31746017127186
1733513255634824200,5.98682421875,6.1569537729859345,-1.0083131191909314,-3.747537008041143
1733513255644843300,5.99684326171875,7.797428484916686,0.6502087060838937,-2.302610294912755
1733513255654862300,6.0068623046875,7.535365694460272,2.966431639024615,-0.592079100133106
1733513255664881400,6.01688134765625,4.029938237649202,6.830261030584573,0.8661987505428492
1733513255674900200,6.026900146484375,-0.9050153879322111,12.608178077071905,1.9227911858648061
1733513255684919300,6.036919189453125,-0.3481446715634316,13.507691798847913,3.6152401229217648
1733513255694938400,6.0469384765625,0.4410550835162401,8.743622709324955,3.566753739911318
1733513255704958500,6.05695849609375,1.315949912342429,0.8448316989958286,1.6462097484514115
1733513255714977300,6.066977294921875,2.896337527579069,-5.21931285738945,0.44585736923143265
1733513255724996400,6.076996337890625,4.689806752482056,-8.471295714485645,0.5544143361926078
1733513255735015400,6.087015380859375,6.475759025883674,-9.922661228489876,1.3874999216847121
1733513255745034500,6.097034423828125,8.71860517244637,-9.766742937025427,2.7056752549916503
1733513255755053300,6.10705322265625,10.311678081732987,-7.840674921447039,4.1590655528217555
1733513255765072400,6.117072265625,8.648584710758923,-4.7762756601452825,4.941408939200639
1733513255775091500,6.127091552734375,6.465678361374139,-1.862891136175394,4.514591055351495
1733513255785110500,6.137110595703125,5.888054999029636,0.7836112143576145,3.549244386705756
1733513255795129300,6.14712939453125,5.804371922692656,2.8596400743007657,1.9637107868827879
1733513255805148400,6.1571484375,6.294701032465696,3.64354997934401,-0.2509087976269424
1733513255815167500,6.16716748046875,6.069459029406309,3.5342227586627004,-1.753749939585477
1733513255825186300,6.177186279296875,4.249747694265842,3.3596295773446556,-1.972625330222398
1733513255835205400,6.187205322265625,2.579779176825285,3.0572675097256896,-0.9055670304656028
1733513255845224400,6.197224365234375,2.233391651127487,2.4867197848558424,-0.4440026812754571
1733513255855243500,6.207243408203125,0.6505096617918461,1.5218798966884612,-2.063742355952412
1733513255865262300,6.217262451171875,0.00038812253475189204,0.27748773860335346,-4.961060565131902
1733513255875282200,6.2272822265625,-0.8560381526648998,-0.28971067583858967,-5.4990895837128155
1733513255885301200,6.23730126953125,-1.1026035142600537,-0.33085867878496644,-4.503426687258481
1733513255895320300,6.2473203125,-0.17186244117990135,0.412479561895132,-2.88206876372993
1733513255905339100,6.257339111328125,0.02216492392644286,1.331039929446578,-1.8562011370174585
1733513255915358200,6.267358154296875,0.362254080132395,2.0184166289299723,-2.2791557695671916
1733513255925377300,6.277377197265625,-0.6510184150315821,1.9617764578193424,-3.1097698503792284
1733513255935396400,6.287396240234375,-2.4438531414233147,1.5480582940399645,-2.8881115510255095
1733513255945415200,6.297415283203125,-3.553720070815086,1.4057447495579718,-1.9249489484205842
1733513255955434200,6.307434326171875,-4.3229891638264055,1.2048954294770955,-1.4529147892728447
1733513255965453300,6.317453369140625,-4.829833647331595,0.7727788546979427,-1.3366396491497754
1733513255975472400,6.327472412109375,-5.058461785697936,0.3250187205851078,-1.077190986714512
1733513255985491200,6.3374912109375,-5.082372238117456,-0.3431295468151569,-0.7420809340953827
1733513255995510300,6.34751025390625,-5.247334836781024,-0.8778998558610677,-0.4647684059284627
1733513256005529300,6.357529296875,-5.517611913353204,-1.0295885469317436,-0.02756751362234354
1733513256015548400,6.36754833984375,-5.541972447627782,-0.6626672056406736,0.7041815576814114
1733513256025568300,6.377568359375,-5.243264226341247,-0.09848784675896168,1.2987402727358042
1733513256035587300,6.38758740234375,-4.61768931851536,0.20330022036433218,1.3575371834889054
1733513256045606400,6.3976064453125,-3.813045545262098,0.35221243245899675,1.0832749828033148
1733513256055625500,6.40762548828125,-2.9754107720330354,0.4342009798377752,0.7862460929058491
1733513256065644300,6.417644287109375,-2.2565093457341194,0.28926117850542066,0.6086446696825325
1733513256075663400,6.427663330078125,-1.7995567281231284,0.028104396978020665,0.430488096794486
1733513256085682400,6.437682373046875,-1.6995777660235762,-0.3247305512934923,0.2730870194263756
1733513256095701500,6.447701416015625,-1.9581290412276982,-0.7279185532301664,0.17873744151592252
1733513256105720300,6.45772021484375,-2.3708842051938173,-0.3278331934839487,-0.38200887417718765
1733513256115739400,6.467739501953125,-2.907171348543465,1.3717208994030952,-1.687817477864027
1733513256125758500,6.477758544921875,-3.622738369722664,3.4054502482771873,-3.230015355437994
1733513256135777500,6.487777587890625,-4.363125943903625,5.061118437686562,-4.901073421680927
1733513256145796400,6.49779638671875,-4.949461312752962,5.944840716090798,-6.241601310440897
1733513256155815400,6.5078154296875,-5.3990556765556335,5.635225316342711,-6.689202454599738
1733513256165834500,6.51783447265625,-5.973640694117546,4.331583096909522,-5.90889846509397
1733513256175854300,6.527854248046875,-7.47141783068478,1.9250041857391595,-3.580955283743143
1733513256185873200,6.537873046875,-11.77156475584507,-0.6688198830515146,0.2710714418202638
1733513256195892500,6.547892578125,-22.853220663380622,-1.2984843982785939,5.83066196372509
1733513256205911300,6.557911376953125,-29.94451864850521,0.545417375266552,9.168093737787007
1733513256215930400,6.567930419921875,-22.808179744648932,4.001991661581397,7.799358576196432
1733513256225949400,6.577949462890625,-11.922892796909808,6.855925633195042,4.251927960914373
1733513256235968500,6.587968505859375,-4.7133097931444645,8.670922799295186,1.01687095804736
1733513256245987300,6.5979873046875,-0.6646928662493825,9.374728655532001,-1.8034078505933284
1733513256256006400,6.60800634765625,2.3441195323869586,8.396322014304996,-4.003036202198267
1733513256266025500,6.618025390625,4.619695982162654,6.560800531092286,-5.559194800585508
1733513256276044300,6.628044189453125,6.254072084957361,5.462469287323952,-5.872080015784502
1733513256286063400,6.6380634765625,7.160464460331201,5.344570053130388,-4.674454577310383
1733513256296082400,6.64808251953125,7.721437132126092,5.454848875448107,-3.2861601442471144
1733513256306101500,6.6581015625,7.915531132727861,5.294990321925282,-1.8411872538894414
1733513256316121600,6.66812158203125,7.743011835074424,4.9985430313080546,-0.5054436767965554
1733513256326140400,6.678140380859375,7.637280008536576,5.006121357607841,0.290454187682271
1733513256336159500,6.688159423828125,7.6556655600547785,5.222139020726084,0.8047970641188323
1733513256346178600,6.698178466796875,7.821020957428217,5.154452554944157,1.1436129855185746
1733513256356197600,6.70819775390625,7.657968576300144,4.9886014830082654,2.4354879025295375
1733513256366216400,6.718216552734375,6.913087782353163,3.735875211820006,2.8155981034785507
1733513256376235500,6.728235595703125,7.500062325888872,0.9455646943330764,2.036843973763287
1733513256386254600,6.738254638671875,8.026215613237023,-1.8420915092527865,1.5527379762887954
1733513256396273400,6.7482734375,4.904104752200841,-2.3522347420424223,0.5568763423919677
1733513256406292500,6.75829248046875,1.7971024668388067,-1.395367732450366,-0.9887399653233587
1733513256416311600,6.7683115234375,-1.298124332794547,-0.06642039136886596,-2.305256133246422
1733513256426330600,6.77833056640625,-5.611342920973897,0.10344400786161422,-2.725855580972135
1733513256436349400,6.788349365234375,-4.664823117873072,0.0809369924992323,-1.5945979268968105
1733513256446368500,6.798368408203125,0.8408370764017105,0.43937575212717056,-2.242949314676225
1733513256456387600,6.8083876953125,4.340114193889498,0.24188334125876426,-3.1176921678110956
1733513256466407400,6.818407470703125,6.1845858762770884,-0.7414817991584539,-3.3855224357530473
1733513256476426500,6.828426513671875,7.229037061297893,-1.7578525525987148,-3.181311822545528
1733513256486445300,6.8384453125,8.080919263327122,-2.4077234050303695,-2.9901544599175454
1733513256496464400,6.84846435546875,9.29431247203648,-2.91785728546977,-3.022443449103832
1733513256506483500,6.8584833984375,10.191519085913896,-3.323209771963954,-2.9548280027315017
1733513256516502300,6.868502197265625,10.178716887485981,-3.619261925783753,-2.140327436852455
1733513256526521300,6.878521240234375,9.736855748283862,-4.059532580924034,-0.9900573315322398
1733513256536540400,6.88854052734375,8.879829169103502,-4.7199189821511505,0.07338920746818184
1733513256546559500,6.8985595703125,7.719857753980159,-5.433724838876724,0.8050403713554144
1733513256556578300,6.908578369140625,6.677748163649439,-5.854316395556927,1.2794637637272477
1733513256566597400,6.918597412109375,6.066854399865865,-5.952761572217941,1.6271303694501518
1733513256576616400,6.928616455078125,5.755402432340383,-5.722392727664113,1.835341158209741
1733513256586635500,6.938635498046875,5.001760239788889,-5.037882523527741,1.9337591546028852
1733513256596654300,6.948654296875,4.168256575015187,-4.129233309137821,1.7492612498641014
1733513256606673400,6.95867333984375,2.8961560335323213,-3.0838883901476857,1.8839257408976553
1733513256616693500,6.968693603515625,0.6003092414051294,-1.9218805007606743,2.3024450213484466
1733513256626712600,6.978712646484375,-3.7303678465753793,-0.21740239547491072,2.9935142917394635
1733513256636731400,6.9887314453125,-11.498163994294405,2.563179924201965,4.299421241234243
1733513256646750500,6.99875048828125,-18.523483486598728,5.41849512104094,6.1544362372070545
1733513256656769500,7.00876953125,-16.208200464856624,5.483388156712055,6.719110686129331
1733513256666788600,7.01878857421875,-11.018415315246582,3.689621410167217,4.724328323026001
1733513256676807400,7.028807373046875,-7.696984827914833,2.184604969996214,1.811325491850078
1733513256686826500,7.038826416015625,-5.32750084490776,0.7546335416764021,-0.6772805451437831
1733513256696845600,7.048845458984375,-3.551272969923913,-0.4955126498907804,-2.5154171792909503
1733513256706864600,7.05886474609375,-1.7460545627772808,-1.7021780116498468,-3.890486512339115
1733513256716883500,7.068883544921875,-0.18928513901531696,-2.6901006692409513,-4.486090352532267
1733513256726902500,7.078902587890625,1.1284925732761621,-3.2247675179123876,-4.23479445528388
1733513256736921600,7.088921630859375,2.147632499168813,-2.9676340005517003,-3.337942938454449
1733513256746940400,7.0989404296875,2.739516734316945,-1.6091449231654404,-2.092597717428207
1733513256756960500,7.10896044921875,1.6819713821843265,1.3927619338661432,-0.15219843069110064
1733513256766979300,7.118979248046875,-3.894292918884754,6.547762185820937,2.7264380570352076
1733513256776998400,7.128998291015625,-7.350652685666084,12.29003567199707,5.463643007278442
1733513256787017500,7.139017578125,1.8360773635298013,12.748760267716646,8.219571947214007
1733513256797036300,7.149036376953125,5.944338611787558,9.353998586714267,7.997986713096499
1733513256807055400,7.159055419921875,6.143178930133581,4.13773927167654,3.651790568944812
1733513256817074400,7.169074462890625,8.26562993403375,-1.5831231776803731,-0.7120897735226899
1733513256827093500,7.179093505859375,9.657381814074515,-5.859369002771377,-1.8712196963205932
1733513256837112300,7.1891123046875,10.117571221649646,-7.814191988191008,-0.9825473212283105
1733513256847131400,7.19913134765625,11.565177090859413,-7.752731849578023,0.1875728552047163
1733513256857150500,7.209150390625,13.586727341639994,-6.607625410631298,1.0338548991393297
1733513256867169300,7.219169189453125,13.226619772017001,-4.838998950561881,1.2951942706920205
1733513256877188400,7.229188232421875,10.952142223393917,-2.0165899980247017,1.241373979307711
1733513256887207400,7.23920751953125,8.46932646023929,1.1484230161488056,1.2875970935612917
1733513256897227500,7.2492275390625,6.918274245080352,3.9039024587512015,0.7516118557676672
1733513256907246600,7.25924658203125,5.797706035062671,5.1523576284915205,-0.7915677263200283
1733513256917265400,7.269265380859375,5.1408203354328865,4.850114803338051,-2.598389769271016
1733513256927284500,7.279284423828125,4.578728888741136,4.110354421144724,-3.285655117334425
1733513256937303600,7.289303466796875,4.394878634256124,3.0580677201926707,-3.2150860818535087
1733513256947322400,7.299322265625,3.6352538601636883,2.2963082721590995,-2.020047737263143
1733513256957341400,7.309341552734375,1.8241887728154658,2.026021258714795,-1.5655132867097854
1733513256967360500,7.319360595703125,0.5074690451443195,0.9009609979748725,-3.5672818554386496
1733513256977379600,7.329379638671875,-0.5824900915980339,-0.23494272834062574,-5.262224362877011
1733513256987398400,7.3393984375,-1.5535786648966372,-0.5630021317958831,-4.742620058780909
1733513256997417500,7.34941748046875,-2.077538095462322,0.27073651077747346,-3.649225102370977
1733513257007436500,7.3594365234375,-3.456872977000475,1.3500158480733633,-3.1389930222541094
1733513257017455600,7.36945556640625,-4.263254826092719,1.5248872618108986,-2.5304917065650225
1733513257027474400,7.379474365234375,-4.593858068811893,1.7109686363488434,-1.9440698284760116
1733513257037494500,7.38949462890625,-4.590776469409466,1.4505658880591392,-0.9811188958603888
1733513257047513600,7.399513671875,-4.475450300574303,0.8077735957115888,0.2707113763362169
1733513257057532700,7.40953271484375,-4.443920020800829,0.274558699414134,1.5155024706110358
1733513257067551500,7.419551513671875,-4.523942236542702,0.0057090252965688705,2.5317323542758823
1733513257077570600,7.429570556640625,-4.454238001197576,-0.16479133374989033,2.8832629419505595
1733513257087589400,7.43958935546875,-4.24820338743329,-0.734765642645955,2.1118696963921186
1733513257097608400,7.4496083984375,-3.869587516695261,-1.3277940793931484,1.2016909343473612
1733513257107627300,7.459627197265625,-3.2588138721600175,-1.5259809022665023,0.9777299110092222
1733513257117646300,7.469646240234375,-2.532894676053524,-1.3174340134203433,1.0775620119839906
1733513257127665400,7.47966552734375,-1.8127309747338294,-0.8642273043394089,1.0793274142213165
1733513257137684500,7.4896845703125,-1.1584624718651175,-0.41042204484343525,0.9221791425704956
1733513257147703300,7.499703369140625,-0.5401569705203175,-0.11338438711762427,0.9510459022231399
1733513257157722400,7.509722412109375,0.1471019478023052,0.04959785138368606,1.1290159395631403
1733513257167741400,7.519741455078125,0.8501438339293003,0.03379647113978863,1.2486553684875368
1733513257177761500,7.529761474609375,1.4932958994999528,-0.14271686458587646,1.1437332508973777
1733513257187780400,7.5397802734375,1.8121639885008334,-0.3675426880598068,0.7286397801768034
1733513257197800700,7.54980078125,1.6528360347233713,-0.487184382006526,0.07606602546200156
1733513257207819500,7.559819580078125,1.0009683093860744,-0.3642687809556722,-0.6255418823391199
1733513257217838600,7.569838623046875,0.1123638118982315,0.24214403802156448,-1.2819270851008593
1733513257227857700,7.579857666015625,-0.9098965841025114,1.4453139588803052,-1.9920541071832178
1733513257237876700,7.589876708984375,-2.075158799110353,2.9284184269726277,-2.894065490993857
1733513257247895600,7.5998955078125,-3.4283778271391987,4.223621319362521,-3.9522862581700084
1733513257257914600,7.60991455078125,-4.801542787870765,4.735852464342117,-4.890570147845149
1733513257267933700,7.61993359375,-5.910590655964612,4.221650311550498,-5.3805158112585545
1733513257277952800,7.629952880859375,-6.599246873864531,3.250834271582961,-5.11731495668292
1733513257287971600,7.6399716796875,-7.454367327162623,2.208808852404356,-4.222087533923983
1733513257297990700,7.64999072265625,-9.761256030046939,1.593921635070443,-2.4996231055706737
1733513257308009700,7.660009765625,-15.322259341359137,2.0387123979836703,0.44954877109527586
1733513257318029600,7.670029541015625,-24.45895607036352,2.6799755810678003,3.7557740905106067
1733513257328048400,7.68004833984375,-25.56042678120136,2.968526565477252,4.274792703673243
1733513257338067500,7.6900673828125,-19.436192205512523,3.8836780013680454,3.402940311282873
1733513257348086500,7.70008642578125,-12.459835773819684,4.900689975321293,2.8270196612030265
1733513257358105600,7.710105712890625,-7.629757211816311,6.040183835083246,0.9818798702955246
1733513257368124400,7.72012451171875,-4.811493980781734,7.45646225361526,-0.738574095018208
1733513257378143500,7.7301435546875,-2.214929381111264,8.582052091187238,-2.7456796408608555
1733513257388162600,7.74016259765625,0.5214402873516083,8.09945854410231,-4.5672237443864345
1733513257398181600,7.750181640625,2.7400018874853846,5.755039444246888,-5.701843276110291
1733513257408200400,7.760200439453125,4.192793050378561,3.9327953757584093,-5.635187322419881
1733513257418219500,7.770219482421875,4.985222361963987,3.73042220711112,-4.480980462172627
1733513257428238600,7.780238525390625,5.29333554045558,4.2356086942762134,-2.9810248125225303
1733513257438257400,7.79025732421875,5.879675293219089,4.621776003307104,-1.5250782543383539
1733513257448277500,7.800277587890625,6.910021380519867,4.82676490741074,-0.3444073116660118
1733513257458296600,7.810296630859375,7.491207988303899,4.9784115129053585,0.4426807850219309
1733513257468315600,7.820315673828125,7.831717708009481,4.902717097234726,1.0760543839000165
1733513257478334700,7.830334716796875,8.350197976511716,4.799579378843307,1.676666553774476
1733513257488353500,7.840353515625,8.084764832839369,4.523163653385639,1.862407005920261
1733513257498372600,7.85037255859375,7.015939669540524,4.327324270421267,2.878397966262698
1733513257508391700,7.8603916015625,5.9111126340121025,2.66404852861762,2.809920057842135
1733513257518410800,7.87041064453125,6.500461505463719,-1.121957618549466,1.8669366121739148
1733513257528429600,7.8804296875,5.848351349672675,-1.7470745534747838,1.6101615528620778
1733513257538448600,7.89044873046875,4.1728988478630775,-1.207192015981674,0.18061039578095078
1733513257548467700,7.9004677734375,2.756598217499256,-1.031145128723979,-2.296616169064492
1733513257558486500,7.910486572265625,-0.10297215256616472,-0.9293898046016693,-3.528349190454185
1733513257568505600,7.920505615234375,-3.961352777200937,-0.6222580383628606,-3.2905501958996055
1733513257578525400,7.930525390625,-3.0115900466561314,-0.04081950164437294,-2.711495047186315
1733513257588544500,7.94054443359375,1.3760545446932315,-0.4525467838674783,-2.4967557334408164
1733513257598563600,7.9505634765625,4.498316796898842,-0.9507038107872009,-2.489150519134104
1733513257608582400,7.96058251953125,6.338977396565675,-1.3152613455563782,-2.0328218786403536
1733513257618601500,7.9706015625,7.610505398857593,-1.9845663817763328,-1.60772804210484
1733513257628620500,7.98062060546875,8.338807982969284,-2.715652459126711,-1.1877611931942402
1733513257638639400,7.990639404296875,8.958148672580718,-3.403146062988043,-0.8578061852507293
1733513257648658400,8.000658447265625,9.306709596794843,-3.9598154846310614,-0.5378967705033719
1733513257658677500,8.010677490234375,9.017318654429912,-4.429360749572515,-0.13470014686882495
1733513257668696600,8.020696533203125,8.520050685304403,-4.919556003832817,0.08059723915085196
1733513257678715400,8.03071533203125,7.9174524561792605,-5.362835193139314,-0.09217749456837773
1733513257688734500,8.040734375,7.249877020230889,-5.565658443641662,-0.10836495152041316
1733513257698753500,8.05075341796875,6.44872371944189,-5.544722038596868,0.09266381678059697
1733513257708773600,8.060773681640624,5.548401019370556,-5.263296960544586,0.21538404138982295
1733513257718792700,8.070792724609374,4.462565100038051,-4.670077969661355,0.32074674235433337
1733513257728811500,8.0808115234375,3.2428380121320486,-3.68055196852684,0.7211591420978307
1733513257738830600,8.09083056640625,1.8166954944506286,-2.4532091449201108,1.6141311871454118
1733513257748849700,8.100849609375,-0.10553966496661304,-1.2177590027034282,2.690604527109861
1733513257758868500,8.110868408203125,-4.645283720144629,0.85450845887959,3.8296974048554895
1733513257768887600,8.120887451171875,-13.806811523544788,4.334613842907547,3.9239495137408373
1733513257778906600,8.13090673828125,-20.1037956985116,7.212287586548924,3.633279929742217
1733513257788925700,8.14092578125,-14.047978240966795,5.833859298461675,4.282265816032886
1733513257798944500,8.150944580078125,-7.284805710271001,3.228253021940589,4.846832128405571
1733513257808963600,8.160963623046875,-5.314872249481081,1.289556410935521,5.261921580538154
1733513257818982700,8.170982666015625,-4.924242115822434,-0.2233639342278242,4.604608595407009
1733513257829002500,8.18100244140625,-4.328682699292898,-1.5819576410323382,2.6181799268901345
1733513257839021600,8.191021484375,-2.6110318087011573,-2.6236358542084695,-0.27908465240597724
1733513257849040400,8.201040283203126,-0.2696121829226613,-3.0764567788422106,-2.8261194974929094
1733513257859059500,8.2110595703125,1.828765286950767,-2.8611025480687617,-4.723702592343091
1733513257869078500,8.22107861328125,3.5811744794517755,-2.0982535512328147,-5.681762611111998
1733513257879097300,8.231097412109374,5.17048715942204,-1.0839970134675503,-5.08615175665617
1733513257889116400,8.241116455078124,6.07958353305757,0.10524959597885608,-3.2186458201617
1733513257899135500,8.251135498046875,5.787442999723553,1.9884201345950363,-1.2635481094539165
1733513257909154600,8.261154541015625,4.060868797963858,4.993163676357269,0.9679669341467321
1733513257919173400,8.27117333984375,1.3876092272780836,8.149576035445929,3.7284085292011495
1733513257929192400,8.2811923828125,1.411748081625998,8.894206654024124,5.7814498967885966
1733513257939211500,8.29121142578125,2.69967104614079,6.9370198620826,5.701756182348728
1733513257949230600,8.301230712890625,3.3184640387415882,2.560474172374606,3.6756355549126862
1733513257959250400,8.31125048828125,4.398461168918013,-2.2166461219012734,1.567604413770139
1733513257969269500,8.32126953125,5.5212564073354,-5.300126515769958,1.267053487226367
1733513257979288600,8.33128857421875,6.312015155360102,-6.126148884877562,2.2717155365638435
1733513257989307600,8.3413076171875,7.2498033704727884,-5.427832858228683,3.518345098312199
1733513257999326500,8.351326416015626,8.230273958492278,-4.28434671396017,4.1473520264133805
1733513258009345500,8.361345458984376,7.962641843470931,-2.8978467630982396,4.0222380385354155
1733513258019364600,8.371364501953124,6.681653354394435,-1.1286579929709435,2.8376538679420946
1733513258029383700,8.3813837890625,5.582322578194737,0.5861977139443159,2.1985747508987785
1733513258039402500,8.391402587890624,5.551498985385894,1.6624790384680033,1.1013829594891518
1733513258049421600,8.401421630859375,5.590912127363682,2.131297158178687,0.1380321408357471
1733513258059440600,8.411440673828125,5.885155770456791,1.9515239438742398,-0.45530667703486977
1733513258069459700,8.421459716796875,5.027162976592779,1.7438222736805677,-0.18406601612754164
1733513258079478500,8.431478515625,3.511198441427946,1.7947259469658134,-0.22149543694220483
1733513258089498600,8.44149853515625,2.65899475235939,2.7152199129283425,0.030342092902213333
1733513258099517700,8.451517578125,1.0500947438657282,2.6516648478627203,-2.4995997246950865
1733513258109536800,8.461536865234375,0.2965723783016205,-0.0036257892817258834,-5.90240851855278
1733513258119555600,8.4715556640625,-0.26892317774519325,-1.1581529675245283,-6.617271190854907
1733513258129574700,8.48157470703125,-0.6476958464801311,-1.4058090469658373,-6.598048019468784
1733513258139593700,8.49159375,-0.9836123931765556,-1.2106599843531847,-6.339392991629243
1733513258149612500,8.501612548828126,-1.1124737508893012,0.0786404059946537,-5.041337632417679
1733513258159631600,8.511631591796874,-1.11337157651186,1.229792554846406,-3.1344045254200696
1733513258169650400,8.521650390625,-2.3919033200860023,1.7978128070652484,-2.8831901689752937
1733513258179669500,8.53166943359375,-3.2305215513944625,2.0461293962419034,-2.7631714584097264
1733513258189688600,8.5416884765625,-3.490224626982212,1.9558347928106783,-2.08955235838294
1733513258199707100,8.55170703125,-3.582680500100553,1.5067822807997464,-1.152310013649985
1733513258209727000,8.56172705078125,-3.539462412881851,0.8349410041004419,-0.46603316516727206
1733513258219746000,8.57174609375,-3.567379470594227,0.06399521004855632,-0.11559307614304125
1733513258229765000,8.58176513671875,-3.7267104931116104,-0.42775896409153935,0.17414390318058431
1733513258239784000,8.591783935546875,-3.8984173053383824,-0.5574842451572418,0.7551240286070853
1733513258249803000,8.601802978515625,-4.087786030983924,-0.541752423018217,1.4774607631169259
1733513258259822000,8.611822021484375,-4.162658608877659,-0.4744026418447494,1.95472697769925
1733513258269841000,8.6218408203125,-3.9857013287767766,-0.34569501338899133,2.0562369487583636
1733513258279860000,8.63185986328125,-3.6005844055816527,-0.06675590693354606,2.0412996379978954
1733513258289879000,8.641879150390626,-3.0245626332148907,0.33079028972387314,1.9615750900283455
1733513258299898000,8.651898193359376,-2.4333657958090305,0.7387322081893682,1.4414043842211366
1733513258309917000,8.6619169921875,-2.1995582089781758,1.0332482384830712,0.3544412144243717
1733513258319936000,8.67193603515625,-2.4129312028065324,1.4400304655194283,-0.7550862538799643
1733513258329956000,8.6819560546875,-2.8474279507204887,2.304399808678031,-1.7091411286607383
1733513258339975200,8.69197509765625,-3.3443159806177016,3.3944179821312424,-2.8324823105230927
1733513258349994200,8.701994140625,-3.884049465028941,4.259656509339809,-3.8970220515877005
1733513258360013000,8.712012939453125,-4.4667932391270995,4.857409636521339,-4.759334462216496
1733513258370032000,8.7220322265625,-5.144570043355226,4.959888598743081,-5.385554974469542
1733513258380051200,8.73205126953125,-5.848798508918285,4.540877004730701,-5.6103615087211125
1733513258390070000,8.742070068359375,-6.509722670283913,3.617442309141159,-5.085451499432325
1733513258400089000,8.752089111328125,-7.2065335530668495,2.4084347681701184,-3.866558524262905
1733513258410108200,8.762108154296875,-8.424705228224397,1.417568458342552,-2.046770178363472
1733513258420127200,8.772127197265625,-10.83217845788598,1.4400018239468335,0.34378143485262985
1733513258430146000,8.78214599609375,-15.653364103859662,2.2425322583079335,2.866215653298795
1733513258440165000,8.7921650390625,-24.842631562578678,3.5201615000844,5.267849217021465
1733513258450185000,8.80218505859375,-26.280211712336538,4.560450889250636,5.853510924392938
1733513258460204000,8.8122041015625,-20.078065044927595,5.815426400670409,5.6640948524743315
1733513258470222800,8.822222900390624,-10.57074169037342,6.828889157709479,3.4527053359270092
1733513258480242000,8.832241943359374,-4.463619577527046,6.959025357663631,0.5537098411850631
1733513258490261000,8.842260986328125,-1.1894006309643388,6.685012017172575,-2.038871534068137
1733513258500280000,8.852280029296875,1.2659024174951017,5.722133199945092,-3.8318162967056035
1733513258510299000,8.862298828125,3.635729660981893,4.565006068336963,-5.153424380940199
1733513258520318000,8.87231787109375,5.16222494251132,4.668926461538672,-5.528534289383888
1733513258530337000,8.8823369140625,5.720500630307197,5.710509397646785,-4.685125901189446
1733513258540356000,8.892356201171875,6.6231088109672065,6.718108231088519,-3.66865285641849
1733513258550375000,8.902375,8.300216678768395,7.353883922672272,-2.744184433867037
1733513258560394000,8.91239404296875,9.784733351746201,7.584860085469484,-2.0782192095942795
1733513258570414000,8.9224140625,10.347850634354351,7.124430439397692,-1.227572102317959
1733513258580433200,8.93243310546875,10.265742844510077,6.271879544326663,0.07008271326869726
1733513258590452000,8.942451904296876,9.358337492701411,5.318609097921848,1.2471717058010399
1733513258600471000,8.952470947265626,8.09606364096701,4.145315844410658,1.7155876744516192
1733513258610490000,8.962489990234374,6.6153510364472865,2.781937825939059,2.368261601605266
1733513258620509200,8.97250927734375,5.090769479584694,1.8218863410919903,2.7789550107359884
1733513258630528000,8.982528076171874,2.139219914001971,1.1930465862512587,3.2511110426977274
1733513258640547000,8.992547119140625,-2.355588728645444,-0.4617652785897255,2.5835358990103003
1733513258650566100,9.002566162109375,-2.017265851459652,-0.10806231531202792,1.0060032348133623
1733513258660585200,9.012585205078125,0.7506421339526772,0.04273673344254494,0.04797952946685254
1733513258670604000,9.02260400390625,1.49680230018571,-0.24286007733643053,0.025272607618197798
1733513258680623000,9.032623046875,4.575708079615235,-1.0740572187334299,-1.2966133437097072
1733513258690643200,9.042643310546875,8.234078611472249,-2.031288385462761,-2.9337147798150776
1733513258700662000,9.052662109375,9.614432314664125,-3.018338351872563,-3.923446240393817
1733513258710681000,9.06268115234375,9.95263901812434,-3.5898937924802303,-4.187600157910585
1733513258720700000,9.072699951171876,10.179358692520855,-3.8507290869683026,-4.1893285891383885
1733513258730719000,9.082718994140626,10.183818594539165,-3.8595898542940614,-4.183758095529675
1733513258740738000,9.092738037109376,9.998882882905006,-3.654174833732843,-4.042470971485972
1733513258750756900,9.1027568359375,10.304237118077278,-3.670086688613891,-3.4916169581234455
1733513258760776000,9.11277587890625,10.855531276422738,-4.056148199182749,-2.479225045186281
1733513258770795000,9.122794921875,10.972605165708064,-4.518444808170199,-1.2477975826144219
1733513258780814000,9.13281396484375,10.366500389766692,-5.121009719547629,-0.21630773210600018
1733513258790833000,9.1428330078125,9.11533011584878,-5.935185583516955,0.3842101836137473
1733513258800853000,9.15285302734375,7.863153295236826,-6.621812341415882,0.7047801080964505
1733513258810872000,9.1628720703125,7.023215213501453,-6.6010396025002,0.8940781065933406
1733513258820891100,9.17289111328125,6.381185722219944,-5.951908754780888,0.8371208323575556
1733513258830910000,9.182909912109375,5.083413856124878,-4.638802541431784,1.0648127127870917
1733513258840929000,9.192928955078125,2.3001357214927673,-2.667757904529571,1.6891713766910135
1733513258850948000,9.202947998046875,-2.8119910188972947,0.36878421255350113,2.6454630706131455
1733513258860967200,9.21296728515625,-15.944611487746238,6.200329388853907,3.6425016393348573
1733513258870986000,9.222986083984376,-28.41957585711479,12.491571805298328,4.668772732281685
1733513258881005000,9.233005126953126,-20.39775175683498,10.50421959219575,5.82081510797143
1733513258891024100,9.243024169921876,-10.685881981247663,4.867558690091967,5.443692690661549
1733513258901043200,9.253043212890624,-6.348844126063585,1.037590651601553,4.169704435735941
1733513258911062000,9.26306201171875,-4.827875499001145,-1.5560475392282007,2.5910779849529266
1733513258921082000,9.27308203125,-4.193888736660778,-2.9991806469380853,0.4787776420585811
1733513258931101200,9.28310107421875,-3.4501284711763263,-3.5573265708744524,-1.8310773632854223
1733513258941120300,9.293120361328125,-1.959121559396386,-3.3949832147985695,-3.897774915781617
1733513258951139000,9.30313916015625,-0.02464519643485546,-2.4402532172352074,-5.706319544741511
1733513258961158100,9.313158203125,4.354243257007003,-1.183465687957406,-5.5965422422051425
1733513258971177200,9.32317724609375,8.827889138507842,-0.18553484657108782,-4.676594219687581
1733513258981196300,9.3331962890625,10.00721115078926,0.9839122529059648,-2.256869411218166
1733513258991215000,9.343215087890625,8.106369346404076,3.263430718305707,0.80780172582753
1733513259001234200,9.353234130859375,4.020843661567569,6.036475043693184,4.325412007059157
1733513259011253000,9.3632529296875,-2.4098976803295313,8.974081570249796,9.640707742649317
1733513259021272000,9.37327197265625,-0.8483879301726818,9.390841585943102,10.663603513944148
1733513259031292000,9.3832919921875,4.150213553324342,4.340023592996597,5.954890985462069
1733513259041311000,9.39331103515625,5.855542722481489,-0.7745762595087289,2.2720944528788327
1733513259051330000,9.403330078125,6.974079134410619,-4.343211575382948,0.48979770631007846
1733513259061349000,9.41334912109375,7.928229870781302,-5.891175761398673,0.9813626414883881
1733513259071368000,9.423367919921875,8.97688902888596,-5.691387933069467,2.507664957728982
1733513259081387000,9.433386962890625,9.537176056504249,-4.768979073396324,3.1073508065387605
1733513259091406000,9.443406005859375,8.788727340942621,-3.536099658450484,2.9116558004811406
1733513259101425200,9.453425048828125,7.082661089682579,-1.9854057552099227,2.3209525918111202
1733513259111444000,9.46344384765625,5.974862344866991,-0.0636690468341112,1.4192241165950894
1733513259121463000,9.473463134765625,5.170817998811602,1.5063608405172824,0.320607991470769
1733513259131482000,9.483482177734375,5.185477223283052,2.5527690048247575,-1.1002013484891504
1733513259141502200,9.493502197265625,5.7272249701261515,3.00948576785326,-2.147977659344673
1733513259151521000,9.50352099609375,5.627259452030063,3.3050866707742212,-2.235655650536716
1733513259161540000,9.5135400390625,4.850698156183958,3.6973914596468207,-1.7020098154760896
1733513259171559200,9.52355908203125,3.7230958097457885,3.463151911139488,-1.8754988349445163
1733513259181578200,9.533578125,2.2071125698804854,2.4204876095354555,-2.9117753352075813
1733513259191597000,9.54359716796875,0.9780665225524455,1.144246607246995,-4.269880966234207
1733513259201615600,9.55361572265625,0.014664558233693241,0.4084411001592874,-5.006866038495302
1733513259211634700,9.563634765625,-0.4982254159808159,0.057040568605065345,-4.799738953319192
1733513259221653500,9.573653564453124,-0.7048176636278629,-0.07176350596249104,-4.547426864765584
1733513259231672600,9.583672607421875,-2.6499393392443658,-0.11858487837016582,-4.107609214089811
1733513259241691600,9.593691650390625,-4.68705774603486,0.597234656265378,-3.1894284935057162
1733513259251710700,9.603710693359375,-5.89334375308752,1.3480746508777142,-2.8803397479802366
1733513259261730600,9.61373046875,-6.346455769622326,1.717142356547713,-2.6843822915941473
1733513259271749400,9.623749267578125,-6.305370895040035,1.3990163180857895,-2.166323171113431
1733513259281768400,9.6337685546875,-5.991819324886799,0.7873474782764911,-1.2848799435570835
1733513259291787500,9.64378759765625,-5.566701230692863,0.4197118512362242,-0.27601050565764307
1733513259301806300,9.653806396484375,-5.06263410294652,0.475994294950366,0.5171009429730474
1733513259311825400,9.663825439453126,-4.489539616203308,0.5194008904784918,0.6881791019074618
1733513259321844500,9.673844482421876,-3.8084535412967204,-0.06097206283509731,0.46679720834232863
1733513259331863600,9.683863525390626,-3.304462401396036,-1.0974322491019963,0.27705205059982835
1733513259341882400,9.69388232421875,-3.0460724542334674,-2.0527666422992943,0.23421134532615542
1733513259351901400,9.7039013671875,-2.6723347109258175,-2.2236182990014552,0.5379067804407328
1733513259361920500,9.71392041015625,-2.0554595346450806,-1.7899276067733763,1.0359032830365003
1733513259371940600,9.723940673828125,-1.2936869348689912,-1.174211537399888,1.4451150753073394
1733513259381959700,9.733959716796875,-0.3584390518888831,-0.7121931608319282,1.7253218636110423
1733513259391978500,9.743978515625,0.6586173457279801,-0.41392625357210633,1.7648967720218003
1733513259401997600,9.75399755859375,1.5450246254324913,-0.0235322667568922,1.4994919776611029
1733513259412016600,9.7640166015625,1.9876959119737148,0.6143319215387105,0.8775009196713566
1733513259422035500,9.774035400390625,1.644168890273571,1.4081681773126125,-0.06616999680437147
1733513259432054500,9.784054443359375,0.49027007306218146,2.277226555070281,-0.8851527495987713
1733513259442073600,9.794073486328125,-0.9151876762479543,3.446555581125617,-1.5865058058559893
1733513259452092700,9.8040927734375,-2.156642027315497,4.851892334404588,-2.685812032136321
1733513259462111500,9.814111572265626,-3.357079892861843,6.276516556477547,-4.015877855853736
1733513259472130600,9.824130615234376,-4.915402391284704,7.1218176265507935,-5.478575787994266
1733513259482150700,9.834150634765624,-6.786374542585015,6.678699180763959,-6.916469826006889
1733513259492169700,9.844169677734374,-8.890656852588057,5.074135155647993,-6.837408564251661
1733513259502188800,9.854188720703124,-12.95270696929097,3.0191975990504023,-4.4587329745292665
1733513259512207600,9.86420751953125,-29.456321290063855,1.6410235779851674,1.4149392788827417
1733513259522226700,9.874226806640625,-40.096705256462094,1.620178942877054,6.677648210406303
1733513259532245800,9.884245849609375,-31.60889095337391,3.566511163327098,6.82726535589993
1733513259542264600,9.8942646484375,-17.776876014989615,6.0744917628765105,5.137833428576588
1733513259552283600,9.90428369140625,-7.2905872162818905,7.250794135075807,2.979108165246248
1733513259562302500,9.914302490234375,-2.4172914438426494,7.510030762195587,0.9433734678991138
1733513259572321500,9.924321533203125,1.7370726532898841,8.391244857171177,-1.26756055996567
1733513259582341600,9.934341552734375,5.411662644672393,9.111595605495571,-3.1040853750020263
1733513259592360400,9.9443603515625,6.563897912585735,8.42538678074777,-5.333603253436088
1733513259602379500,9.954379638671876,6.981051311510801,6.4818135036170474,-6.331771410709619
1733513259612398600,9.964398681640626,6.6896835161149495,4.907122054195404,-5.744831938487291
1733513259622417400,9.97441748046875,6.323286490958929,4.557193933281302,-5.198159010201692
1733513259632436500,9.9844365234375,6.092077688449621,4.8215778601616615,-4.624193585842847
1733513259642455600,9.99445556640625,5.984021802878379,5.202766211736202,-3.8861008446007963
1733513259652474600,10.004474609375,6.493213434031605,5.4432104601025575,-3.461613157264888
1733513259662493400,10.014493408203125,7.088955221390724,5.638104086649418,-3.0320681865394112
1733513259672512500,10.024512451171875,7.877171883717179,5.736025531697273,-2.233813968192786
1733513259682531600,10.034531494140625,8.687938231503963,5.543324446758628,-1.11952600748837
1733513259692551700,10.0445517578125,8.282724861219524,4.8214510189116,0.6237944541499019
1733513259702570800,10.05457080078125,7.628203552633524,3.304711992242932,1.3962779791630804
1733513259712589600,10.064589599609375,6.249932500934601,1.7291601265996694,1.4669152575746178
1733513259722608600,10.074608642578125,4.488663417890668,0.7928636113494634,1.6642771739311515
1733513259732627700,10.084627685546875,3.049502720943093,-0.1881061583638191,1.8835221285328267
1733513259742646500,10.094646484375,1.8719496180303394,-0.9501005841970444,1.9167779169246553
1733513259752665600,10.10466552734375,0.7155199671670794,-1.3338380357325077,1.4221198380365967
1733513259762684700,10.1146845703125,-0.29182167664319275,-1.7455244014233349,1.6938246093243359
1733513259772703700,10.124703857421874,0.5383505056202411,-2.086673003554344,2.338303539584577
1733513259782722600,10.13472265625,3.9371424650520086,-2.074146114936471,0.7273187607061118
1733513259792741600,10.14474169921875,6.479066250735521,-2.546417005449533,-1.217962708581984
1733513259802761500,10.154761474609375,7.554350380915403,-3.3841479325294492,-2.21087645245865
1733513259812780500,10.164780517578125,8.066177036747336,-4.146680118501187,-2.6105788042366505
1733513259822799600,10.174799560546875,8.461957977297901,-4.576832699730992,-2.548802147020399
1733513259832818400,10.184818359375,9.065888916331529,-4.79080804336667,-2.3216322446383533
1733513259842837500,10.19483740234375,9.889328283208608,-4.645019516250491,-2.212009840402752
1733513259852856600,10.204856689453125,10.499109701836108,-4.4865714140474795,-2.06618434227705
1733513259862875400,10.21487548828125,10.68892967838049,-4.6007823151171205,-1.990112617726624
1733513259872894500,10.22489453125,10.330578012514113,-5.332374588423967,-2.0324827098138627
1733513259882913500,10.23491357421875,9.182126354792713,-6.069722648778558,-1.8895956032276153
1733513259892932600,10.2449326171875,8.064915053987503,-6.3080111804157495,-1.4878629146657882
1733513259902952700,10.25495263671875,7.451688463342189,-6.052285776287317,-0.8624236159183084
1733513259912971500,10.264971435546874,6.700793523672223,-5.32601031408906,-0.0720151426360011
1733513259922990600,10.274990478515624,4.938798464441299,-3.957501362469792,0.9684063484773039
1733513259933009700,10.285009765625,2.4351813207983968,-2.113096900099516,1.9196112406544386
1733513259943028500,10.295028564453125,-1.7984702480606733,0.4361842626094818,2.8670532731667158
1733513259953047600,10.305047607421875,-12.169338916039466,4.777971358147263,3.648395665809512
1733513259963066600,10.315066650390625,-23.987454995179174,9.636771572244166,3.041034167805314
1733513259973085700,10.325085693359375,-21.34767932255268,9.793580090546607,2.5953581464901565
1733513259983104500,10.3351044921875,-11.460961514103412,5.634483558064699,3.138200995093584
1733513259993123600,10.34512353515625,-6.119674135905504,2.3476497523397204,2.4669436557620763
1733513260003142700,10.355142578125,-4.104541643212736,0.27860183732509614,1.3046705395676195
1733513260013162500,10.36516259765625,-3.570175531053543,-0.9521399810701608,0.3017927432984113
1733513260023181600,10.375181640625,-2.938234887588024,-1.737258677381277,-1.163798133804649
1733513260033200400,10.385200439453126,-1.0868915658652782,-2.205980935502052,-2.8884868140786883
1733513260043219500,10.395219482421876,1.89792328658998,-2.2018284919977185,-4.450179665717482
1733513260053238500,10.405238525390626,4.778972936405241,-1.7249492309063672,-5.210359151083231
1733513260063257300,10.41525732421875,6.64522127405405,-0.8945534690201282,-4.762214986088872
1733513260073276400,10.4252763671875,7.546814724713563,0.06739128222763538,-3.061641779287159
1733513260083295500,10.43529541015625,6.240954244709014,1.8549357932567596,-1.4695209100283682
1733513260093314600,10.445314453125,-0.07855594258159398,5.1653936356753105,0.9017850277088582
1733513260103333400,10.45533349609375,-9.73320482456088,9.29393954707086,5.804747770267725
1733513260113353500,10.465353515625,-6.524044041103124,10.3676787858963,9.541918282595276
1733513260123372500,10.47537255859375,1.8100860131829977,7.1638535182476035,8.445724635377525
1733513260133391600,10.4853916015625,4.38520596602559,2.3247680584460495,5.655193168616295
1733513260143410700,10.49541064453125,6.449559001222252,-2.5160931788563725,3.2389526951313017
1733513260153429500,10.505429443359375,8.44603384745717,-6.0078925078094,1.1245838023345918
1733513260163448600,10.515448486328125,9.124792940720916,-7.886430125927925,0.46592780509665604
1733513260173467600,10.525467529296876,9.856254865646362,-8.221194579979777,1.1249018553078174
1733513260183486500,10.535486572265626,10.374739810323714,-7.12736298571825,2.3558581932365894
1733513260193505500,10.545505615234376,9.920569809168576,-5.290487749809026,3.0242069516450165
1733513260203525400,10.555525390625,8.240410152581333,-2.831739090940356,2.7367981230080125
1733513260213544200,10.565544189453124,6.4251230636239045,-0.36279461674988267,2.3106445482864975
1733513260223564000,10.57556396484375,5.5256964356094596,1.804697305881977,1.3805457186326384
1733513260233583000,10.5855830078125,5.385900426906347,3.2525299695849417,-0.3407961354315281
1733513260243602200,10.595602294921875,5.369335661074519,3.9954473545044658,-2.0302970363378523
1733513260253621200,10.605621337890625,4.827579146403074,4.019164330178499,-2.8499066157937047
1733513260263640000,10.61564013671875,4.217541707187891,3.8084827673912045,-2.696968801444769
1733513260273659100,10.6256591796875,3.507522967785597,3.77011007437706,-2.453766194280982
1733513260283678200,10.63567822265625,2.3944296236932274,2.894092379000783,-2.9944489422410725
1733513260293697000,10.645697021484375,1.1293746168076992,1.8636890085548161,-3.9698727682650086
1733513260303716000,10.655716064453125,0.012214132874272763,0.9175169959783553,-4.329317782326043
1733513260313735200,10.665735107421876,-0.5009856014091522,-0.22605565752983092,-4.537503144383431
1733513260323755300,10.67575537109375,-0.5257330891747027,-0.9450123211473226,-4.501433467614651
1733513260333774300,10.6857744140625,-2.558185769176483,-0.9795704243093728,-4.166791763159632
1733513260343793200,10.695793212890624,-4.85063853495121,0.37119536534845826,-3.5741263145059343
1733513260353812200,10.705812255859374,-5.910375551909208,1.8164222304672002,-3.2901275865733624
1733513260363831300,10.715831298828125,-6.309070918601751,2.231204808607697,-3.1231732295706864
1733513260373850400,10.725850341796875,-6.193285315561294,1.5672744511634111,-2.777025503978133
1733513260383869200,10.735869140625,-5.83278728531599,0.8197843515008687,-2.0536257433466614
1733513260393888300,10.74588818359375,-5.375977583307027,0.3981979385644197,-1.0837393854446709
1733513260403907300,10.7559072265625,-4.906164607340097,0.2261871749550104,-0.40760406481325623
1733513260413926100,10.765926025390625,-4.451042712287604,-0.06997662254571914,-0.20069997473806142
1733513260423946200,10.7759462890625,-3.9522023792788383,-0.6536451102733611,-0.2143622971266508
1733513260433965300,10.78596533203125,-3.3792972776278853,-1.2315297539025545,0.0898131035245955
1733513260443984400,10.795984375,-2.732013226819038,-1.629564026337862,0.6428406615339219
1733513260454003500,10.80600341796875,-1.9659014287948606,-1.6568752271115779,1.2898708837121724
1733513260464022300,10.816022216796876,-1.0983683609083295,-1.2314052507400512,1.9037984622336923
1733513260474041300,10.826041259765624,-0.1386073834404349,-0.6070972941100597,2.4613369217962027
1733513260484060200,10.83606005859375,0.8219605264961719,0.084195702034235,2.9613083046615123
1733513260494079200,10.846079345703124,1.6714049799844621,0.7476146028250455,3.233068605528772
1733513260504098300,10.856098388671874,2.2882851247012614,1.2059101594775914,3.078561642166972
1733513260514117000,10.8661171875,2.4118774559698997,1.1563163997471333,2.295561545445025
1733513260524137200,10.87613720703125,1.5716905140399933,0.612425211134553,1.128079024039209
1733513260534156300,10.88615625,0.1648492014169693,0.9070867873787879,0.22604908165857193
1733513260544175000,10.896175048828125,-1.1411530251458286,2.862853191128373,-1.095560975337401
1733513260554194200,10.906194091796875,-2.3948180384889244,5.250113653844594,-3.1077871521294114
1733513260564213200,10.916213134765625,-3.919315131938457,7.041693704000115,-5.266263993656635
1733513260574232300,10.926232421875,-5.551771372586488,7.902816028061508,-7.111936284005641
1733513260584251100,10.936251220703125,-6.910866599172353,7.439408827483653,-8.303508121529221
1733513260594270200,10.946270263671876,-8.033486481022834,5.814096028849482,-7.973218767064809
1733513260604289300,10.956289306640626,-9.763374337375163,3.276973505967855,-6.015704058343172
1733513260614308000,10.96630810546875,-14.169187038099764,0.7644634462952613,-2.5505358389452097
1733513260624328200,10.976328125,-25.593950280618667,0.09309154067337512,2.6676757792040706
1733513260634347300,10.98634716796875,-32.60662539540529,1.9774930823892354,6.070364453813434
1733513260644366300,10.996366455078125,-27.85153280854225,4.974644853848218,6.5437541192233555
1733513260654385400,11.006385498046875,-16.614268990665675,6.2923214438527815,4.846768415519595
1733513260664404200,11.016404296875,-7.385950209018588,6.528643643853068,3.6056957572460173
1733513260674423300,11.02642333984375,-2.536151924283802,7.224855976220965,1.8498640429504214
1733513260684442400,11.0364423828125,0.5132935135141015,7.825700055155157,-0.10600552891269326
1733513260694461400,11.04646142578125,3.376012849129736,7.196841595613956,-1.8835723974153398
1733513260704480300,11.056480224609375,5.489183106726408,5.324488219088316,-3.7424545902103183
1733513260714499300,11.066499267578125,6.566463963681459,3.9387352872014043,-4.713254848086834
1733513260724519200,11.076519287109376,6.725434043931961,3.528928159385919,-4.194810819941759
1733513260734538200,11.086538330078126,6.351842723357677,4.171693563726544,-3.6027561966627832
1733513260744557000,11.09655712890625,6.373644220799207,4.888156656962633,-3.284540434090793
1733513260754576100,11.106576171875,6.381345881217718,5.245708696883916,-2.436941170077771
1733513260764595200,11.11659521484375,6.560945492520928,5.269801520133019,-1.602868034853041
1733513260774614300,11.1266142578125,6.897310367506742,4.909597504398226,-0.6284131999917328
1733513260784633000,11.136633056640624,7.322104052051901,4.416486070430278,0.540239972628653
1733513260794652200,11.146652099609375,7.337001761454343,4.1409243314534425,1.6933524617679416
1733513260804671200,11.156671142578125,6.931410205507278,3.614243220838904,2.163832231080532
1733513260814690300,11.166690185546875,6.5673571131289,2.447861354151368,1.8794472803093492
1733513260824710100,11.176710205078125,6.126847973057627,1.1421376522690057,1.1887053421765565
1733513260834729200,11.186729248046875,4.735939558103681,-0.0021615619480609893,0.6506649254187942
1733513260844748300,11.196748291015625,1.5831050575017929,-0.6273135681867599,-0.18838775178417563
1733513260854767400,11.206767333984375,-1.5179735368996858,-0.651127574494481,-1.2621721449255943
1733513260864786200,11.2167861328125,-1.8944108945548532,-0.6932312707304954,-1.2163831843055783
1733513260874805200,11.22680517578125,-0.36015666946172714,-0.6455518201887607,0.038990678782016036
1733513260884824300,11.23682421875,1.4097136531889438,-0.6252057822525501,0.5214294006314129
1733513260894843400,11.246843505859376,4.833185880368948,-0.8793506391912699,-1.4574087396912276
1733513260904862200,11.2568623046875,7.391909409683942,-1.5416373210817576,-2.6821459108442065
1733513260914881300,11.26688134765625,8.429178574246167,-2.6066741980135437,-2.976491553007066
1733513260924901000,11.276901123046875,8.541295717906952,-3.4787551384627817,-2.8164439066529274
1733513260934920200,11.286920166015625,8.8005907972157,-4.012237745785713,-2.466333999431133
1733513260944939300,11.296939208984375,9.182803231140971,-4.358922939255834,-2.1581014323435723
1733513260954958000,11.3069580078125,9.765148945832252,-5.013171860641241,-1.905601273871958
1733513260964977200,11.31697705078125,10.389577313971518,-5.774384780707955,-1.5266541253529489
1733513260974996200,11.326996337890625,10.476696794497967,-6.459111842465401,-0.9059114599891006
1733513260985015000,11.33701513671875,9.729683664697408,-6.8663049883902065,-0.15013810062780975
1733513260995034000,11.3470341796875,8.246923479998111,-6.935310720077156,0.33691637138873337
1733513261005053200,11.35705322265625,6.392740550935268,-6.597505583155155,0.6764158911384641
1733513261015072300,11.367072265625,4.722014493125677,-5.812819433042407,0.8086449717186391
1733513261025092000,11.377092041015626,2.969557954351604,-4.4433933665782215,1.1141523516260088
1733513261035111200,11.387111083984376,0.4876242347285151,-2.483997666415572,1.5370083461068569
1733513261045130200,11.397130126953124,-2.63215759883821,0.14445581720769404,1.7661663535661993
1733513261055149300,11.4071494140625,-8.411434243240953,3.743241941195726,2.199959190994501
1733513261065168100,11.417168212890624,-16.057730501925946,7.889383715036511,3.060428019583225
1733513261075187200,11.427187255859375,-17.73469808447361,9.673782329255342,4.703879116976261
1733513261085206300,11.437206298828125,-12.503678422677517,6.6920800558626645,5.204394105198979
1733513261095225300,11.447225341796875,-8.181320250231026,2.725288302478194,4.039770772616565
1733513261105244200,11.457244140625,-5.634828425979614,0.044835167026519775,2.9519676448643204
1733513261115264300,11.46726416015625,-4.373384595328569,-1.7355062807559967,1.6437160319395363
1733513261125283300,11.477283447265625,-3.135947955469787,-2.7931179761230944,-0.10468830883428454
1733513261135302400,11.487302490234375,-1.2627763944290578,-3.1659587705910206,-2.425131197557598
1733513261145321200,11.4973212890625,0.2831485408440232,-2.5516408775776624,-4.664674064791202
1733513261155340300,11.50734033203125,1.1165408541977404,-0.7738280714899302,-5.811566218110919
1733513261165359400,11.517359375,3.628025662475824,1.2489502597808837,-4.531783305431902
1733513261175378400,11.52737841796875,6.331690746688842,2.7073984255224466,-2.312109360142052
1733513261185397200,11.537397216796874,5.609151548409462,4.698413252785802,0.15816249019466339
1733513261195415600,11.54741552734375,2.021657364416867,6.697575146147608,3.1642990206852555
1733513261205434600,11.5574345703125,-0.8761457056701183,6.778275407281518,7.144570725628733
1733513261215454500,11.567454345703124,0.537446250256896,5.152232540807128,9.225106833863258
1733513261225473300,11.577473388671875,4.5740673266708844,2.452365095311403,8.07847829991579
1733513261235492400,11.587492431640625,7.13415162294507,-1.0100187540650367,5.49117457280457
1733513261245511400,11.597511474609375,8.155340590322018,-4.179578179496526,2.7193717719107866
1733513261255530500,11.607530517578125,8.442724869039655,-5.956577331113815,1.3557465006798506
1733513261265549300,11.61754931640625,8.717716114652156,-6.189854756590724,1.830826749525219
1733513261275568400,11.627568359375,9.13084449584484,-5.297649896523356,3.0099694597169755
1733513261285587500,11.63758740234375,9.44418330003023,-4.061866576829552,3.459533720642328
1733513261295606300,11.647606201171875,9.267405175888538,-2.6117186219215394,2.8335958247229454
1733513261305625300,11.657625244140625,8.406447102478147,-0.8862386451393365,2.0655140418000517
1733513261315645400,11.6676455078125,7.320504215639829,1.3551584716588259,1.0398906721722334
1733513261325664500,11.67766455078125,6.6245782989978785,3.603051964738965,-0.10174312222786247
1733513261335683600,11.68768359375,6.262836990693211,5.0007308967411515,-1.052338650334999
1733513261345702400,11.697702392578124,5.022008662569522,5.3622179380238055,-1.7858333231970667
1733513261355721500,11.707721435546874,3.961806366187334,4.94743185275197,-1.542665787346661
1733513261365740500,11.717740478515625,3.5308196722209453,3.8698616574615237,-2.159702876190841
1733513261375759600,11.727759521484375,3.4026597407758232,2.8142881899237633,-3.765394444032013
1733513261385778400,11.7377783203125,2.5450012934327124,1.8475334080457686,-4.931100895676017
1733513261395797500,11.747797607421875,1.1798012471657247,0.8474626320213079,-5.034009481486678
1733513261405817600,11.757817626953125,0.08526413498334585,-0.3510170851945877,-5.000481890416145
1733513261415836700,11.767836669921875,-0.1591664796054363,-1.1892413487493991,-4.70037549276948
1733513261425855500,11.77785546875,-1.5631366207063198,-1.7943045066833494,-3.944638373765349
1733513261435874600,11.78787451171875,-4.011016095036268,-0.5376958411037922,-2.7408663953602312
1733513261445893600,11.7978935546875,-5.192732308977842,1.229496202248335,-2.4332186424233018
1733513261455912700,11.80791259765625,-5.763870985478162,1.8465742076247929,-2.6302999882727858
1733513261465931500,11.817931640625,-5.918923600023985,1.496243935650587,-2.52762404217422
1733513261475950600,11.82795068359375,-5.726343511116505,1.283215517476201,-1.9868116764850914
1733513261485969700,11.8379697265625,-5.406574966144562,1.0335130268990993,-0.9756392223402858
1733513261495988500,11.847988525390624,-5.0250493454396725,0.7024258000552653,-0.08934767796993255
1733513261506008300,11.85800830078125,-4.601163423389196,0.26608254749178883,0.282065421782434
1733513261516027400,11.86802734375,-4.121627510309219,-0.47817456159889693,0.1688992074601352
1733513261526046500,11.87804638671875,-3.638490942388773,-1.2314525970131158,0.12325849620439111
1733513261536065500,11.8880654296875,-3.1781986589610574,-1.7741057682633399,0.24272534504085777
1733513261546084400,11.89808447265625,-2.7360651325583456,-2.0630343538135287,0.440935475724563
1733513261556103400,11.908103515625,-2.229073349536955,-2.050684575328231,0.7582582349795848
1733513261566122500,11.91812255859375,-1.6861694183960556,-1.6638865671783685,1.0674754291903228
1733513261576141600,11.9281416015625,-1.1016522048845887,-0.9350491455376148,1.319536538657546
1733513261586160400,11.938160400390625,-0.52195934278965,-0.045987844192981714,1.4495146254405378
1733513261596180500,11.948180419921876,-0.026892390839755535,0.7604565487414598,1.2243397693332283
1733513261606199600,11.958199462890626,0.2894064321950078,1.241584699448943,0.5554258513227105
1733513261616218600,11.968218505859374,0.0652419952392578,1.5979922455102205,-0.35590646467134357
1733513261626237400,11.978237548828124,-0.770342567461729,2.5243255851507187,-1.0961720929730683
1733513261636256500,11.988256591796874,-1.9686679708987473,4.218061347147822,-1.9682821864515543
1733513261646275600,11.998275634765625,-3.2887364244759083,6.219903857895732,-3.352917512485385
1733513261656294700,12.008294677734375,-4.870264734180271,7.791307371687888,-4.9031692249163985
1733513261666313500,12.0183134765625,-6.470572563156485,8.04774296991229,-6.308344357892871
1733513261676332500,12.02833251953125,-7.8776529452323905,6.8754837356239555,-6.929602863824367
1733513261686351600,12.0383515625,-9.82535236238241,5.0056297746986145,-5.647314398065209
1733513261696371500,12.048371337890625,-17.74266044165492,2.955247981709242,-1.5510767650783062
1733513261706390300,12.058390380859375,-39.71554087028503,1.728683156737685,6.988347313737869
1733513261716409300,12.068409423828125,-38.007488413643834,1.7587848650127649,8.902175440946221
1733513261726428400,12.078428466796876,-22.993522283518313,3.7932472043365237,5.288184733563662
1733513261736447500,12.088447509765626,-10.516662894183396,5.750381389307975,3.201560829848051
1733513261746466300,12.09846630859375,-4.223817718717456,6.895740341711044,1.0315379274338483
1733513261756485400,12.1084853515625,0.2558721191227436,8.314259232646226,-1.848069706879556
1733513261766504400,12.11850439453125,3.83960037471056,9.298550840258597,-4.618064289307594
1733513261776523500,12.1285234375,5.949461361628771,8.937244416239857,-6.777573396492004
1733513261786543400,12.13854345703125,7.5614651813566685,7.899121849718689,-7.291317284122109
1733513261796562400,12.1485625,8.400017946213483,6.550918604025244,-5.658255478796362
1733513261806581500,12.15858154296875,8.060565042084455,5.698069602790475,-4.289403997349739
1733513261816600600,12.1686005859375,7.326901223200559,5.639693401667476,-3.7040465336218475
1733513261826619400,12.178619384765625,6.968124025398493,5.669900323882699,-3.0107050805151463
1733513261836638500,12.188638427734375,6.712727707093953,5.757744611552357,-2.435805151785165
1733513261846657500,12.198657470703125,6.677451811051369,5.632042594653368,-2.313772178787738
1733513261856676600,12.208676513671875,7.057129173541068,5.22261482154429,-2.3170909479469057
1733513261866695400,12.2186953125,7.317669868996739,4.780605213782191,-2.2048666906498373
1733513261876715500,12.228715576171876,7.698691631832719,4.0880543265312905,-2.3423725425891577
1733513261886734600,12.238734619140626,7.543050988265872,2.9522160666674373,-2.1672547528751194
1733513261896753700,12.248753662109374,6.286480901131034,1.7498182992249727,-1.679158078329265
1733513261906772500,12.2587724609375,4.40788599986732,0.6249813258469105,-1.4165440837308763
1733513261916791600,12.26879150390625,3.3200276347965,-0.21784721663296222,-1.8612464377082882
1733513261926810600,12.278810546875,2.267415209021419,-1.091224042111635,-2.2222407270379363
1733513261936829400,12.288829345703125,2.103807824359089,-1.58021927293241,-2.121465207733214
1733513261946848500,12.2988486328125,2.974277676349878,-1.529053149318695,-2.038066355165094
1733513261956867600,12.30886767578125,3.5889696633726356,-1.150332064640522,-1.5717644560590385
1733513261966887400,12.318887451171875,2.850803272372484,-1.0428379046052694,-0.3670382456690073
1733513261976906500,12.328906494140625,3.3796868614673614,-1.3689999500066041,0.022931232123821973
1733513261986925600,12.338925537109375,5.91425093203783,-1.3126578850597141,-1.6581882094062863
1733513261996944400,12.3489443359375,7.979283181670308,-1.7883733630686998,-3.1748008332163096
1733513262006963500,12.35896337890625,9.00704509769678,-2.808745168843865,-3.573595568630099
1733513262016982500,12.368982421875,9.416140862372517,-3.7047570199787616,-3.264614375132322
1733513262027001300,12.37900146484375,9.728967040860653,-4.358581578472257,-2.7866309521913526
1733513262037020400,12.3890205078125,10.345466954088211,-4.956957805988193,-2.407625205352902
1733513262047039500,12.39903955078125,10.841625500667094,-5.261878910440206,-2.139252354966849
1733513262057059600,12.4090595703125,10.874012689530849,-5.449709174472093,-1.6597167341478167
1733513262067078700,12.41907861328125,10.491810192477702,-5.755354501545429,-1.0201410657592118
1733513262077097500,12.429097412109375,9.531754031455517,-6.054996788811684,-0.07276391517668962
1733513262087116500,12.439116455078125,8.194665469494462,-5.977782031705975,1.2186452840186655
1733513262097135600,12.449135498046875,6.576414279809594,-5.1846834425568575,3.0340111373007295
1733513262107154400,12.459154541015625,3.991509722794592,-3.8503409644335505,5.148156669670343
1733513262117173500,12.469173583984375,0.49794133834242815,-2.1292115840762853,6.574464899307489
1733513262127192600,12.479192626953125,-6.598979747360945,0.6249526842743158,7.7000138203471895
1733513262137211600,12.489211669921875,-18.421282172274587,4.976888833382725,7.19819593283236
1733513262147231500,12.4992314453125,-19.24331868661642,7.336100428700447,3.504900218066573
1733513262157250300,12.509250244140626,-13.105394608271121,5.995850772359967,2.4457278492540118
1733513262167269400,12.519269287109376,-8.319460892942548,3.4871120479196307,2.665938287886977
1733513262177288400,12.529288330078124,-5.352084082022309,1.1481214028537272,1.9125274198733269
1733513262187307500,12.5393076171875,-3.814650057849288,-0.11566460700929164,0.7562377620026469
1733513262197326600,12.54932666015625,-2.764906319378316,-0.8654372646510601,-0.3968913860104978
1733513262207345400,12.559345458984374,-1.6960070679299533,-1.5321604676842688,-1.5428534188732503
1733513262217364500,12.569364501953125,-0.4985796362459659,-1.9389941326469182,-2.523056295867264
1733513262227383600,12.579383544921875,0.40331659675240517,-1.8007839318305252,-3.5782606378316877
1733513262237402600,12.589402587890625,1.6567247127249836,-1.9219810385257003,-4.439373317281902
1733513262247422500,12.59942236328125,3.681555592611432,-2.2191256637573242,-4.537647813551128
1733513262257441500,12.609441650390625,5.019057411548495,-1.4420435589075087,-3.406879696558416
1733513262267460600,12.619460693359375,5.394955840021372,0.4342670308113098,-0.7504998028725385
1733513262277479700,12.629479736328125,5.3580386065125465,3.3657647190988063,2.600258193491399
1733513262287498500,12.63949853515625,3.7227819214910265,6.611139556232095,5.8858835002094505
1733513262297517600,12.649517578125,2.1845861191652713,9.36559491648376,7.845097998586296
1733513262307536600,12.65953662109375,3.3410599014312026,9.062522070246935,7.327677468270063
1733513262317555700,12.6695556640625,4.440164467659592,4.341988171067833,3.9123251269206403
1733513262327575800,12.679575927734374,4.927684365230799,-1.032472577935457,0.8376175298333167
1733513262337594600,12.6895947265625,5.503156687021256,-4.381275056317448,0.4474485108803957
1733513262347613700,12.69961376953125,6.036584933808445,-5.36136979676187,1.9890145933568477
1733513262357632500,12.709632568359375,6.495232957160472,-4.831012043461203,3.440853570091724
1733513262367651600,12.719651611328125,6.8519432855606075,-3.9757980666607615,3.5274969575390216
1733513262377670400,12.72967041015625,7.39791829470992,-2.99174903563261,2.6334932313561437
