time,seconds_elapsed,z,y,x
1733513586888235800,0.02223583984375,0.0051334332674741745,-0.05572986230254173,-0.007599313277751207
1733513586898254800,0.0322548828125,-0.0007603804697282612,-0.053089119493961334,-0.004306390415877104
1733513586908274000,0.04227392578125,-0.0002149650827050209,-0.04289720207452774,-0.005991106387227774
1733513586918293800,0.052293701171875,0.007484364323318005,-0.03117610327899456,-0.010193273425102234
1733513586928312800,0.062312744140625,0.013156364671885967,-0.021802840754389763,-0.009289395995438099
1733513586938332000,0.072331787109375,0.022136937826871872,-0.021174853667616844,-0.01506392564624548
1733513586948351000,0.08235107421875,0.030943213030695915,-0.03565525636076927,-0.012705430388450623
1733513586958369800,0.092369873046875,0.037736937403678894,-0.04641442745923996,-0.0001749911898514256
1733513586968388900,0.102388916015625,0.04240678995847702,-0.03600599616765976,0.0036186818033456802
1733513586978408000,0.112407958984375,0.044574376195669174,-0.020519796758890152,0.00926796905696392
1733513586988427000,0.122427001953125,0.03822619840502739,-0.0237526074051857,0.01130715012550354
1733513586998445800,0.13244580078125,0.035513877868652344,-0.02536909095942974,0.011721844784915447
1733513587008465000,0.14246484375,0.030098071321845055,-0.034249402582645416,0.008639502339065075
1733513587018484000,0.15248388671875,0.025827594101428986,-0.03513523191213608,0.0064428504556417465
1733513587028503800,0.16250390625,0.02337668649852276,-0.03236128389835358,-0.00033329628058709204
1733513587038522600,0.172522705078125,0.020900946110486984,-0.036839794367551804,-0.0007904095109552145
1733513587048541700,0.182541748046875,0.020228229463100433,-0.03025033324956894,0.004854959435760975
1733513587058560800,0.192560791015625,0.02756410278379917,-0.02362130396068096,0.007840475998818874
1733513587068579800,0.202579833984375,0.03080863133072853,-0.01590532809495926,0.016467787325382233
1733513587078598700,0.2125986328125,0.03585232421755791,-0.0203473549336195,0.02200039103627205
1733513587088617700,0.22261767578125,0.036444876343011856,-0.009530926123261452,0.019102605059742928
1733513587098636800,0.23263671875,0.04172670841217041,-0.0017635095864534378,0.01054777204990387
1733513587108655900,0.24265576171875,0.0435485765337944,0.00007966416887938976,0.0020088779274374247
1733513587118674700,0.2526748046875,0.04679420217871666,-0.005156445782631636,-0.006597700994461775
1733513587128693800,0.26269384765625,0.050009168684482574,-0.019055748358368874,-0.00841610785573721
1733513587138713900,0.2727138671875,0.05283931642770767,-0.03252469748258591,-0.0066214376129209995
1733513587148733000,0.28273291015625,0.05288512259721756,-0.04126785695552826,0.0009395426604896784
1733513587158751700,0.292751708984375,0.053124215453863144,-0.01683855801820755,0.006859065033495426
1733513587168770800,0.302770751953125,0.061555247753858566,0.011366182006895542,0.011927592568099499
1733513587178790000,0.312789794921875,0.05887390300631523,0.032635144889354706,0.023581471294164658
1733513587188809000,0.32280908203125,0.05339311435818672,0.03953219950199127,0.03141063451766968
1733513587198827800,0.332827880859375,0.05526021122932434,0.04012404382228851,0.042090557515621185
1733513587208846800,0.342846923828125,0.05651376023888588,0.02873024344444275,0.04844699054956436
1733513587218866000,0.352865966796875,0.0560242123901844,0.019430339336395264,0.05185567960143089
1733513587228885000,0.362885009765625,0.051531195640563965,0.0132962791249156,0.05294624716043472
1733513587238903800,0.37290380859375,0.049540113657712936,0.007220212370157242,0.05734943971037865
1733513587248924000,0.382923828125,0.04570409655570984,-0.020005816593766212,0.05753745883703232
1733513587258942700,0.392942626953125,0.042932190001010895,-0.04135807231068611,0.04916733503341675
1733513587268961800,0.4029619140625,0.043424077332019806,-0.049693502485752106,0.05170932039618492
1733513587278980600,0.412980712890625,0.044938161969184875,-0.03848574683070183,0.04886890575289726
1733513587288999700,0.422999755859375,0.04921413213014603,-0.027261588722467422,0.055687397718429565
1733513587299018800,0.433018798828125,0.05433981120586395,-0.0026116680819541216,0.06457562744617462
1733513587309037800,0.443037841796875,0.064134381711483,0.039804764091968536,0.07835002988576889
1733513587319056600,0.453056640625,0.06435973942279816,0.06677768379449844,0.0866004228591919
1733513587329075700,0.46307568359375,0.0707894116640091,0.08354174345731735,0.10170800238847733
1733513587339094800,0.4730947265625,0.08513307571411133,0.08316035568714142,0.11088655143976212
1733513587349113600,0.483113525390625,0.09859322756528854,0.07997601479291916,0.11236593872308731
1733513587359133700,0.4931337890625,0.10964255034923553,0.06887833774089813,0.12284015119075775
1733513587369152800,0.50315283203125,0.10297080129384995,0.06409876048564911,0.1222262904047966
1733513587379171800,0.513171875,0.09829296916723251,0.056173454970121384,0.12451682984828949
1733513587389191000,0.52319091796875,0.09282895922660828,0.04610484093427658,0.13096541166305542
1733513587399209700,0.533209716796875,0.09301657974720001,0.020777897909283638,0.13016512989997864
1733513587409228800,0.543228759765625,0.0993218794465065,0.019440459087491035,0.12511417269706726
1733513587419247900,0.553247802734375,0.11635690182447433,0.01574963890016079,0.11792368441820145
1733513587429267000,0.563266845703125,0.1347215175628662,-0.007764740847051144,0.11090625077486038
1733513587439285800,0.57328564453125,0.13767842948436737,-0.03301655873656273,0.10274077951908112
1733513587449304800,0.583304931640625,0.13899536430835724,-0.040403369814157486,0.09111794084310532
1733513587459324000,0.593323974609375,0.13573239743709564,-0.03453763574361801,0.08112587034702301
1733513587469344000,0.603343994140625,0.12607285380363464,-0.026123113930225372,0.06985777616500854
1733513587479362800,0.61336279296875,0.12459003180265427,-0.021103667095303535,0.0625678300857544
1733513587489382000,0.6233818359375,0.12355859577655792,-0.0016905544325709343,0.06311004608869553
1733513587499401000,0.63340087890625,0.12381188571453094,0.03243541717529297,0.06209321320056915
1733513587509420000,0.643419921875,0.12098866701126099,0.051369693130254745,0.060546185821294785
1733513587519439000,0.653439208984375,0.11750824749469757,0.08021080493927002,0.0698910653591156
1733513587529458200,0.663458251953125,0.11281495541334152,0.10347963869571686,0.0770120918750763
1733513587539477000,0.67347705078125,0.10591607540845871,0.12509509921073914,0.07917503267526627
1733513587549496000,0.68349609375,0.10010559111833572,0.12385725975036621,0.07829592376947403
1733513587559515100,0.69351513671875,0.10814431309700012,0.12236648052930832,0.0694202110171318
1733513587569535200,0.70353515625,0.12033866345882416,0.12352841347455978,0.06756532192230225
1733513587579554000,0.713553955078125,0.130623459815979,0.12349950522184372,0.06756597012281418
1733513587589573000,0.723572998046875,0.1420699954032898,0.12635761499404907,0.0694110095500946
1733513587599592200,0.73359228515625,0.1563497930765152,0.12490209192037582,0.08424496650695801
1733513587609611300,0.743611328125,0.16937585175037384,0.13724051415920258,0.09737328439950943
1733513587619630000,0.753630126953125,0.17655643820762634,0.15897473692893982,0.10285772383213043
1733513587629649200,0.763649169921875,0.1809956580400467,0.17000208795070648,0.10123851895332336
1733513587639668200,0.773668212890625,0.17901897430419922,0.15128768980503082,0.09260018169879913
1733513587649687300,0.783687255859375,0.1865149736404419,0.13407248258590698,0.07676183432340622
1733513587659706000,0.7937060546875,0.20165470242500305,0.13581465184688568,0.06338252872228622
1733513587669725200,0.80372509765625,0.21690769493579865,0.12928032875061035,0.046350546181201935
1733513587679745300,0.813745361328125,0.21708253026008606,0.10781146585941315,0.039603427052497864
1733513587689764400,0.823764404296875,0.19698792695999146,0.0804767832159996,0.04334809631109238
1733513587699783200,0.833783203125,0.16880179941654205,0.08575227111577988,0.04862812161445618
1733513587709802200,0.84380224609375,0.1559339463710785,0.09769228845834732,0.04386718571186066
1733513587719821300,0.8538212890625,0.15336915850639343,0.11532832682132721,0.044983357191085815
1733513587729840400,0.86384033203125,0.15650582313537598,0.11835341155529022,0.059351641684770584
1733513587739859200,0.873859130859375,0.16248038411140442,0.12471061199903488,0.06241237744688988
1733513587749878300,0.883878173828125,0.16706368327140808,0.1181938499212265,0.06330293416976929
1733513587759897300,0.8938974609375,0.1692633181810379,0.12939593195915222,0.0665789321064949
1733513587769916400,0.90391650390625,0.169595405459404,0.13814520835876465,0.09069918096065521
1733513587779936300,0.913936279296875,0.18533602356910706,0.17541402578353882,0.12513652443885803
1733513587789955000,0.923955078125,0.19892293214797974,0.2183803915977478,0.16025827825069427
1733513587799974100,0.93397412109375,0.21820610761642456,0.2633441090583801,0.19152827560901642
1733513587809993200,0.9439931640625,0.2218136191368103,0.2606511116027832,0.19661252200603485
1733513587820012000,0.954011962890625,0.21682509779930115,0.22209711372852325,0.1606484353542328
1733513587830031000,0.964031005859375,0.20769284665584564,0.16254350543022156,0.11422235518693924
1733513587840050200,0.97405029296875,0.20494407415390015,0.09623239189386368,0.06397036463022232
1733513587850069200,0.9840693359375,0.19695326685905457,0.04851865768432617,0.021932629868388176
1733513587860088000,0.994088134765625,0.1857547014951706,0.03134734556078911,0.01702621392905712
1733513587870107100,1.004107177734375,0.18240204453468323,0.0678611472249031,0.03289838880300522
1733513587880126200,1.014126220703125,0.08672484755516052,0.14576461911201477,0.0630553811788559
1733513587890145300,1.024145263671875,0.14536365866661072,0.13810724020004272,0.06156986579298973
1733513587900165000,1.0341650390625,0.24406607449054718,0.13795100152492523,0.07399974763393402
1733513587910184200,1.04418408203125,0.24038133025169373,0.08797386288642883,0.079987071454525
1733513587920203300,1.054203369140625,0.21299955248832703,0.0443464033305645,0.06636092811822891
1733513587930222300,1.064222412109375,0.15980078279972076,0.01506042294204235,0.02489498071372509
1733513587940241200,1.0742412109375,0.11264381557703018,-0.007426310330629349,-0.019572429358959198
1733513587950260200,1.08426025390625,0.09843984246253967,0.005219976417720318,-0.042837273329496384
1733513587960279300,1.094279296875,0.1265113800764084,0.027691278606653214,-0.038925010710954666
1733513587970298400,1.10429833984375,0.140174999833107,0.058555718511343,-0.026768745854496956
1733513587980317200,1.114317138671875,0.12754353880882263,0.11318424344062805,-0.018400106579065323
1733513587990336300,1.124336181640625,0.11007080972194672,0.18961644172668457,-0.0033154289703816175
1733513588000355300,1.134355224609375,0.09990892559289932,0.25734421610832214,0.00559828570112586
1733513588010375200,1.144375244140625,0.10032730549573898,0.3056260049343109,0.01740754209458828
1733513588020394000,1.15439404296875,0.10515804588794708,0.34037432074546814,0.028550131246447563
1733513588030413000,1.1644130859375,0.1064869612455368,0.37400341033935547,0.0492684580385685
1733513588040432000,1.17443212890625,0.1222025603055954,0.40732213854789734,0.08037547022104263
1733513588050451200,1.184451171875,0.12990042567253113,0.44103750586509705,0.11571109294891357
1733513588060470000,1.194469970703125,0.1275680959224701,0.47253456711769104,0.1551489382982254
1733513588070489000,1.204489013671875,0.11829470843076706,0.49250027537345886,0.1912318468093872
1733513588080508200,1.214508056640625,0.10010170191526413,0.509393036365509,0.22788521647453308
1733513588090527200,1.22452734375,0.07889015227556229,0.5164245963096619,0.2706201672554016
1733513588100546000,1.234546142578125,0.05429838225245476,0.5179873704910278,0.3025440275669098
1733513588110566100,1.244566162109375,0.03115604817867279,0.5085280537605286,0.3386450409889221
1733513588120585200,1.254585205078125,0.01952294632792473,0.5085430145263672,0.36059457063674927
1733513588130604300,1.264604248046875,0.03693202883005142,0.5239959955215454,0.37422195076942444
1733513588140623000,1.274623046875,0.06430209428071976,0.5425739884376526,0.3822115361690521
1733513588150642200,1.28464208984375,0.09594658017158508,0.5631114840507507,0.39731565117836
1733513588160661200,1.2946611328125,0.11882379651069641,0.5746898055076599,0.41359129548072815
1733513588170680300,1.304680419921875,0.13357025384902954,0.5676588416099548,0.4344313144683838
1733513588180699100,1.31469921875,0.1367141604423523,0.5370763540267944,0.4653851389884949
1733513588190718200,1.32471826171875,0.11668053269386292,0.48593994975090027,0.5266021490097046
1733513588200737300,1.3347373046875,0.07809429615736008,0.4388927221298218,0.6125220060348511
1733513588210756400,1.34475634765625,0.0301669891923666,0.43147847056388855,0.7056447863578796
1733513588220776200,1.354776123046875,-0.032004259526729584,0.4947139322757721,0.7339076399803162
1733513588230795300,1.364795166015625,-0.09016982465982437,0.6189051270484924,0.6925588846206665
1733513588240814300,1.374814453125,-0.14594361186027527,0.8035433888435364,0.5458730459213257
1733513588250833200,1.384833251953125,-0.21572056412696838,1.009932279586792,0.32794469594955444
1733513588260852200,1.394852294921875,-0.2829580307006836,1.1452751159667969,0.21470360457897186
1733513588270871000,1.40487109375,-0.33976805210113525,1.1733677387237549,0.3890005648136139
1733513588280890000,1.41489013671875,-0.3266525864601135,1.1968977451324463,0.68167644739151
1733513588290909200,1.4249091796875,-0.1509113758802414,1.2312238216400146,0.9189912676811218
1733513588300928000,1.434927978515625,0.09823495149612427,1.221312165260315,1.0456953048706055
1733513588310947000,1.444947021484375,0.17609620094299316,1.1692562103271484,1.107439637184143
1733513588320966100,1.454966064453125,0.04581849277019501,1.0748354196548462,1.0696427822113037
1733513588330985200,1.464985107421875,-0.11450672894716263,0.9329584240913391,0.9847816228866577
1733513588341005000,1.475005126953125,-0.2575526237487793,0.7104418277740479,0.8637243509292603
1733513588351024000,1.485024169921875,-0.3491209149360657,0.4721595048904419,0.7263180613517761
1733513588361043200,1.495043212890625,-0.3503354787826538,0.3033919036388397,0.611476480960846
1733513588371062300,1.505062255859375,-0.2866111099720001,0.16770251095294952,0.5166122913360596
1733513588381081000,1.5150810546875,-0.21493645012378693,0.06638053804636002,0.4068095088005066
1733513588391100200,1.52510009765625,-0.1638234704732895,0.007210955955088139,0.2920411229133606
1733513588401119200,1.535119140625,-0.14257730543613434,0.02945261262357235,0.18890248239040375
1733513588411138300,1.54513818359375,-0.14540930092334747,0.13212120532989502,0.10287865251302719
1733513588421157000,1.5551572265625,-0.16882386803627014,0.26080816984176636,0.021987341344356537
1733513588431176200,1.56517626953125,-0.21230795979499817,0.3431728184223175,-0.07127096503973007
1733513588441195300,1.5751953125,-0.27418604493141174,0.34354478120803833,-0.16257429122924805
1733513588451215400,1.58521533203125,-0.33553677797317505,0.32455432415008545,-0.23982353508472443
1733513588461234200,1.595234130859375,-0.35284873843193054,0.26316195726394653,-0.30453792214393616
1733513588471253200,1.605253173828125,-0.3703179955482483,0.18395660817623138,-0.3686719238758087
1733513588481272300,1.615272216796875,-0.3915461599826813,0.15086092054843903,-0.42657044529914856
1733513588491291400,1.62529150390625,-0.4176616370677948,0.23047426342964172,-0.4671599566936493
1733513588501310200,1.635310302734375,-0.3995116949081421,0.2760732173919678,-0.48397958278656006
1733513588511329300,1.645329345703125,-0.3738816976547241,0.2757038474082947,-0.47262680530548096
1733513588521348400,1.655348388671875,-0.36881592869758606,0.2640566825866699,-0.4649122655391693
1733513588531367400,1.665367431640625,-0.3798462152481079,0.2227020561695099,-0.46523743867874146
1733513588541386200,1.67538623046875,-0.38193199038505554,0.12160737067461014,-0.4633495509624481
1733513588551405300,1.6854052734375,-0.3445928692817688,0.041128505021333694,-0.2916446328163147
1733513588561425200,1.695425048828125,-0.28098446130752563,0.26452797651290894,0.20399917662143707
1733513588571444200,1.7054443359375,-0.1832440346479416,0.8093391060829163,0.968569278717041
1733513588581463300,1.71546337890625,-0.08101656287908554,1.2886598110198975,1.5556044578552246
1733513588591482000,1.725482177734375,-0.09213899075984955,1.3486193418502808,1.5785685777664185
1733513588601501200,1.735501220703125,-0.31465891003608704,0.860400915145874,1.0075689554214478
1733513588611520300,1.745520263671875,-0.5917956829071045,0.03167691081762314,0.13572213053703308
1733513588621539300,1.755539306640625,-0.7874701023101807,-0.7492936253547668,-0.6641278266906738
1733513588631558100,1.76555810546875,-0.9876165390014648,-1.3140991926193237,-0.8878799676895142
1733513588641577200,1.7755771484375,-0.987084686756134,-1.2717314958572388,-0.48470553755760193
1733513588651596300,1.78559619140625,-0.6181210279464722,-0.7923397421836853,-0.016093313694000244
1733513588661615400,1.795615478515625,-0.12949173152446747,-0.6607878804206848,0.2507411241531372
1733513588671634200,1.80563427734375,0.14394326508045197,-1.236546516418457,0.4274780750274658
1733513588681654300,1.815654296875,0.1957494169473648,-1.5828107595443726,0.5438250303268433
1733513588691673300,1.82567333984375,0.10334998369216919,-1.0650304555892944,0.2551244795322418
1733513588701692400,1.8356923828125,-0.07897821813821793,-0.45391324162483215,-0.11028794944286346
1733513588711711200,1.845711181640625,-0.18244335055351257,-0.3268224000930786,-0.20411963760852814
1733513588721730300,1.855730224609375,-0.1657082736492157,-0.23506781458854675,-0.01838207244873047
1733513588731749400,1.865749267578125,-0.10992543399333954,-0.13685229420661926,0.2005598545074463
1733513588741768400,1.8757685546875,-0.08787961304187775,0.18247367441654205,0.19863028824329376
1733513588751787300,1.885787353515625,-0.17504380643367767,0.5740249752998352,0.20200850069522858
1733513588761806300,1.895806396484375,-0.3245590329170227,0.8397363424301147,0.22732463479042053
1733513588771825400,1.905825439453125,-0.4099607467651367,0.8375021815299988,0.1795206218957901
1733513588781844500,1.915844482421875,-0.44348040223121643,0.6641179323196411,0.09965646266937256
1733513588791864300,1.9258642578125,-0.4503609538078308,0.4525758922100067,0.030727189034223557
1733513588801883100,1.935883056640625,-0.4426625669002533,0.23814624547958374,-0.04456828907132149
1733513588811902200,1.945902099609375,-0.4475207030773163,-0.00833170861005783,-0.08193616569042206
1733513588821921300,1.95592138671875,-0.454041987657547,-0.2129083126783371,-0.12841790914535522
1733513588831940000,1.965940185546875,-0.44356244802474976,-0.33053722977638245,-0.19690829515457153
1733513588841959200,1.975959228515625,-0.4180937111377716,-0.387390673160553,-0.27561724185943604
1733513588851978200,1.985978271484375,-0.40321382880210876,-0.41048747301101685,-0.3049144148826599
1733513588861997300,1.995997314453125,-0.40865594148635864,-0.34377408027648926,-0.25149765610694885
1733513588872016100,2.00601611328125,-0.38429704308509827,-0.15217506885528564,-0.19374753534793854
1733513588882035200,2.01603515625,-0.3467070460319519,0.06644351035356522,-0.16392843425273895
1733513588892054300,2.02605419921875,-0.3236373960971832,0.2617778480052948,-0.14739978313446045
1733513588902073300,2.0360732421875,-0.30125945806503296,0.42051005363464355,-0.16634011268615723
1733513588912093200,2.04609326171875,-0.27737170457839966,0.45566990971565247,-0.19664502143859863
1733513588922112300,2.0561123046875,-0.26348528265953064,0.41060274839401245,-0.22555051743984222
1733513588932131300,2.06613134765625,-0.24658405780792236,0.34559765458106995,-0.2491075098514557
1733513588942150400,2.076150390625,-0.23928935825824738,0.28133445978164673,-0.2824247479438782
1733513588952169200,2.086169189453125,-0.24240551888942719,0.20181885361671448,-0.32222357392311096
1733513588962188300,2.096188232421875,-0.25553199648857117,0.10449716448783875,-0.3727319836616516
1733513588972207400,2.106207275390625,-0.2780010998249054,0.04935934767127037,-0.42554032802581787
1733513588982226400,2.116226318359375,-0.3223053514957428,0.052197542041540146,-0.47711610794067383
1733513588992245200,2.126245361328125,-0.3571493625640869,0.043890345841646194,-0.5237171053886414
1733513589002264300,2.136264404296875,-0.38174086809158325,0.08905225247144699,-0.5570508241653442
1733513589012283400,2.146283447265625,-0.38922035694122314,0.16559097170829773,-0.57090163230896
1733513589022303200,2.15630322265625,-0.37091371417045593,0.26886051893234253,-0.5651381611824036
1733513589032322000,2.166322021484375,-0.323457807302475,0.41469016671180725,-0.542094349861145
1733513589042341000,2.176341064453125,-0.2705787420272827,0.5553945899009705,-0.5048619508743286
1733513589052360200,2.186360107421875,-0.23035357892513275,0.6581510305404663,-0.46155017614364624
1733513589062379300,2.196379150390625,-0.18883059918880463,0.7096778154373169,-0.4459838569164276
1733513589072398000,2.206398193359375,-0.14131766557693481,0.6887333989143372,-0.44696924090385437
1733513589082417200,2.216417236328125,-0.11185901612043381,0.6275425553321838,-0.4645020663738251
1733513589092436200,2.226436279296875,-0.061544712632894516,0.5142133831977844,-0.47435203194618225
1733513589102455300,2.236455322265625,-0.028414644300937653,0.3903639316558838,-0.47748619318008423
1733513589112474000,2.24647412109375,-0.01882779784500599,0.28713127970695496,-0.4818473756313324
1733513589122493200,2.2564931640625,-0.026084506884217262,0.17519250512123108,-0.47860896587371826
1733513589132512300,2.26651220703125,-0.033138953149318695,0.10928139835596085,-0.4774387776851654
1733513589142532400,2.276532470703125,-0.023429522290825844,0.09906375408172607,-0.4709741175174713
1733513589152551200,2.28655126953125,0.0044873300939798355,0.11694501340389252,-0.45068055391311646
1733513589162570200,2.2965703125,0.07093644887208939,0.14903895556926727,-0.40572890639305115
1733513589172589300,2.30658935546875,0.1506134271621704,0.17644047737121582,-0.34986722469329834
1733513589182608400,2.3166083984375,0.2168276011943817,0.19702565670013428,-0.29320210218429565
1733513589192627200,2.326627197265625,0.26878294348716736,0.17632490396499634,-0.2527223229408264
1733513589202646300,2.336646240234375,0.30104678869247437,0.10424873232841492,-0.22283431887626648
1733513589212665300,2.346665283203125,0.31514501571655273,-0.016574887558817863,-0.224045529961586
1733513589222684400,2.356684326171875,0.3074355721473694,-0.17255835235118866,-0.2519162595272064
1733513589232703200,2.366703125,0.29988551139831543,-0.32400885224342346,-0.2421312779188156
1733513589242722300,2.376722412109375,0.31031161546707153,-0.42613351345062256,-0.21918269991874695
1733513589252742400,2.386742431640625,0.34262266755104065,-0.49782103300094604,-0.21369072794914246
1733513589262761500,2.396761474609375,0.3739705979824066,-0.5583961606025696,-0.2357875108718872
1733513589272780300,2.4067802734375,0.3683643639087677,-0.6306746602058411,-0.3035263419151306
1733513589282799400,2.41679931640625,0.3173704445362091,-0.6829834580421448,-0.3720753490924835
1733513589292818400,2.426818359375,0.27166688442230225,-0.6220404505729675,-0.392365425825119
1733513589302837200,2.436837158203125,0.2672673761844635,-0.4270302951335907,-0.35037466883659363
1733513589312856300,2.446856201171875,0.2987150549888611,-0.1319619119167328,-0.26795434951782227
1733513589322875100,2.456875244140625,0.3192542791366577,0.13809219002723694,-0.19763252139091492
1733513589332894200,2.466894287109375,0.3076136112213135,0.24525991082191467,-0.16236694157123566
1733513589342913300,2.476913330078125,0.30529913306236267,0.21453730762004852,-0.1415105164051056
1733513589352932000,2.48693212890625,0.29832643270492554,0.16529066860675812,-0.14920757710933685
1733513589362951200,2.496951171875,0.25270360708236694,0.16057966649532318,-0.1417846977710724
1733513589372971300,2.50697119140625,0.17592814564704895,0.15383175015449524,-0.11329606920480728
1733513589382990300,2.516990234375,0.15386784076690674,0.12521502375602722,-0.07867071032524109
1733513589393009200,2.527009033203125,0.17426392436027527,0.1114233136177063,-0.011789415962994099
1733513589403028200,2.5370283203125,0.19824020564556122,0.13408425450325012,0.13291537761688232
1733513589413047300,2.54704736328125,0.20825235545635223,0.20281778275966644,0.26103127002716064
1733513589423066400,2.55706640625,0.19134965538978577,0.2851981520652771,0.3561255931854248
1733513589433085200,2.567085205078125,0.14751428365707397,0.35628458857536316,0.45300236344337463
1733513589443104300,2.577104248046875,0.15165337920188904,0.4449220597743988,0.5375358462333679
1733513589453123300,2.587123291015625,0.14949727058410645,0.530350923538208,0.6679734587669373
1733513589463142400,2.597142333984375,0.17954547703266144,0.5337725281715393,0.7740165591239929
1733513589473161200,2.6071611328125,0.2478896528482437,0.5390450358390808,0.8657981157302856
1733513589483181300,2.617181396484375,0.29569876194000244,0.47307339310646057,0.9873024225234985
1733513589493200400,2.627200439453125,0.3962048590183258,0.3831443190574646,1.0520243644714355
1733513589503219500,2.637219482421875,0.4695724546909332,0.32787540555000305,1.165570616722107
1733513589513238500,2.647238525390625,0.5337557196617126,0.19907188415527344,1.1575182676315308
1733513589523257600,2.657257568359375,0.579041600227356,0.08347030729055405,0.99519282579422
1733513589533276400,2.6672763671875,0.5852686166763306,-0.02423138916492462,0.8573300838470459
1733513589543295500,2.67729541015625,0.6208937168121338,-0.19723479449748993,0.7741988301277161
1733513589553314600,2.687314453125,0.6386753916740417,-0.49820607900619507,0.8019510507583618
1733513589563333600,2.697333740234375,0.6781951785087585,-0.7022048234939575,0.7982891201972961
1733513589573352400,2.7073525390625,0.7046055197715759,-0.8446045517921448,0.7337471842765808
1733513589583371500,2.71737158203125,0.5566540360450745,-0.7537412643432617,0.7700166702270508
1733513589593390600,2.727390625,0.3893979489803314,-0.42221423983573914,0.8170095086097717
1733513589603410400,2.737410400390625,0.33504244685173035,-0.1176312193274498,0.7463738918304443
1733513589613429200,2.74742919921875,0.31526902318000793,-0.0209874976426363,0.6065211892127991
1733513589623448300,2.7574482421875,0.2858658730983734,-0.19272339344024658,0.4544876217842102
1733513589633467400,2.76746728515625,0.29486364126205444,-0.4054452180862427,0.3833138346672058
1733513589643486500,2.777486572265625,0.36602017283439636,-0.44218122959136963,0.39204150438308716
1733513589653505300,2.78750537109375,0.40587490797042847,-0.33060169219970703,0.40483132004737854
1733513589663524400,2.7975244140625,0.3759758174419403,-0.2706860601902008,0.3305273652076721
1733513589673543400,2.80754345703125,0.2892395853996277,-0.28757527470588684,0.15432651340961456
1733513589683562500,2.8175625,0.19739557802677155,-0.35327237844467163,-0.017676524817943573
1733513589693581300,2.827581298828125,0.12076978385448456,-0.4299200177192688,-0.1187962219119072
1733513589703600400,2.837600341796875,0.08253374695777893,-0.43525680899620056,-0.15997888147830963
1733513589713620500,2.847620361328125,0.1037152037024498,-0.39151278138160706,-0.18720491230487823
1733513589723639600,2.8576396484375,0.15999364852905273,-0.36227554082870483,-0.22246140241622925
1733513589733658400,2.867658447265625,0.217803955078125,-0.41906291246414185,-0.27032801508903503
1733513589743677400,2.877677490234375,0.24139007925987244,-0.5304911732673645,-0.32947754859924316
1733513589753696500,2.887696533203125,0.22894085943698883,-0.6504250168800354,-0.42899003624916077
1733513589763715600,2.897715576171875,0.20672743022441864,-0.7519204020500183,-0.54795241355896
1733513589773734400,2.907734375,0.1886110156774521,-0.8319848775863647,-0.6558961868286133
1733513589783753500,2.91775341796875,0.18830683827400208,-0.9427664875984192,-0.7305871248245239
1733513589793772500,2.9277724609375,0.18087688088417053,-1.0084631443023682,-0.7996373176574707
1733513589803791600,2.93779150390625,0.13230536878108978,-0.996418833732605,-0.8504466414451599
1733513589813810400,2.947810546875,0.05912410467863083,-0.9526492357254028,-0.8713292479515076
1733513589823829500,2.95782958984375,-0.02063841186463833,-0.8670191764831543,-0.8446875214576721
1733513589833849300,2.967849365234375,-0.10091008245944977,-0.6357811689376831,-0.8161656260490417
1733513589843868400,2.977868408203125,-0.18131303787231445,-0.3876286447048187,-0.8133996725082397
1733513589853887200,2.98788720703125,-0.22990506887435913,-0.3584537208080292,-0.7740069627761841
1733513589863906300,2.99790625,-0.2954999506473541,-0.2684404253959656,-0.6240357756614685
1733513589873925400,3.00792529296875,-0.3631975054740906,-0.013949803076684475,-0.30820536613464355
1733513589883944400,3.0179443359375,-0.439411461353302,0.3859102725982666,0.22793103754520416
1733513589893963300,3.02796337890625,-0.3909730911254883,0.9310124516487122,0.988536536693573
1733513589903982300,3.037982421875,-0.11128269881010056,1.5096616744995117,1.3687533140182495
1733513589914001400,3.04800146484375,0.07674925774335861,1.6602178812026978,0.731465220451355
1733513589924020200,3.058020263671875,0.030978305265307426,1.0625510215759277,-0.30345937609672546
1733513589934039300,3.068039306640625,0.006008774042129517,0.16250935196876526,-1.1404235363006592
1733513589944059400,3.078059326171875,-0.007504204288125038,-0.7939184308052063,-1.5778292417526245
1733513589954078500,3.088078369140625,-0.10688059031963348,-1.543898105621338,-1.6288257837295532
1733513589964097500,3.09809765625,-0.1840483546257019,-1.6678868532180786,-1.4472986459732056
1733513589974116400,3.108116455078125,-0.2285042405128479,-1.2921534776687622,-1.14667809009552
1733513589984135400,3.118135498046875,-0.24716822803020477,-1.0298969745635986,-0.7547363042831421
1733513589994154500,3.128154541015625,-0.21869158744812012,-0.9836406111717224,-0.4652000665664673
1733513590004173600,3.138173583984375,-0.19272996485233307,-0.9256328344345093,-0.4382399618625641
1733513590014192400,3.1481923828125,-0.06409821659326553,-0.5502371191978455,-0.7032297849655151
1733513590024211500,3.15821142578125,0.16256724298000336,-0.04949852451682091,-1.0418232679367065
1733513590034230500,3.16823046875,0.34119582176208496,0.09718839079141617,-1.178971529006958
1733513590044249300,3.178249267578125,0.4865570664405823,0.10997898131608963,-1.0859358310699463
1733513590054268400,3.188268310546875,0.541275143623352,0.07824502140283585,-0.9515650272369385
1733513590064288300,3.198288330078125,0.4933583438396454,-0.05957598239183426,-0.9734516143798828
1733513590074307300,3.208307373046875,0.37185829877853394,-0.202946737408638,-1.1405091285705566
1733513590084326400,3.218326416015625,0.21225468814373016,-0.35296136140823364,-1.3147451877593994
1733513590094345200,3.22834521484375,0.05056779831647873,-0.5036616325378418,-1.4358806610107422
1733513590104364300,3.2383642578125,-0.07147330790758133,-0.5187433362007141,-1.55776846408844
1733513590114383400,3.24838330078125,-0.1237516924738884,-0.4689648747444153,-1.6669100522994995
1733513590124402400,3.25840234375,-0.12434116005897522,-0.4502703547477722,-1.6992331743240356
1733513590134421200,3.268421142578125,-0.12162846326828003,-0.4836863577365875,-1.6465693712234497
1733513590144440300,3.2784404296875,-0.07980381697416306,-0.47946569323539734,-1.578833818435669
1733513590154459400,3.28845947265625,-0.005567405838519335,-0.4083084166049957,-1.5103274583816528
1733513590164478200,3.298478271484375,0.11550554633140564,-0.11321032792329788,-1.3962236642837524
1733513590174497300,3.308497314453125,0.2134249210357666,0.36151304841041565,-1.2054024934768677
1733513590184517400,3.318517333984375,0.24763289093971252,0.8121269345283508,-0.9811026453971863
1733513590194536400,3.328536376953125,0.24602407217025757,1.1416151523590088,-0.8157145380973816
1733513590204555500,3.338555419921875,0.2148798108100891,1.279077172279358,-0.7554886341094971
1733513590214574300,3.34857421875,0.20108942687511444,1.2874717712402344,-0.7722825407981873
1733513590224593400,3.358593505859375,0.2394391894340515,1.0657987594604492,-0.8553813695907593
1733513590234612500,3.368612548828125,0.324464350938797,0.7172515392303467,-0.9795083403587341
1733513590244631300,3.37863134765625,0.49322235584259033,0.2803606688976288,-1.117480993270874
1733513590254650400,3.388650390625,0.7334951162338257,-0.16319918632507324,-1.2217421531677246
1733513590264669400,3.39866943359375,0.9477413892745972,-0.3288041651248932,-1.3042417764663696
1733513590274688500,3.4086884765625,0.9635235667228699,-0.23934485018253326,-1.4241199493408203
1733513590284707300,3.418707275390625,0.8922627568244934,-0.008666486479341984,-1.5087740421295166
1733513590294727400,3.4287275390625,0.7842406630516052,0.2869667708873749,-1.5349928140640259
1733513590304746500,3.43874658203125,0.6636781096458435,0.5411280989646912,-1.5208592414855957
1733513590314765600,3.448765625,0.5415676236152649,0.7391263842582703,-1.4997625350952148
1733513590324784600,3.45878466796875,0.35338714718818665,0.9166475534439087,-1.4903206825256348
1733513590334803500,3.468803466796875,0.17744673788547516,0.8466088175773621,-1.457497239112854
1733513590344822500,3.478822509765625,-0.03163254261016846,0.6352037787437439,-1.3546419143676758
1733513590354841300,3.48884130859375,-0.2521390914916992,0.5300946831703186,-1.2728360891342163
1733513590364860400,3.4988603515625,-0.40802133083343506,0.4340171217918396,-1.177090048789978
1733513590374879500,3.50887939453125,-0.4671320617198944,0.28497275710105896,-1.0648716688156128
1733513590384898300,3.518898193359375,-0.4269801378250122,0.14183802902698517,-0.9726378917694092
1733513590394917400,3.52891748046875,-0.3225908875465393,0.047748010605573654,-0.885921061038971
1733513590404936200,3.538936279296875,-0.21639661490917206,-0.014529041014611721,-0.8337525129318237
1733513590414956300,3.548956298828125,-0.14245235919952393,-0.054358478635549545,-0.8002344965934753
1733513590424975400,3.558975341796875,-0.11122263222932816,-0.08855167031288147,-0.7726391553878784
1733513590434994400,3.568994384765625,-0.0645853579044342,-0.11102847754955292,-0.7677599787712097
1733513590445013500,3.579013427734375,0.0137135349214077,-0.13161355257034302,-0.8026265501976013
1733513590455032300,3.5890322265625,0.1078147292137146,-0.16297680139541626,-0.89873206615448
1733513590465051400,3.599051513671875,0.1986999809741974,-0.22909311950206757,-1.0642149448394775
1733513590475070500,3.609070556640625,0.26891660690307617,-0.35666438937187195,-1.269955039024353
1733513590485089300,3.61908935546875,0.29943615198135376,-0.5499709844589233,-1.5004140138626099
1733513590495108400,3.6291083984375,0.2955268919467926,-0.8262041211128235,-1.7524465322494507
1733513590505127400,3.63912744140625,0.2913587987422943,-1.180402398109436,-2.0148966312408447
1733513590515147300,3.649147216796875,0.3139685094356537,-1.5305383205413818,-2.25632381439209
1733513590525166300,3.659166259765625,0.3372248113155365,-1.8081327676773071,-2.4227497577667236
1733513590535186200,3.669186279296875,0.30155178904533386,-1.9644559621810913,-2.474613904953003
1733513590545205200,3.679205322265625,0.2060631960630417,-1.9752053022384644,-2.4015328884124756
1733513590555224300,3.689224365234375,0.020624103024601936,-1.841557264328003,-2.270381212234497
1733513590565243100,3.6992431640625,-0.21175475418567657,-1.5025349855422974,-2.0861802101135254
1733513590575262200,3.70926220703125,-0.4693535268306732,-0.7660996913909912,-1.9246554374694824
1733513590585281300,3.71928125,-0.6818647384643555,0.6799129247665405,-1.5925672054290771
1733513590595300400,3.72930029296875,-0.5866988301277161,2.5970592498779297,-0.5350845456123352
1733513590605319200,3.739319091796875,-0.1716238111257553,3.760146379470825,1.2684522867202759
1733513590615338200,3.749338134765625,0.15670134127140045,3.5493953227996826,3.066342830657959
1733513590625357300,3.759357421875,0.4032526910305023,2.8107657432556152,3.80627703666687
1733513590635376000,3.769376220703125,0.6281912922859192,2.0423693656921387,3.7068099975585938
1733513590645396200,3.779396240234375,0.742636501789093,1.2190231084823608,3.3662257194519043
1733513590655415300,3.789415283203125,0.7670494318008423,0.3320796489715576,3.1150636672973633
1733513590665434400,3.799434326171875,0.7566205859184265,-0.4388154149055481,3.028033494949341
1733513590675453400,3.809453369140625,0.7357853651046753,-0.9422208070755005,3.078984260559082
1733513590685472300,3.81947216796875,0.746885359287262,-1.1795437335968018,3.2120208740234375
1733513590695491300,3.8294912109375,0.7418983578681946,-1.3502830266952515,3.361537456512451
1733513590705510400,3.839510498046875,0.6630234122276306,-1.5458171367645264,3.432283878326416
1733513590715529200,3.849529296875,0.5083369016647339,-1.7249398231506348,3.356874942779541
1733513590725548300,3.85954833984375,0.39031657576560974,-1.9132874011993408,3.161545753479004
1733513590735567400,3.8695673828125,0.31478771567344666,-1.865081787109375,2.8319647312164307
1733513590745586400,3.87958642578125,0.18422822654247284,-1.211746096611023,2.269979238510132
1733513590755605200,3.889605224609375,0.009256145916879177,0.053856804966926575,1.6167784929275513
1733513590765625300,3.899625244140625,-0.21566347777843475,1.5231150388717651,1.0477365255355835
1733513590775644400,3.90964453125,-0.38573402166366577,2.205188751220703,0.8407233953475952
1733513590785663500,3.91966357421875,-0.47389593720436096,2.193552255630493,0.924805760383606
1733513590795682300,3.929682373046875,-0.44668057560920715,1.229516625404358,0.991371214389801
1733513590805701400,3.939701416015625,-0.5932421684265137,-1.277544379234314,1.4738458395004272
1733513590815720200,3.94972021484375,-0.7602567076683044,-1.5035279989242554,1.580827236175537
1733513590825739300,3.9597392578125,-0.8411827683448792,-0.5490810871124268,1.5429733991622925
1733513590835758300,3.96975830078125,-0.8102115392684937,0.7215266823768616,1.8713878393173218
1733513590845777200,3.979777099609375,-0.5435360670089722,1.88355553150177,2.3573079109191895
1733513590855796200,3.989796142578125,-0.260903000831604,2.2482264041900635,2.650094509124756
1733513590865815300,3.999815185546875,-0.2313011884689331,2.0058188438415527,2.5785059928894043
1733513590875835400,4.00983544921875,-0.25521400570869446,1.5503968000411987,2.193500280380249
1733513590885854200,4.019854248046875,-0.28608012199401855,1.304601788520813,1.749193787574768
1733513590895873300,4.029873291015625,-0.2718828022480011,1.5127406120300293,1.4651329517364502
1733513590905892400,4.039892333984375,-0.24724717438220978,1.9363815784454346,1.3569762706756592
1733513590915911400,4.049911376953125,-0.2731972932815552,2.2903831005096436,1.2588558197021484
1733513590925930200,4.05993017578125,-0.3365567624568939,2.477231979370117,1.0790177583694458
1733513590935949300,4.06994921875,-0.3795630931854248,2.527432441711426,0.8296031355857849
1733513590945968400,4.079968505859375,-0.42757606506347656,2.454246759414673,0.5415650010108948
1733513590955987200,4.0899873046875,-0.4745318591594696,2.254924774169922,0.25179657340049744
1733513590966006300,4.10000634765625,-0.5411966443061829,2.0338284969329834,0.010946675203740597
1733513590976025300,4.110025390625,-0.6022533178329468,1.749130368232727,-0.21820928156375885
1733513590986044400,4.12004443359375,-0.6462704539299011,1.3091117143630981,-0.4735869765281677
1733513590996064500,4.130064453125,-0.6931915879249573,0.7501598000526428,-0.7250576019287109
1733513591006083300,4.140083251953125,-0.7648645639419556,0.0752091035246849,-1.0211865901947021
1733513591016102400,4.150102294921875,-0.878106415271759,-0.5674161911010742,-1.3339258432388306
1733513591026121500,4.16012158203125,-0.9692610502243042,-1.0443542003631592,-1.6468756198883057
1733513591036140300,4.170140380859375,-1.0297220945358276,-1.4334101676940918,-1.9409023523330688
1733513591046159400,4.180159423828125,-0.9496657848358154,-1.9097156524658203,-1.8371258974075317
1733513591056178400,4.190178466796875,-0.7633039355278015,-1.5864452123641968,-0.5048273205757141
1733513591066197500,4.200197509765625,-0.46184808015823364,0.7380384802818298,0.5084114670753479
1733513591076216300,4.21021630859375,-0.19845983386039734,2.5116634368896484,0.2588021159172058
1733513591086235400,4.2202353515625,-0.19613471627235413,2.4646408557891846,-0.15777790546417236
1733513591096254500,4.23025439453125,-0.3849365711212158,1.7103205919265747,-0.4393959939479828
1733513591106273500,4.2402734375,-0.5831067562103271,0.8501690626144409,-0.5006474852561951
1733513591116293400,4.25029345703125,-0.6396650671958923,-0.07464156299829483,0.06623515486717224
1733513591126312200,4.260312255859375,-0.4191487431526184,-0.6812339425086975,0.17334511876106262
1733513591136331300,4.270331298828125,0.05020143464207649,-1.296809196472168,-0.28657880425453186
1733513591146350300,4.280350341796875,0.5921621918678284,-2.1655588150024414,-0.5127065181732178
1733513591156369200,4.290369140625,0.8450754284858704,-3.0209147930145264,-0.36961379647254944
1733513591166388200,4.30038818359375,0.8059806823730469,-3.0102734565734863,-0.23829540610313416
1733513591176407300,4.3104072265625,0.6623633503913879,-1.7953194379806519,-0.5073431134223938
1733513591186426400,4.32042626953125,0.43855151534080505,-0.2907451391220093,-0.8737717866897583
1733513591196445200,4.330445068359375,0.13840125501155853,0.942205011844635,-1.161927580833435
1733513591206464300,4.34046435546875,-0.12472911924123764,1.8639733791351318,-1.424059510231018
1733513591216483300,4.3504833984375,-0.2225307822227478,2.6128034591674805,-1.6781774759292603
1733513591226503400,4.36050341796875,-0.08926161378622055,3.0394465923309326,-1.8115288019180298
1733513591236522500,4.3705224609375,0.19357247650623322,2.8918957710266113,-1.7666596174240112
1733513591246541300,4.380541259765625,0.5967876315116882,2.067430257797241,-1.4815185070037842
1733513591256560400,4.390560302734375,0.9830573201179504,1.1396780014038086,-1.1707888841629028
1733513591266579500,4.400579345703125,1.218483567237854,0.29817259311676025,-0.9349359273910522
1733513591276598300,4.410598388671875,1.2645397186279297,-0.40181002020835876,-0.8174407482147217
1733513591286617300,4.420617431640625,0.9034676551818848,-0.697831392288208,-0.8988797664642334
1733513591296636400,4.430636474609375,0.38638749718666077,-0.9755147099494934,-1.1271438598632812
1733513591306655500,4.440655517578125,-0.006404604762792587,-1.2909142971038818,-1.4815750122070312
1733513591316674300,4.45067431640625,-0.2579028606414795,-1.552695631980896,-2.0254600048065186
1733513591326693400,4.460693359375,-0.3646707832813263,-1.693710446357727,-2.634003162384033
1733513591336712400,4.47071240234375,-0.4543159604072571,-1.6490018367767334,-2.948604106903076
1733513591346732300,4.480732177734375,-0.5528330206871033,-1.526838779449463,-2.868177652359009
1733513591356751000,4.490751220703125,-0.4917571544647217,-1.294174075126648,-2.5001461505889893
1733513591366770200,4.500770263671875,-0.28767362236976624,-1.1155428886413574,-2.082738161087036
1733513591376789200,4.510789306640625,-0.13834455609321594,-1.0840270519256592,-1.7402065992355347
1733513591386808300,4.520808349609375,-0.09322426468133926,-1.083998203277588,-1.4951585531234741
1733513591396827100,4.5308271484375,-0.09224901348352432,-1.0906726121902466,-1.3550983667373657
1733513591406846200,4.54084619140625,-0.07827377319335938,-1.077100396156311,-1.2737493515014648
1733513591416865300,4.550865234375,-0.08243416249752045,-1.029056191444397,-1.1635246276855469
1733513591426884400,4.56088427734375,-0.11956793069839478,-0.9255996942520142,-1.0021191835403442
1733513591436903200,4.570903076171875,-0.14548847079277039,-0.7901571393013,-0.8059981465339661
1733513591446922200,4.580922119140625,-0.13124363124370575,-0.6161613464355469,-0.6135061979293823
1733513591456941300,4.59094140625,-0.07628557831048965,-0.3838335871696472,-0.47353309392929077
1733513591466961400,4.60096142578125,-0.027218906208872795,-0.13650034368038177,-0.4152635335922241
1733513591476980200,4.610980224609375,-0.023407921195030212,0.07235859334468842,-0.4304960072040558
1733513591486999300,4.620999267578125,-0.052882928401231766,0.19435840845108032,-0.47470328211784363
1733513591497018400,4.631018310546875,-0.10194101929664612,0.23239633440971375,-0.5236968994140625
1733513591507037400,4.641037353515625,-0.13942144811153412,0.27219071984291077,-0.5568982362747192
1733513591517055000,4.651054931640625,-0.13945500552654266,0.34438157081604004,-0.5581828951835632
1733513591527074000,4.661073974609375,-0.10120809823274612,0.3996449410915375,-0.5447620153427124
1733513591537092900,4.6710927734375,-0.06224418804049492,0.41168269515037537,-0.5505240559577942
1733513591547112000,4.68111181640625,-0.031990163028240204,0.3411438763141632,-0.6011903285980225
1733513591557131000,4.691131103515625,-0.01242045871913433,0.22413654625415802,-0.7200117707252502
1733513591567150000,4.701150146484375,-0.03091537393629551,0.17387829720973969,-0.9381301999092102
1733513591577169000,4.7111689453125,-0.04758330062031746,0.3206632137298584,-1.2466905117034912
1733513591587189000,4.72118896484375,0.06349141150712967,0.5669028759002686,-1.7163386344909668
1733513591597208000,4.7312080078125,0.37666693329811096,0.5608787536621094,-2.686652183532715
1733513591607227100,4.74122705078125,0.7056220769882202,0.04995466396212578,-3.8389546871185303
1733513591617246000,4.751245849609375,0.7719640731811523,-0.8811420798301697,-4.240759372711182
1733513591627265000,4.76126513671875,0.5140361189842224,-1.9593865871429443,-3.913738489151001
1733513591637284000,4.7712841796875,0.019973432645201683,-2.8320939540863037,-3.2253119945526123
1733513591647303200,4.78130322265625,-0.4360201060771942,-3.2541253566741943,-2.422842502593994
1733513591657322000,4.791322021484375,-0.5525073409080505,-2.9742767810821533,-1.251816749572754
1733513591667341000,4.801341064453125,-0.36767303943634033,-1.8203132152557373,0.47904863953590393
1733513591677360000,4.811360107421875,-0.3174721896648407,-0.2678554058074951,1.9917703866958618
1733513591687379200,4.821379150390625,-0.2713172137737274,1.0775597095489502,3.3358073234558105
1733513591697398000,4.83139794921875,-0.17563864588737488,1.7378684282302856,4.007569789886475
1733513591707417900,4.84141796875,-0.08141452074050903,1.9050794839859009,4.2804341316223145
1733513591717437000,4.85143701171875,-0.045679692178964615,1.884962797164917,4.355738162994385
1733513591727456000,4.8614560546875,0.0030477135442197323,1.7465150356292725,4.3306660652160645
1733513591737474800,4.871474853515625,0.13817358016967773,1.4929578304290771,4.274881362915039
1733513591747494000,4.881493896484375,0.33666062355041504,0.9376422762870789,4.253396034240723
1733513591757513000,4.891512939453125,0.4709143042564392,0.16951897740364075,4.271060466766357
1733513591767532000,4.901531982421875,0.4764363169670105,-0.6344527006149292,4.16346549987793
1733513591777550800,4.91155078125,0.36365383863449097,-1.4527033567428589,3.8314578533172607
1733513591787570000,4.92156982421875,0.21514108777046204,-2.084357261657715,3.3588762283325195
1733513591797589000,4.931589111328125,0.12657126784324646,-2.163043975830078,2.8978753089904785
1733513591807608000,4.941608154296875,0.11514788866043091,-1.7011853456497192,2.4927046298980713
1733513591817628200,4.951628173828125,0.015000512823462486,-0.5050023198127747,2.080705165863037
1733513591827647000,4.96164697265625,-0.07345703989267349,0.8623116612434387,1.7874253988265991
1733513591837666000,4.971666015625,-0.11762955784797668,1.5840113162994385,1.6982542276382446
1733513591847685000,4.98168505859375,-0.16030508279800415,1.6284282207489014,1.6919864416122437
1733513591857704000,4.991703857421875,-0.2554180324077606,1.3867143392562866,1.6761001348495483
1733513591867723000,5.001722900390625,-0.37332481145858765,0.9799508452415466,1.6090118885040283
1733513591877742000,5.0117421875,-0.5365297198295593,0.41329675912857056,1.4445887804031372
1733513591887761200,5.02176123046875,-0.6997188925743103,-0.5610234141349792,1.0655364990234375
1733513591897780000,5.031780029296875,-0.9028549194335938,-1.600417137145996,0.682570219039917
1733513591907799000,5.041799072265625,-1.092535138130188,-1.5678144693374634,0.5640314817428589
1733513591917818000,5.051818115234375,-1.0283981561660767,-0.32259416580200195,0.9179562926292419
1733513591927837200,5.061837158203125,-0.6300137639045715,1.4411734342575073,1.683180332183838
1733513591937857000,5.07185693359375,-0.20506511628627777,2.836010217666626,2.245013475418091
1733513591947876000,5.0818759765625,-0.061029598116874695,3.5711450576782227,2.252227783203125
1733513591957895200,5.091895263671875,-0.15001487731933594,3.8817451000213623,1.9672805070877075
1733513591967914000,5.1019140625,-0.3357676863670349,3.8216137886047363,1.6137909889221191
1733513591977933000,5.11193310546875,-0.44416552782058716,3.6559646129608154,1.359905481338501
1733513591987951900,5.121951904296875,-0.5277752876281738,3.4662373065948486,1.2352442741394043
1733513591997971000,5.131970947265625,-0.6580100059509277,3.1416826248168945,1.1169613599777222
1733513592007990000,5.141989990234375,-0.7576537728309631,2.605245351791382,0.8885629773139954
1733513592018008800,5.1520087890625,-0.814910352230072,1.9338656663894653,0.5273480415344238
1733513592028028000,5.16202783203125,-0.8268077969551086,1.3736027479171753,0.16267159581184387
1733513592038047000,5.172046875,-0.8211768269538879,0.8392569422721863,-0.16382741928100586
1733513592048066000,5.182066162109375,-0.7794451117515564,0.2174007147550583,-0.4422943890094757
1733513592058086000,5.1920859375,-0.6684722900390625,-0.5209298133850098,-0.6903984546661377
1733513592068105000,5.20210498046875,-0.5510457754135132,-1.0541646480560303,-0.9598045945167542
1733513592078124000,5.2121240234375,-0.4195082485675812,-1.2555992603302002,-1.2227548360824585
1733513592088143000,5.22214306640625,-0.22410215437412262,-1.3460768461227417,-1.15788996219635
1733513592098162000,5.232161865234375,-0.050654999911785126,-0.6120687127113342,-0.22599877417087555
1733513592108181000,5.242180908203125,0.1660003364086151,1.3349744081497192,0.6521378755569458
1733513592118200000,5.252199951171875,0.19104816019535065,2.3805675506591797,0.39119359850883484
1733513592128219100,5.26221923828125,0.00695596169680357,2.1156423091888428,-0.05499399080872536
1733513592138238000,5.272238037109375,-0.24008312821388245,1.6804924011230469,-0.19954319298267365
1733513592148257000,5.282257080078125,-0.4827736020088196,1.5252166986465454,-0.059907108545303345
1733513592158276000,5.292276123046875,-0.6487069129943848,1.5342469215393066,0.21416306495666504
1733513592168296200,5.302296142578125,-0.7508317232131958,1.274688482284546,0.4704987406730652
1733513592178315000,5.31231494140625,-0.8134061694145203,0.6086046695709229,0.7077264785766602
1733513592188334000,5.322333984375,-0.7750464081764221,-0.4009144902229309,0.8241729140281677
1733513592198353200,5.332353271484375,-0.5025866031646729,-1.1793832778930664,0.35117870569229126
1733513592208372200,5.342372314453125,-0.14104002714157104,-1.5584150552749634,-0.4063510000705719
1733513592218391000,5.35239111328125,0.0991922989487648,-2.1490988731384277,-1.0080528259277344
1733513592228410000,5.36241015625,0.13136333227157593,-3.1536035537719727,-1.220522403717041
1733513592238429200,5.37242919921875,-0.06562881916761398,-3.210963249206543,-0.9215686321258545
1733513592248448300,5.3824482421875,-0.21448633074760437,-2.8153622150421143,-0.7260828018188477
1733513592258467000,5.392467041015625,-0.073651984333992,-1.781386375427246,-1.0306596755981445
1733513592268486100,5.402486083984375,0.3061094284057617,-1.2438199520111084,-1.2489855289459229
1733513592278505000,5.4125048828125,0.40734362602233887,-1.2203518152236938,-1.2833821773529053
1733513592288525000,5.422525146484375,0.2876843214035034,-1.2856959104537964,-1.3952021598815918
1733513592298543900,5.4325439453125,0.23267272114753723,-1.2985302209854126,-1.5718445777893066
1733513592308563000,5.44256298828125,0.3449348211288452,-1.2751120328903198,-1.7636958360671997
1733513592318582000,5.45258203125,0.5587989091873169,-1.1956968307495117,-1.9232306480407715
1733513592328601000,5.46260107421875,0.8200939893722534,-1.1721224784851074,-1.951016902923584
1733513592338620000,5.472619873046875,1.0898267030715942,-1.1167103052139282,-1.8062360286712646
1733513592348639000,5.482638916015625,1.2505043745040894,-0.6837011575698853,-1.6167446374893188
1733513592358658000,5.492657958984375,1.231606364250183,-0.07281459867954254,-1.3483585119247437
1733513592368677000,5.502677001953125,1.1176806688308716,0.5556038618087769,-1.0426958799362183
1733513592378696000,5.512696044921875,0.8572844862937927,1.2873164415359497,-0.8730637431144714
1733513592388715000,5.522715087890625,0.5252107381820679,1.8120503425598145,-0.8853504061698914
1733513592398735000,5.532735107421875,0.30578333139419556,2.001681327819824,-0.9707297682762146
1733513592408754200,5.542754150390625,0.12769462168216705,1.7936896085739136,-1.0854815244674683
1733513592418773000,5.55277294921875,-0.06395416706800461,1.4682683944702148,-1.2730748653411865
1733513592428792000,5.5627919921875,-0.4690573513507843,0.07794070243835449,-1.917289137840271
1733513592438811100,5.57281103515625,-0.6925885081291199,-1.6866763830184937,-2.62949275970459
1733513592448830200,5.582830322265625,-0.5887355804443359,-2.676286458969116,-2.706563711166382
1733513592458849000,5.59284912109375,-0.5443702340126038,-2.9735357761383057,-2.3581509590148926
1733513592468868000,5.6028681640625,-0.5568598508834839,-2.8932158946990967,-1.8889621496200562
1733513592478887200,5.61288720703125,-0.5875889658927917,-2.659072160720825,-1.5016010999679565
1733513592488906200,5.62290625,-0.6052810549736023,-2.3816843032836914,-1.308672547340393
1733513592498925000,5.632925048828125,-0.5754907131195068,-2.1698882579803467,-1.2928192615509033
1733513592508943600,5.642943603515625,-0.5121338367462158,-1.8630130290985107,-1.3127448558807373
1733513592518963500,5.65296337890625,-0.4457553029060364,-1.4741754531860352,-1.2491488456726074
1733513592528982500,5.662982421875,-0.40862801671028137,-1.1616469621658325,-1.0696355104446411
1733513592539001300,5.67300146484375,-0.35648199915885925,-0.9812292456626892,-0.8085314631462097
1733513592549020400,5.6830205078125,-0.2766190469264984,-0.9644808173179626,-0.5692610144615173
1733513592559039500,5.69303955078125,-0.20975984632968903,-0.9316421747207642,-0.40126165747642517
1733513592569058600,5.70305859375,-0.17969653010368347,-0.7533636689186096,-0.3036487102508545
1733513592579077400,5.713077392578125,-0.16157159209251404,-0.458130419254303,-0.24681071937084198
1733513592589096400,5.723096435546875,-0.1287548989057541,-0.1327797919511795,-0.23390455543994904
1733513592599115500,5.733115478515625,-0.087364062666893,0.15919001400470734,-0.22721895575523376
1733513592609134600,5.743134521484375,-0.05572480708360672,0.3767242729663849,-0.21994949877262115
1733513592619153400,5.7531533203125,-0.04063134267926216,0.4876702129840851,-0.2532525956630707
1733513592629172500,5.76317236328125,-0.0296880304813385,0.46179789304733276,-0.36957383155822754
1733513592639192600,5.773192626953125,-0.010208338499069214,0.331393837928772,-0.6187376379966736
1733513592649211600,5.783211669921875,0.013162458315491676,0.17771059274673462,-1.0069068670272827
1733513592659230500,5.79323046875,0.05211571604013443,0.06341758370399475,-1.4606066942214966
1733513592669249500,5.80324951171875,0.14504607021808624,-0.043905168771743774,-1.894051432609558
1733513592679268600,5.8132685546875,0.3508618474006653,-0.3180123567581177,-2.3883585929870605
1733513592689287700,5.82328759765625,0.6032736301422119,-0.9418321847915649,-3.0328197479248047
1733513592699306500,5.833306396484375,0.7793874144554138,-1.753292441368103,-3.5164873600006104
1733513592709325600,5.84332568359375,0.7885265350341797,-2.438772678375244,-3.5245110988616943
1733513592719344600,5.8533447265625,0.5984436869621277,-2.8989155292510986,-3.1230852603912354
1733513592729363700,5.86336376953125,0.24065327644348145,-3.1150035858154297,-2.545165538787842
1733513592739382500,5.873382568359375,-0.14703398942947388,-3.1705942153930664,-2.0287885665893555
1733513592749402600,5.883402587890625,-0.4569132924079895,-3.13175630569458,-1.6932722330093384
1733513592759421700,5.893421630859375,-0.5926921367645264,-2.853285312652588,-1.381596326828003
1733513592769440800,5.903440673828125,-0.3904109299182892,-2.0742318630218506,-0.21537841856479645
1733513592779459600,5.91345947265625,-0.0009278933284804225,-0.3272192180156708,1.8138062953948975
1733513592789478700,5.923478759765625,0.24051852524280548,1.5452667474746704,3.4989254474639893
1733513592799497700,5.933497802734375,0.41052407026290894,2.4199068546295166,4.2727251052856445
1733513592809516500,5.9435166015625,0.5265662670135498,2.444514274597168,4.290210247039795
1733513592819535600,5.95353564453125,0.5992620587348938,1.938704252243042,4.14375114440918
1733513592829554400,5.963554443359375,0.6636765599250793,1.3950550556182861,4.147373199462891
1733513592839573500,5.973573486328125,0.6609761714935303,1.1060168743133545,4.227949142456055
1733513592849592600,5.983592529296875,0.5420984029769897,1.0109326839447021,4.2285542488098145
1733513592859611400,5.993611328125,0.37149521708488464,0.9236371517181396,4.099459171295166
1733513592869631500,6.003631591796875,0.30746176838874817,0.716113269329071,3.886136293411255
1733513592879650600,6.013650634765625,0.3327924311161041,0.25962936878204346,3.5958199501037598
1733513592889669600,6.023669677734375,0.35474643111228943,-0.44758179783821106,3.190279960632324
1733513592899688400,6.0336884765625,0.35409876704216003,-0.9848976731300354,2.721973180770874
1733513592909707500,6.04370751953125,0.20491939783096313,-0.9880011081695557,2.3019328117370605
1733513592919726600,6.0537265625,-0.020062588155269623,-0.5588388442993164,1.9746838808059692
1733513592929745700,6.06374560546875,-0.16179172694683075,-0.23828700184822083,1.7817411422729492
1733513592939764500,6.073764404296875,-0.22895291447639465,0.03121505118906498,1.671025276184082
1733513592949783600,6.083783447265625,-0.23157824575901031,0.26649758219718933,1.6057487726211548
1733513592959802600,6.093802734375,-0.2556689381599426,0.4312279522418976,1.5920788049697876
1733513592969821400,6.103821533203125,-0.3631647229194641,0.47971922159194946,1.587419033050537
1733513592979841500,6.113841552734375,-0.5478661060333252,0.38664841651916504,1.5348939895629883
1733513592989860600,6.123860595703125,-0.776213526725769,0.155511274933815,1.4406180381774902
1733513592999879700,6.133879638671875,-1.2019307613372803,-0.4907606840133667,1.1273328065872192
1733513593009898800,6.143898681640625,-1.5124499797821045,-1.1998623609542847,0.5605778098106384
1733513593019917600,6.15391748046875,-1.3462903499603271,-0.889422595500946,0.11851654201745987
1733513593029936600,6.1639365234375,-0.9915107488632202,0.2414524406194687,0.5102080702781677
1733513593039955700,6.173955810546875,-0.48172420263290405,1.8897944688796997,1.4140678644180298
1733513593049974800,6.183974853515625,-0.049267008900642395,3.5087809562683105,1.8391660451889038
1733513593059993600,6.19399365234375,-0.08328835666179657,4.433860778808594,1.98970365524292
1733513593070012700,6.2040126953125,-0.3736989498138428,4.6278395652771,1.975480318069458
1733513593080031700,6.21403173828125,-0.6646983027458191,4.473977565765381,1.7981783151626587
1733513593090050600,6.224050537109375,-0.8389326930046082,4.119796276092529,1.506683111190796
1733513593100070400,6.2340703125,-0.9002178907394409,3.5322465896606445,1.191288948059082
1733513593110089500,6.24408935546875,-0.8896303176879883,2.7282724380493164,0.933853268623352
1733513593120108500,6.254108642578125,-0.8282181024551392,1.8948287963867188,0.7336136102676392
1733513593130127600,6.264127685546875,-0.7481822371482849,1.2704304456710815,0.502506673336029
1733513593140146400,6.274146484375,-0.6623842120170593,0.9176194667816162,0.21130599081516266
1733513593150165500,6.28416552734375,-0.5808520913124084,0.7229847311973572,-0.07484664022922516
1733513593160184600,6.2941845703125,-0.53246009349823,0.5271409153938293,-0.36767399311065674
1733513593170203600,6.30420361328125,-0.5085253715515137,0.30300167202949524,-0.6415762901306152
1733513593180222500,6.314222412109375,-0.47210076451301575,0.09724344313144684,-0.8850443363189697
1733513593190241500,6.324241455078125,-0.4122016131877899,-0.06434734165668488,-0.9737699627876282
1733513593200260600,6.334260498046875,-0.38975462317466736,-0.08122885227203369,-0.6591693758964539
1733513593210279400,6.344279541015625,-0.42701292037963867,0.5779320597648621,0.0837969109416008
1733513593220299500,6.354299560546875,-0.38764688372612,1.838490605354309,0.4772281050682068
1733513593230318600,6.364318603515625,-0.30238986015319824,2.290382146835327,0.20051759481430054
1733513593240337700,6.374337646484375,-0.3081739842891693,1.8815971612930298,-0.05287099629640579
1733513593250356700,6.384356689453125,-0.32982492446899414,1.3347753286361694,-0.1437450498342514
1733513593260375600,6.39437548828125,-0.3817176818847656,0.9912694692611694,-0.12295055389404297
1733513593270394600,6.40439453125,-0.3913644552230835,0.7648677229881287,-0.03503447771072388
1733513593280413700,6.41441357421875,-0.3904384970664978,0.47682613134384155,0.06092081591486931
1733513593290432500,6.4244326171875,-0.42055076360702515,-0.0023896419443190098,0.10462948679924011
1733513593300451600,6.43445166015625,-0.477353572845459,-0.5392583608627319,0.01821790263056755
1733513593310470700,6.444470703125,-0.5213174223899841,-0.8486001491546631,-0.23600730299949646
1733513593320489700,6.45448974609375,-0.5985879302024841,-0.9796982407569885,-0.660023033618927
1733513593330509600,6.464509521484375,-0.6836909055709839,-1.200401782989502,-1.1481218338012695
1733513593340528400,6.4745283203125,-0.6437544226646423,-1.4283241033554077,-1.49979829788208
1733513593350547500,6.48454736328125,-0.4708593487739563,-1.699012279510498,-1.6465044021606445
1733513593360566500,6.49456640625,-0.10039819031953812,-1.7273446321487427,-1.6197460889816284
1733513593370585600,6.504585693359375,0.37363308668136597,-0.9976133108139038,-1.6582437753677368
1733513593380604400,6.5146044921875,0.6907889246940613,-0.5139840841293335,-1.2617107629776
1733513593390623500,6.52462353515625,0.5824857950210571,-0.8177704215049744,-0.5480132699012756
1733513593400642600,6.534642578125,0.07306411117315292,-0.9507473707199097,-0.15994727611541748
1733513593410661400,6.544661376953125,-0.3595106303691864,-0.7043780088424683,-0.1802719086408615
1733513593420680400,6.554680419921875,-0.4090858995914459,-0.10698197782039642,-0.4765078127384186
1733513593430699500,6.564699462890625,-0.05354858189821243,0.3791911005973816,-0.8484179973602295
1733513593440718600,6.574718505859375,0.3976316452026367,0.3129100799560547,-1.0719048976898193
1733513593450738700,6.58473876953125,0.6899343729019165,-0.26710230112075806,-1.0920389890670776
1733513593460757500,6.594757568359375,0.8377121090888977,-0.7042282223701477,-0.9708335399627686
1733513593470776600,6.604776611328125,0.9361101984977722,-0.8491922616958618,-0.6423753499984741
1733513593480795600,6.614795654296875,0.9439127445220947,-0.949677586555481,-0.22630731761455536
1733513593490814700,6.624814697265625,0.7483081221580505,-0.8287222981452942,-0.05075831338763237
1733513593500833500,6.63483349609375,0.46749672293663025,-0.34190496802330017,-0.20465654134750366
1733513593510852900,6.644852783203125,0.2519950270652771,0.3730528950691223,-0.5997998118400574
1733513593520872000,6.654871826171875,0.11516980826854706,1.4347798824310303,-1.0495195388793945
1733513593530890800,6.664890869140625,0.08298597484827042,2.0539088249206543,-1.4107298851013184
1733513593540909800,6.674909912109375,-0.055182550102472305,2.1252784729003906,-1.647324562072754
1733513593550929000,6.684928955078125,-0.18790671229362488,1.9846569299697876,-1.8690682649612427
1733513593560948000,6.694947998046875,-0.15798050165176392,1.4405547380447388,-2.0526483058929443
1733513593570967800,6.7049677734375,-0.056999173015356064,0.6374068260192871,-2.1744298934936523
1733513593580986600,6.714986572265625,0.028517326340079308,-0.46588969230651855,-2.158428192138672
1733513593591005700,6.725005615234375,-0.007307376712560654,-1.4667428731918335,-1.990931510925293
1733513593601024800,6.735024658203125,-0.1800791472196579,-2.277597188949585,-1.7059367895126343
1733513593611043800,6.7450439453125,-0.3683244287967682,-2.786510944366455,-1.4105169773101807
1733513593621062700,6.755062744140625,-0.5134698748588562,-2.8987529277801514,-1.2001134157180786
1733513593631081700,6.765081787109375,-0.6458370685577393,-2.678006172180176,-1.1102927923202515
1733513593641100800,6.775100830078125,-0.7323037981987,-2.2514491081237793,-1.1128736734390259
1733513593651119600,6.78511962890625,-0.7590829133987427,-1.79727041721344,-1.1841588020324707
1733513593661138700,6.795138671875,-0.7015902996063232,-1.3927370309829712,-1.2510595321655273
1733513593671157800,6.80515771484375,-0.5482040643692017,-1.056941270828247,-1.2604457139968872
1733513593681176800,6.8151767578125,-0.34878629446029663,-0.7817435264587402,-1.1709799766540527
1733513593691197000,6.825197021484375,-0.18467959761619568,-0.5842856168746948,-1.0043097734451294
1733513593701215700,6.8352158203125,-0.06303758174180984,-0.440911203622818,-0.8098644614219666
1733513593711234800,6.84523486328125,0.034223318099975586,-0.3020440936088562,-0.6466773748397827
1733513593721254000,6.85525390625,0.13593369722366333,-0.12285810708999634,-0.5750417709350586
1733513593731273000,6.86527294921875,0.2448294311761856,0.07371911406517029,-0.6260738372802734
1733513593741291800,6.875291748046875,0.3009835183620453,0.23646356165409088,-0.8036419749259949
1733513593751310800,6.885310791015625,0.27856960892677307,0.31155654788017273,-1.0687803030014038
1733513593761330000,6.895329833984375,0.20117789506912231,0.2587609887123108,-1.3602161407470703
1733513593771348700,6.9053486328125,0.12124613672494888,0.08957497775554657,-1.6386421918869019
1733513593781367800,6.915367919921875,0.09738394618034363,-0.15044426918029785,-1.8973525762557983
1733513593791387000,6.925386962890625,0.12763544917106628,-0.48371702432632446,-2.1767117977142334
1733513593801407000,6.935406982421875,0.18514081835746765,-0.9259508848190308,-2.5062456130981445
1733513593811426000,6.945426025390625,0.2622659504413605,-1.4477487802505493,-2.751760244369507
1733513593821444900,6.95544482421875,0.29744604229927063,-1.9366368055343628,-2.727254867553711
1733513593831464000,6.9654638671875,0.17149734497070312,-2.295839786529541,-2.3903915882110596
1733513593841482800,6.975482666015625,-0.11536237597465515,-2.4720141887664795,-1.9199447631835938
1733513593851501800,6.985501708984375,-0.3718453645706177,-2.51488995552063,-1.551418662071228
1733513593861520600,6.995520751953125,-0.5276275277137756,-2.5630698204040527,-1.4323489665985107
1733513593871539700,7.005539794921875,-0.6139844655990601,-2.555903196334839,-1.2212989330291748
1733513593881558800,7.015558837890625,-0.5039964914321899,-2.245471477508545,0.12460654973983765
1733513593891577600,7.02557763671875,-0.4140765070915222,-0.94728022813797,1.909313678741455
1733513593901596700,7.0355966796875,-0.2780960202217102,0.5891546010971069,3.237297534942627
1733513593911616800,7.04561669921875,-0.06586325913667679,1.546273946762085,3.8641815185546875
1733513593921635800,7.0556357421875,0.09242784231901169,1.8892797231674194,3.989591121673584
1733513593931655000,7.065655029296875,0.32635295391082764,1.622458577156067,3.971634864807129
1733513593941673700,7.075673828125,0.5734604597091675,1.1177741289138794,3.981783866882324
1733513593951692800,7.08569287109375,0.6100175976753235,0.7550889849662781,4.00667667388916
1733513593961711900,7.0957119140625,0.45024868845939636,0.4428892731666565,3.9733119010925293
1733513593971730700,7.105730712890625,0.23719783127307892,-0.025959182530641556,3.8474843502044678
1733513593981749800,7.115749755859375,0.0791807621717453,-0.7613546252250671,3.582221508026123
1733513593991768800,7.125768798828125,0.03279042989015579,-1.716688632965088,3.1876769065856934
1733513594001788000,7.135787841796875,-0.004360668361186981,-2.4146804809570312,2.7529332637786865
1733513594011806700,7.145806640625,-0.03143762797117233,-2.5863444805145264,2.478595018386841
1733513594021825800,7.15582568359375,-0.029993660748004913,-2.279585838317871,2.3516714572906494
1733513594031846000,7.165845947265625,-0.01470907125622034,-1.6139683723449707,2.195706367492676
1733513594041865000,7.175864990234375,-0.02827095240354538,-0.7113224267959595,1.9400317668914795
1733513594051884000,7.185884033203125,-0.050096139311790466,0.07418555021286011,1.6340383291244507
1733513594061902800,7.19590283203125,-0.026803866028785706,0.6536870002746582,1.2352960109710693
1733513594071922000,7.205921875,-0.00995754823088646,1.0209474563598633,0.7532435059547424
1733513594081941000,7.21594091796875,0.05532824620604515,0.7772909998893738,0.4016098380088806
1733513594091959800,7.225959716796875,-0.1342366486787796,-0.34562915563583374,0.4236387610435486
1733513594101979000,7.235978759765625,-0.5472346544265747,-1.4081273078918457,0.7936466336250305
1733513594111998000,7.245998046875,-0.882744312286377,-1.0373080968856812,1.0865780115127563
1733513594122017000,7.25601708984375,-0.8946235775947571,0.43383651971817017,1.572638988494873
1733513594132035800,7.266035888671875,-0.5881472229957581,1.710949420928955,2.2144782543182373
1733513594142055000,7.276054931640625,-0.2266167253255844,2.382742404937744,2.4854018688201904
1733513594152074800,7.28607470703125,-0.12106848508119583,2.6750731468200684,2.356489658355713
1733513594162093800,7.29609375,-0.17391759157180786,2.6689319610595703,1.9680814743041992
1733513594172112600,7.306112548828125,-0.24529196321964264,2.6752421855926514,1.5783036947250366
1733513594182131700,7.316131591796875,-0.30316057801246643,2.7627522945404053,1.3440358638763428
1733513594192150800,7.32615087890625,-0.363521933555603,2.832653760910034,1.1737498044967651
1733513594202169900,7.336169921875,-0.44219037890434265,2.803493022918701,0.9709591865539551
1733513594212188700,7.346188720703125,-0.530735433101654,2.560725212097168,0.7008571028709412
1733513594222207700,7.356207763671875,-0.6024900078773499,2.154973030090332,0.37658238410949707
1733513594232226800,7.366226806640625,-0.6308344602584839,1.6654404401779175,0.04676775261759758
1733513594242246000,7.376245849609375,-0.6292932629585266,1.1708115339279175,-0.25976768136024475
1733513594252264700,7.3862646484375,-0.6192750930786133,0.7193408012390137,-0.51502925157547
1733513594262283800,7.39628369140625,-0.6377496719360352,0.28915056586265564,-0.7185690402984619
1733513594272303900,7.406303955078125,-0.7210255861282349,-0.1504725068807602,-0.9207135438919067
1733513594282323000,7.416322998046875,-0.8345758318901062,-0.5947615504264832,-1.1274340152740479
1733513594292341800,7.426341796875,-0.922462522983551,-0.9210575819015503,-1.3542602062225342
1733513594302360800,7.43636083984375,-0.9261020421981812,-1.161383867263794,-1.5258090496063232
1733513594312380000,7.4463798828125,-0.7684950232505798,-1.2982773780822754,-1.3779453039169312
1733513594322399000,7.45639892578125,-0.44325676560401917,-0.8360956907272339,-0.520643413066864
1733513594332417800,7.466417724609375,-0.02226913347840309,0.5812830328941345,0.5397188663482666
1733513594342436900,7.476436767578125,0.2840098440647125,1.6257312297821045,0.6737823486328125
1733513594352456000,7.4864560546875,0.18507437407970428,1.9036245346069336,0.2867299020290375
1733513594362475000,7.49647509765625,-0.09561081230640411,1.9446766376495361,0.09561986476182938
1733513594372493800,7.506493896484375,-0.3492310047149658,1.9434095621109009,0.16869521141052246
1733513594382513700,7.516513671875,-0.5163872838020325,1.9772969484329224,0.391460120677948
1733513594392532700,7.52653271484375,-0.5619796514511108,1.601566195487976,0.5871694684028625
1733513594402551800,7.5365517578125,-0.5254855751991272,0.4124607741832733,0.8083109259605408
1733513594412570600,7.546570556640625,-0.35693299770355225,-1.3242579698562622,0.8049840331077576
1733513594422589700,7.556589599609375,-0.11096982657909393,-2.298401355743408,0.4966783821582794
1733513594432608800,7.56660888671875,-0.03586320951581001,-2.3658933639526367,-0.09668349474668503
1733513594442627800,7.5766279296875,-0.15026222169399261,-2.507408618927002,-0.8414855003356934
1733513594452646700,7.586646728515625,-0.3055250346660614,-2.7137184143066406,-1.260429859161377
1733513594462665700,7.596665771484375,-0.3210049271583557,-2.6572799682617188,-1.2271368503570557
1733513594472684800,7.606684814453125,0.21123400330543518,-1.7620882987976074,-1.9606856107711792
1733513594482704000,7.616703857421875,0.8902314305305481,-1.471614122390747,-2.0762240886688232
1733513594492722700,7.62672265625,0.7291169762611389,-2.0552256107330322,-1.184562087059021
1733513594502742800,7.63674267578125,0.11402317136526108,-1.8199193477630615,-0.7547537684440613
1733513594512761300,7.64676123046875,-0.37642738223075867,-0.6632378697395325,-0.7923340797424316
1733513594522780400,7.656780517578125,-0.43682655692100525,0.6272096037864685,-1.0216203927993774
1733513594532799200,7.66679931640625,-0.11211735010147095,1.329567313194275,-1.1384357213974
1733513594542818300,7.676818359375,0.3356817364692688,1.4587793350219727,-1.0427275896072388
1733513594552837400,7.68683740234375,0.6430095434188843,1.373051643371582,-0.8165530562400818
1733513594562856400,7.6968564453125,0.7813935279846191,1.0439281463623047,-0.5464211702346802
1733513594572875300,7.706875244140625,0.7132477760314941,0.7157936692237854,-0.3483857810497284
1733513594582894300,7.716894287109375,0.4583403766155243,0.4901197850704193,-0.29726988077163696
1733513594592913400,7.726913330078125,0.14122851192951202,0.28570663928985596,-0.4435320794582367
1733513594602932200,7.73693212890625,-0.12197169661521912,0.1489618718624115,-0.8357331156730652
1733513594612951300,7.746951416015625,-0.1701182723045349,-0.10782955586910248,-1.3040547370910645
1733513594622971400,7.756971435546875,-0.020582575350999832,-0.4570344090461731,-1.777869701385498
1733513594632990500,7.766990478515625,0.03955475613474846,-0.7403470277786255,-2.497295618057251
1733513594643009500,7.777009521484375,0.06564149260520935,-1.0793873071670532,-3.1929407119750977
1733513594653028400,7.7870283203125,0.10036492347717285,-1.351617455482483,-3.464970588684082
1733513594663047400,7.79704736328125,0.07271944731473923,-1.6112834215164185,-3.3120503425598145
1733513594673066500,7.80706640625,0.014095008373260498,-1.9440791606903076,-2.8970091342926025
1733513594683085300,7.817085205078125,-0.1457521766424179,-2.2839837074279785,-2.3300201892852783
1733513594693104400,7.8271044921875,-0.2773619294166565,-2.6035003662109375,-1.8173400163650513
1733513594703123500,7.83712353515625,-0.3219536542892456,-2.7745842933654785,-1.5516912937164307
1733513594713142300,7.847142333984375,-0.39272159337997437,-2.649362087249756,-1.535791039466858
1733513594723161300,7.857161376953125,-0.4958399832248688,-2.273951292037964,-1.5923808813095093
1733513594733181200,7.86718115234375,-0.5542904138565063,-1.8244649171829224,-1.5389999151229858
1733513594743200300,7.8772001953125,-0.5335869789123535,-1.4524685144424438,-1.3136816024780273
1733513594753219300,7.88721923828125,-0.44621962308883667,-1.1626412868499756,-1.0038602352142334
1733513594763238400,7.89723828125,-0.3369448184967041,-0.926790177822113,-0.739322304725647
1733513594773257200,7.90725732421875,-0.2302210032939911,-0.707412600517273,-0.5557674169540405
1733513594783276300,7.9172763671875,-0.13078895211219788,-0.5185683965682983,-0.4259803891181946
1733513594793295400,7.92729541015625,-0.04110962897539139,-0.33326810598373413,-0.30118128657341003
1733513594803314200,7.937314208984375,0.029618337750434875,-0.10074087232351303,-0.17401213943958282
1733513594813333200,7.947333251953125,0.06744829565286636,0.1931128203868866,-0.08140607923269272
1733513594823352300,7.957352294921875,0.08423952758312225,0.4817723035812378,-0.07580971717834473
1733513594833371400,7.967371337890625,0.09107926487922668,0.6923965215682983,-0.25915729999542236
1733513594843390200,7.97739013671875,0.10304511338472366,0.7484797239303589,-0.6799349188804626
1733513594853410300,7.987410400390625,0.1269940584897995,0.5663971304893494,-1.2784686088562012
1733513594863429400,7.997429443359375,0.1951315701007843,0.11856555193662643,-1.9167600870132446
1733513594873448400,8.007448486328125,0.29388245940208435,-0.5596027374267578,-2.4951717853546143
1733513594883467500,8.017467529296875,0.37441831827163696,-1.3452298641204834,-2.90487003326416
1733513594893486300,8.027486328125,0.44166237115859985,-2.0787012577056885,-3.034432888031006
1733513594903505400,8.03750537109375,0.42551189661026,-2.6471750736236572,-2.8872532844543457
1733513594913524500,8.0475244140625,0.22805456817150116,-3.0098977088928223,-2.589862823486328
1733513594923543300,8.057543212890625,-0.12525634467601776,-3.137759208679199,-2.270129919052124
1733513594933562400,8.067562255859375,-0.46790599822998047,-3.010373115539551,-2.0010063648223877
1733513594943581400,8.07758154296875,-0.6247307658195496,-2.5447146892547607,-1.457337498664856
1733513594953600500,8.0876005859375,-0.34027600288391113,-1.6196259260177612,0.4372630715370178
1733513594963620400,8.097620361328126,0.04300852492451668,0.09871454536914825,2.686383008956909
1733513594973639200,8.10763916015625,0.27761101722717285,1.5246615409851074,4.125773906707764
1733513594983658200,8.117658203125,0.4005230963230133,1.9474737644195557,4.402741432189941
1733513594993677300,8.12767724609375,0.41203808784484863,1.8442142009735107,4.145898818969727
1733513595003696000,8.137696044921874,0.43452420830726624,1.2325862646102905,3.8532674312591553
1733513595013715200,8.147715087890624,0.5383927822113037,0.5000139474868774,3.6941637992858887
1733513595023734300,8.157734375,0.6555790305137634,0.20488829910755157,3.7626237869262695
1733513595033753300,8.16775341796875,0.5207257866859436,0.49961408972740173,3.9431276321411133
1733513595043772200,8.177772216796875,0.23662109673023224,0.7186127305030823,3.971299648284912
1733513595053791200,8.187791259765625,-0.03998478502035141,0.4973847568035126,3.85339093208313
1733513595063810300,8.197810302734375,-0.21218185126781464,0.008846234530210495,3.6188032627105713
1733513595073829400,8.207829345703125,-0.24847951531410217,-0.6058976650238037,3.324735641479492
1733513595083849500,8.217849365234375,-0.1573605239391327,-1.1180977821350098,3.0720977783203125
1733513595093868300,8.227868408203125,-0.12736091017723083,-1.2122812271118164,2.918632984161377
1733513595103887400,8.237887451171876,-0.19345258176326752,-1.0144437551498413,2.8269615173339844
1733513595113906400,8.247906494140626,-0.30904442071914673,-0.5210994482040405,2.6674013137817383
1733513595123925200,8.25792529296875,-0.3513292968273163,0.01446964405477047,2.4203948974609375
1733513595133944300,8.2679443359375,-0.3211015462875366,0.3749384880065918,2.1049885749816895
1733513595143963400,8.27796337890625,-0.39344045519828796,0.5171968340873718,1.625597596168518
1733513595153982500,8.287982421875,-0.5240854620933533,0.374340683221817,0.606377363204956
1733513595164001300,8.298001220703124,-0.6685483455657959,-0.5507035255432129,0.1661728173494339
1733513595174020400,8.308020263671875,-0.9401448965072632,-1.5983415842056274,0.3569470942020416
1733513595184039400,8.318039306640625,-1.3297302722930908,-1.7344117164611816,0.6656244993209839
1733513595194058500,8.32805859375,-1.589430332183838,-0.3310511112213135,1.1507160663604736
1733513595204078300,8.338078369140625,-1.2302159070968628,2.0495245456695557,2.1932408809661865
1733513595214097200,8.34809716796875,-0.5609397292137146,3.405632972717285,2.987703561782837
1733513595224116200,8.3581162109375,0.05677543208003044,3.8253722190856934,2.829118490219116
1733513595234135300,8.36813525390625,0.3553140163421631,4.035025119781494,2.2653262615203857
1733513595244154000,8.378154052734375,0.20005011558532715,3.7826600074768066,1.8089088201522827
1733513595254173200,8.388173095703126,-0.030912818387150764,3.5771541595458984,1.5020114183425903
1733513595264192300,8.398192138671876,-0.2161436676979065,3.677488327026367,1.3041789531707764
1733513595274211300,8.40821142578125,-0.3776792883872986,3.8179421424865723,1.0972298383712769
1733513595284230100,8.418230224609376,-0.5167151689529419,3.6670522689819336,0.7923928499221802
1733513595294249200,8.428249267578124,-0.6258676052093506,3.2056658267974854,0.44407719373703003
1733513595304268300,8.438268310546874,-0.694037914276123,2.697756052017212,0.16250839829444885
1733513595314287400,8.448287353515624,-0.7505685091018677,2.242408275604248,-0.07994484156370163
1733513595324307200,8.45830712890625,-0.7895324230194092,1.6950644254684448,-0.31730762124061584
1733513595334326300,8.468326171875,-0.7738767266273499,1.0167200565338135,-0.5434120893478394
1733513595344345300,8.478345458984375,-0.6925603151321411,0.21023419499397278,-0.7349013686180115
1733513595354364400,8.488364501953125,-0.6727068424224854,-0.4324379861354828,-0.9390194416046143
1733513595364383200,8.49838330078125,-0.6974233984947205,-0.7807629704475403,-1.1277714967727661
1733513595374402300,8.50840234375,-0.6549237966537476,-1.2430773973464966,-1.013859510421753
1733513595384421400,8.51842138671875,-0.5155180096626282,-0.9842423796653748,-0.04565512388944626
1733513595394440400,8.5284404296875,-0.1594579517841339,0.9498974680900574,0.9085385203361511
1733513595404459300,8.538459228515626,0.09411411732435226,2.3364245891571045,0.4091458022594452
1733513595414478300,8.548478271484376,0.09818419814109802,2.3993592262268066,-0.12035766243934631
1733513595424497400,8.558497314453126,-0.05242235213518143,2.267282485961914,-0.08916246145963669
1733513595434517500,8.568517578125,-0.2804771363735199,2.276301622390747,0.21134072542190552
1733513595444536300,8.578536376953124,-0.479144424200058,2.021751880645752,0.4791570007801056
1733513595454555400,8.588555419921875,-0.6616067290306091,1.0667564868927002,0.8326422572135925
1733513595464574500,8.598574462890625,-0.7830471396446228,0.0312642976641655,1.1367477178573608
1733513595474593300,8.60859326171875,-0.7343142032623291,-0.3389633297920227,0.6776149868965149
1733513595484612400,8.6186123046875,-0.3657180368900299,-0.6369795799255371,-0.009240052662789822
1733513595494631200,8.628631103515625,-0.056195084005594254,-1.7797374725341797,-0.6362453103065491
1733513595504650200,8.638650146484375,-0.09872975945472717,-3.201204776763916,-1.3027069568634033
1733513595514670600,8.648670654296875,-0.5062426924705505,-3.2431998252868652,-1.495213270187378
1733513595524689400,8.658689453125,-0.781912088394165,-2.6293256282806396,-1.3934211730957031
1733513595534708500,8.66870849609375,-0.43096643686294556,-1.2473562955856323,-1.629090428352356
1733513595544727600,8.6787275390625,0.26878127455711365,-0.7933169603347778,-1.275151252746582
1733513595554747600,8.68874755859375,0.5006596446037292,-1.2350064516067505,-0.611161470413208
1733513595564766700,8.6987666015625,0.21239694952964783,-1.5575999021530151,-0.45339104533195496
1733513595574785500,8.70878564453125,-0.08531777560710907,-1.747944951057434,-0.7660497426986694
1733513595584804600,8.7188046875,-0.015499279834330082,-1.8466949462890625,-1.2627215385437012
1733513595594823700,8.72882373046875,0.32963141798973083,-1.7770748138427734,-1.7434507608413696
1733513595604842500,8.738842529296875,0.7014779448509216,-1.286229133605957,-2.150296211242676
1733513595614861600,8.748861572265625,0.9683772921562195,-0.6273475885391235,-2.3239591121673584
1733513595624880600,8.758880615234375,1.0517808198928833,0.08203563839197159,-2.2487494945526123
1733513595634899700,8.768899658203125,0.8879067301750183,1.028412938117981,-2.060351610183716
1733513595644918500,8.77891845703125,0.7401071786880493,1.6165894269943237,-1.681291103363037
1733513595654937600,8.7889375,0.5948466658592224,1.629930853843689,-1.1644233465194702
1733513595664956700,8.798956787109375,0.30467745661735535,1.182716965675354,-0.8087179660797119
1733513595674976500,8.8089765625,-0.006464692763984203,0.4773213863372803,-0.7302559614181519
1733513595684995300,8.818995361328126,-0.10955725610256195,-0.5295305848121643,-1.0315455198287964
1733513595695014400,8.829014404296874,-0.04004429280757904,-2.5763161182403564,-2.4519758224487305
1733513595705033500,8.839033447265624,-0.18632933497428894,-3.4480514526367188,-3.5263020992279053
1733513595715052500,8.849052490234374,-0.34258362650871277,-3.3320682048797607,-3.7304275035858154
1733513595725071400,8.8590712890625,-0.3621693253517151,-2.794647455215454,-3.277935028076172
1733513595735090400,8.86909033203125,-0.3116885721683502,-2.0142951011657715,-2.5577645301818848
1733513595745109500,8.879109619140625,-0.21363364160060883,-1.384831190109253,-1.8363566398620605
1733513595755128600,8.889128662109375,-0.12353608012199402,-1.0916213989257812,-1.363415241241455
1733513595765147400,8.8991474609375,-0.12849143147468567,-1.0888463258743286,-1.2236123085021973
1733513595775166500,8.90916650390625,-0.204538494348526,-1.214113712310791,-1.239662766456604
1733513595785185500,8.919185546875,-0.301779568195343,-1.3111491203308105,-1.23928964138031
1733513595795205600,8.92920556640625,-0.36649182438850403,-1.1918411254882812,-1.1434475183486938
1733513595805224400,8.939224365234375,-0.34506773948669434,-0.850292444229126,-0.9685338139533997
1733513595815243500,8.949243408203126,-0.2741009294986725,-0.43068498373031616,-0.7631527185440063
1733513595825262600,8.9592626953125,-0.20373593270778656,-0.10341285169124603,-0.5612728595733643
1733513595835281700,8.96928173828125,-0.14708001911640167,0.06520019471645355,-0.400939017534256
1733513595845300500,8.979300537109374,-0.08481238782405853,0.0737641230225563,-0.3213997185230255
1733513595855319600,8.989319580078124,-0.05195099115371704,-0.029385404661297798,-0.32148486375808716
1733513595865338600,8.999338623046874,-0.034462809562683105,-0.1662369966506958,-0.3964448571205139
1733513595875357700,9.009357666015624,-0.024382106959819794,-0.25526586174964905,-0.4929468631744385
1733513595885376500,9.01937646484375,-0.01827308163046837,-0.22841614484786987,-0.5868489146232605
1733513595895395600,9.0293955078125,-0.0030983297619968653,-0.08388972282409668,-0.6689326167106628
1733513595905414700,9.03941455078125,0.018555833026766777,0.11253172159194946,-0.7566813826560974
1733513595915434500,9.0494345703125,0.03567248210310936,0.26611146330833435,-0.8956901431083679
1733513595925453300,9.059453369140625,0.025161517783999443,0.30713561177253723,-1.126719355583191
1733513595935472400,9.069472412109375,-0.019467221572995186,0.2353924810886383,-1.4596583843231201
1733513595945491500,9.079491455078125,-0.010370397008955479,-0.00988758634775877,-1.9231504201889038
1733513595955510500,9.089510498046875,0.12865522503852844,-0.6152674555778503,-2.7024097442626953
1733513595965529300,9.099529296875,0.32728710770606995,-1.6378341913223267,-3.6140096187591553
1733513595975548400,9.10954833984375,0.43148183822631836,-2.6631641387939453,-4.004117965698242
1733513595985567500,9.1195673828125,0.35512930154800415,-3.473534107208252,-3.793675422668457
1733513595995586600,9.129586669921874,0.09994924813508987,-4.014146327972412,-3.2316246032714844
1733513596005605400,9.13960546875,-0.23399676382541656,-4.1600565910339355,-2.531106472015381
1733513596015624400,9.14962451171875,-0.4729069173336029,-3.951563596725464,-1.7220122814178467
1733513596025644500,9.15964453125,-0.5052083730697632,-3.2316112518310547,-0.5373409986495972
1733513596035663600,9.16966357421875,-0.5198804140090942,-1.7535474300384521,0.6439230442047119
1733513596045682400,9.179682373046875,-0.5351579189300537,0.012220934964716434,1.5766459703445435
1733513596055701500,9.189701416015625,-0.40110862255096436,1.289677619934082,2.712102174758911
1733513596065720600,9.199720458984375,-0.1894911676645279,1.7789287567138672,3.687758445739746
1733513596075739600,9.20973974609375,-0.08327891677618027,1.884932041168213,4.230413913726807
1733513596085758500,9.219758544921875,-0.0684075579047203,2.0460166931152344,4.328697204589844
1733513596095777500,9.229777587890625,0.002746391110122204,2.1009230613708496,4.305724143981934
1733513596105796600,9.239796630859376,0.09798555821180344,2.076988697052002,4.38123893737793
1733513596115815700,9.249815673828126,0.23291422426700592,1.9599056243896484,4.542500972747803
1733513596125834500,9.25983447265625,0.3286183774471283,1.4728482961654663,4.679043292999268
1733513596135853600,9.269853515625,0.3720874786376953,0.5616534352302551,4.623678207397461
1733513596145873700,9.279873779296874,0.34851503372192383,-0.6664379835128784,4.297364711761475
1733513596155892700,9.289892822265625,0.2659115195274353,-2.002718210220337,3.7849316596984863
1733513596165911600,9.29991162109375,0.08685602247714996,-2.887389659881592,3.2476065158843994
1733513596175930600,9.3099306640625,-0.175080806016922,-2.950732707977295,2.6789774894714355
1733513596185949400,9.319949462890625,-0.3293244540691376,-2.1004154682159424,2.1288087368011475
1733513596195968500,9.329968505859375,-0.31459754705429077,-0.8820059895515442,1.6976288557052612
1733513596205987300,9.3399873046875,-0.22179117798805237,0.17800910770893097,1.4733355045318604
1733513596216006400,9.35000634765625,-0.18697650730609894,0.7980577945709229,1.4741216897964478
1733513596226025500,9.360025390625,-0.21086105704307556,1.049031376838684,1.5588575601577759
1733513596236044500,9.37004443359375,-0.17972344160079956,1.054671049118042,1.5762063264846802
1733513596246063400,9.3800634765625,-0.13067439198493958,0.5247525572776794,1.0222749710083008
1733513596256083500,9.39008349609375,-0.4106976091861725,-0.8608172535896301,0.9377272725105286
1733513596266102500,9.4001025390625,-0.7161020040512085,-0.9892758727073669,1.0750335454940796
1733513596276121600,9.41012158203125,-0.8326307535171509,0.136013463139534,1.281862735748291
1733513596286140400,9.420140380859374,-0.7884454727172852,1.6879881620407104,1.9736089706420898
1733513596296159500,9.430159423828124,-0.5335878729820251,2.715254783630371,2.541368007659912
1733513596306178600,9.440178466796874,-0.09095693379640579,3.2522850036621094,2.477250814437866
1733513596316197600,9.45019775390625,0.012584907934069633,3.1031248569488525,2.2218399047851562
1733513596326216400,9.460216552734375,-0.0768032968044281,2.9977376461029053,1.9180749654769897
1733513596336235500,9.470235595703125,-0.14509211480617523,3.1099228858947754,1.6613484621047974
1733513596346254600,9.480254638671875,-0.2428748607635498,3.2697806358337402,1.4101197719573975
1733513596356273400,9.4902734375,-0.3713567554950714,3.374485492706299,1.1527466773986816
1733513596366292500,9.50029248046875,-0.5064567923545837,3.265803098678589,0.8432424068450928
1733513596376312600,9.5103125,-0.6396304965019226,2.908698558807373,0.4619942605495453
1733513596386331600,9.52033154296875,-0.7642747163772583,2.4677507877349854,0.06946058571338654
1733513596396350700,9.530350830078126,-0.8314175605773926,2.0311367511749268,-0.2837564945220947
1733513596406369500,9.54036962890625,-0.8278840780258179,1.559343934059143,-0.5877544283866882
1733513596416388600,9.550388671875,-0.7962342500686646,1.0392906665802002,-0.8481113314628601
1733513596426407700,9.56040771484375,-0.7874205112457275,0.4073328375816345,-1.0536285638809204
1733513596436426800,9.5704267578125,-0.7884775996208191,-0.2516525685787201,-1.214290976524353
1733513596446445600,9.580445556640624,-0.7587268948554993,-0.9530852437019348,-1.3481351137161255
1733513596456464600,9.590464599609374,-0.7252625226974487,-1.580625057220459,-1.3749171495437622
1733513596466483700,9.600483642578125,-0.6792654991149902,-1.6843738555908203,-0.7198823690414429
1733513596476502500,9.61050244140625,-0.42812228202819824,0.29785779118537903,1.336477279663086
1733513596486521600,9.620521484375,0.07718005776405334,2.453026533126831,1.653644323348999
1733513596496541400,9.63054150390625,0.21277709305286407,2.3619940280914307,0.4666869044303894
1733513596506560500,9.640560546875,0.032983891665935516,1.3981146812438965,-0.4158005118370056
1733513596516578600,9.65057861328125,-0.08788123726844788,0.7800175547599792,-0.6149448752403259
1733513596526597600,9.66059765625,-0.21128199994564056,0.7671012282371521,-0.2651383578777313
1733513596536616700,9.67061669921875,-0.4129023253917694,0.9049584269523621,0.3217243254184723
1733513596546635800,9.6806357421875,-0.6417248845100403,0.34771329164505005,0.8351160287857056
1733513596556654600,9.690654541015626,-0.7693158984184265,-0.7553016543388367,1.10728919506073
1733513596566673700,9.700673583984376,-0.6554625630378723,-1.391809105873108,0.7099360227584839
1733513596576692700,9.710692626953126,-0.23930063843727112,-1.62111234664917,-0.025259114801883698
1733513596586711800,9.7207119140625,0.1349872201681137,-1.938741683959961,-0.7554986476898193
1733513596596730600,9.730730712890624,0.13231490552425385,-2.960660934448242,-1.5095387697219849
1733513596606749700,9.740749755859374,-0.1510278433561325,-3.161565065383911,-1.714943766593933
1733513596616769800,9.750769775390625,-0.296176016330719,-2.347318649291992,-1.485027551651001
1733513596626788900,9.760788818359375,-0.0952484980225563,-0.9210690259933472,-1.4711627960205078
1733513596636807700,9.7708076171875,0.2616207003593445,-0.20778533816337585,-1.0985461473464966
1733513596646826800,9.78082666015625,0.30445578694343567,-0.3208969831466675,-0.5461077094078064
1733513596656845800,9.790845703125,0.009393827989697456,-0.4666993021965027,-0.4338926076889038
1733513596666865000,9.800864990234375,-0.19352813065052032,-0.5336074233055115,-0.6395053863525391
1733513596676883700,9.8108837890625,-0.028932776302099228,-0.539741039276123,-0.9558404684066772
1733513596686902800,9.82090283203125,0.31257474422454834,-0.4156284034252167,-1.2654685974121094
1733513596696921900,9.830921875,0.6237640976905823,-0.14021827280521393,-1.5362802743911743
1733513596706941000,9.84094091796875,0.8707581758499146,0.0366465300321579,-1.676762580871582
1733513596716959700,9.850959716796876,0.9300552010536194,0.19747616350650787,-1.6924738883972168
1733513596726978800,9.860978759765626,0.9179365038871765,0.4104827344417572,-1.5515916347503662
1733513596736999000,9.8709990234375,0.7777091860771179,0.371592253446579,-1.22853422164917
1733513596747018000,9.88101806640625,0.5131518840789795,0.12303569912910461,-0.9402731657028198
1733513596757036800,9.891036865234375,0.19227075576782227,-0.1640908122062683,-0.8440182209014893
1733513596767056000,9.901055908203125,-0.0273891594260931,-0.5567272901535034,-1.163741111755371
1733513596777074700,9.91107470703125,-0.13352757692337036,-1.033067226409912,-2.081453561782837
1733513596787093800,9.92109375,-0.11401380598545074,-1.4997313022613525,-2.8766136169433594
1733513596797112600,9.931112548828125,-0.06766945123672485,-1.6373283863067627,-3.0683786869049072
1733513596807131600,9.941131591796875,-0.030474945902824402,-1.3428642749786377,-2.80873966217041
1733513596817150700,9.951150634765625,-0.0967462807893753,-0.6711544990539551,-2.350703716278076
1733513596827169800,9.961169677734375,-0.08595675230026245,-0.012661308981478214,-1.808308482170105
1733513596837188600,9.971188720703125,-0.009223412722349167,0.3067450225353241,-1.3535856008529663
1733513596847207700,9.981207763671875,0.07757806032896042,0.1882876306772232,-1.1185369491577148
1733513596857227800,9.991227783203126,0.003732086159288883,-0.3120388686656952,-1.0598866939544678
1733513596867246800,10.001246826171876,-0.20986568927764893,-0.8433879613876343,-1.0459784269332886
1733513596877265700,10.011265625,-0.37171056866645813,-1.1857012510299683,-1.0203925371170044
1733513596887284700,10.02128466796875,-0.41818806529045105,-1.3274229764938354,-1.0004267692565918
1733513596897303800,10.0313037109375,-0.4133976995944977,-1.2712395191192627,-0.9675921201705933
1733513596907323000,10.041322998046875,-0.3961060345172882,-1.0561728477478027,-0.9230470061302185
1733513596917341700,10.051341796875,-0.34245479106903076,-0.7588120102882385,-0.8376168012619019
1733513596927360800,10.06136083984375,-0.26008138060569763,-0.45707428455352783,-0.7134117484092712
1733513596937379800,10.0713798828125,-0.16814078390598297,-0.18875838816165924,-0.574981689453125
1733513596947398700,10.081398681640625,-0.08060082048177719,0.006124814040958881,-0.4449605941772461
1733513596957417700,10.091417724609375,-0.016214318573474884,0.13044078648090363,-0.35404518246650696
1733513596967437800,10.101437744140625,0.03815624490380287,0.2648633122444153,-0.30747687816619873
1733513596977457000,10.111456787109375,0.10245634615421295,0.4573225975036621,-0.3088882267475128
1733513596987476000,10.12147607421875,0.16503743827342987,0.6973778009414673,-0.371636301279068
1733513596997494800,10.131494873046876,0.21196909248828888,0.9185758233070374,-0.5116189122200012
1733513597007513900,10.141513916015626,0.22019372880458832,1.0338290929794312,-0.7396161556243896
1733513597017533000,10.151532958984374,0.18728753924369812,1.0164976119995117,-1.0477070808410645
1733513597027552000,10.161552001953124,0.12837201356887817,0.8564528822898865,-1.37933349609375
1733513597037570800,10.17157080078125,0.11061786115169525,0.5441944003105164,-1.686862826347351
1733513597047590000,10.18158984375,0.17039650678634644,0.07794468104839325,-2.0296010971069336
1733513597057609000,10.19160888671875,0.31800100207328796,-0.5964933633804321,-2.5499837398529053
1733513597067627800,10.201627685546875,0.4760902523994446,-1.3956611156463623,-3.124117612838745
1733513597077646800,10.211646728515625,0.4662087559700012,-2.113065242767334,-3.411613702774048
1733513597087666000,10.221666015625,0.19977279007434845,-2.664614677429199,-3.308615207672119
1733513597097685800,10.231685791015625,-0.20412299036979675,-3.0099477767944336,-2.941589593887329
1733513597107704800,10.241704833984375,-0.4851863384246826,-3.180095911026001,-2.55472731590271
1733513597117723600,10.2517236328125,-0.5899591445922852,-3.1569786071777344,-2.2691943645477295
1733513597127742700,10.26174267578125,-0.6215482354164124,-2.8676042556762695,-1.6958873271942139
1733513597137761800,10.27176171875,-0.5764764547348022,-1.9635885953903198,-0.24674132466316223
1733513597147780900,10.28178076171875,-0.561708390712738,-0.5970087647438049,1.439123272895813
1733513597157799700,10.291799560546876,-0.4778556823730469,0.6293312311172485,3.0276074409484863
1733513597167818800,10.30181884765625,-0.26438334584236145,1.4497939348220825,3.939051866531372
1733513597177837800,10.311837890625,-0.049466706812381744,1.9479728937149048,4.259964466094971
1733513597187856600,10.321856689453124,0.05664907768368721,2.0691003799438477,4.202381134033203
1733513597197875700,10.331875732421874,0.15647360682487488,1.87998366355896,4.0838141441345215
1733513597207895800,10.341895751953125,0.30825379490852356,1.6626648902893066,4.034538269042969
1733513597217915000,10.351914794921875,0.4905410408973694,1.248609185218811,4.05900764465332
1733513597227934000,10.361933837890625,0.5928820371627808,0.4857773184776306,4.123234748840332
1733513597237952800,10.371952880859375,0.5754302740097046,-0.5049040913581848,4.08837890625
1733513597247971800,10.381971923828125,0.4807136356830597,-1.6308674812316895,3.8682398796081543
1733513597257991000,10.391990966796875,0.3271290957927704,-2.617175817489624,3.523258686065674
1733513597268009700,10.402009765625,0.09794466197490692,-3.0593831539154053,3.175811767578125
1733513597278028800,10.41202880859375,-0.20355623960494995,-2.7427873611450195,2.754821538925171
1733513597288047900,10.4220478515625,-0.3883897364139557,-1.7661490440368652,2.2833752632141113
1733513597298067000,10.43206689453125,-0.4182044565677643,-0.3927631080150604,1.829047441482544
1733513597308085800,10.442085693359376,-0.32373735308647156,0.7438753247261047,1.592397689819336
1733513597318104800,10.452104736328126,-0.2190588414669037,1.2887219190597534,1.6144781112670898
1733513597328124700,10.462124755859374,-0.19099047780036926,1.4622678756713867,1.6790683269500732
1733513597338143700,10.472143798828125,-0.1421297788619995,1.2122678756713867,1.3951367139816284
1733513597348162800,10.482162841796875,-0.26688313484191895,-0.09189293533563614,1.1349337100982666
1733513597358181600,10.492181640625,-0.6535627245903015,-1.0979400873184204,1.3286489248275757
1733513597368200700,10.50220068359375,-0.897036075592041,-0.5666136741638184,1.316597580909729
1733513597378219800,10.5122197265625,-0.9174103140830994,0.5462573766708374,1.3772432804107666
1733513597388238600,10.522238525390625,-0.7567135691642761,1.6637177467346191,1.7751497030258179
1733513597398257700,10.532257568359375,-0.5716493725776672,2.403068780899048,2.338670015335083
1733513597408276700,10.54227685546875,-0.28995823860168457,2.7041635513305664,2.4474775791168213
1733513597418295800,10.5522958984375,-0.05492224171757698,2.676017999649048,2.151496410369873
1733513597428314600,10.562314697265625,-0.06542228162288666,2.4113054275512695,1.800743579864502
1733513597438333700,10.572333740234376,-0.1320752054452896,2.320812940597534,1.4675052165985107
1733513597448353800,10.582353759765626,-0.1949700117111206,2.4179911613464355,1.2546310424804688
1733513597458372900,10.592372802734374,-0.25766927003860474,2.5889201164245605,1.1171520948410034
1733513597468392000,10.602391845703124,-0.34650513529777527,2.676358222961426,0.9422609806060791
1733513597478410800,10.61241064453125,-0.4271908700466156,2.6451902389526367,0.6926714777946472
1733513597488429800,10.622429931640625,-0.5070928931236267,2.393639326095581,0.34855222702026367
1733513597498449000,10.632448974609375,-0.5857144594192505,2.0055930614471436,-0.061266232281923294
1733513597508467700,10.6424677734375,-0.6338862776756287,1.6231560707092285,-0.4043636918067932
1733513597518486800,10.65248681640625,-0.6427990198135376,1.2753864526748657,-0.6378883719444275
1733513597528505600,10.662505615234375,-0.635684609413147,0.9409235119819641,-0.8056036233901978
1733513597538524700,10.672524658203125,-0.6539044976234436,0.541283905506134,-0.9719635844230652
1733513597548543700,10.682543701171875,-0.7142008543014526,0.10661473125219345,-1.12880539894104
1733513597558562800,10.692562744140625,-0.7693658471107483,-0.32034435868263245,-1.2961374521255493
1733513597568582700,10.702582763671876,-0.774031937122345,-0.6314284801483154,-1.450235366821289
1733513597578601500,10.7126015625,-0.6516895890235901,-0.8355917930603027,-1.3610280752182007
1733513597588620500,10.72262060546875,-0.3669172525405884,-0.15796269476413727,-0.3211396336555481
1733513597598639600,10.7326396484375,0.08462119847536087,1.8920300006866455,1.1086901426315308
1733513597608658400,10.742658447265624,0.384891539812088,2.92944073677063,0.9628888368606567
1733513597618677500,10.752677490234374,0.25463661551475525,2.404059886932373,0.25289103388786316
1733513597628696600,10.762696533203124,0.010128081776201725,1.3730789422988892,-0.07652013748884201
1733513597638715600,10.772715576171874,-0.14831864833831787,0.6909831166267395,-0.10480218380689621
1733513597648734500,10.782734375,-0.31942248344421387,0.48156648874282837,0.10297232121229172
1733513597658753500,10.79275341796875,-0.48669490218162537,0.3230595290660858,0.4207243025302887
1733513597668772600,10.802772705078125,-0.6129697561264038,-0.12762801349163055,0.7981959581375122
1733513597678791700,10.812791748046875,-0.6679057478904724,-0.7196917533874512,0.7099325060844421
1733513597688811500,10.8228115234375,-0.4472476840019226,-1.17958664894104,0.07711964845657349
1733513597698830600,10.83283056640625,-0.017413541674613953,-1.6211265325546265,-0.6182643175125122
1733513597708849700,10.842849609375,0.2511713206768036,-2.4473001956939697,-1.1062099933624268
1733513597718868700,10.85286865234375,0.044855158776044846,-3.1292037963867188,-1.130465030670166
1733513597728887600,10.862887451171876,-0.4244401454925537,-2.98409104347229,-0.8220174312591553
1733513597738906600,10.87290673828125,-0.5081506967544556,-1.9062789678573608,-0.9052265286445618
1733513597748925700,10.88292578125,-0.03618018701672554,-0.41031351685523987,-1.068313717842102
1733513597758944800,10.89294482421875,0.29451245069503784,0.06263551861047745,-0.6347893476486206
1733513597768963600,10.902963623046874,0.14207525551319122,0.026880448684096336,-0.29011425375938416
1733513597778982700,10.912982666015624,-0.20666036009788513,-0.28205448389053345,-0.31701165437698364
1733513597789001700,10.923001708984375,-0.328980416059494,-0.7542704939842224,-0.6125261187553406
1733513597799020800,10.933020751953125,-0.059895873069763184,-1.2251020669937134,-0.9938624501228333
1733513597809040600,10.94304052734375,0.3589716851711273,-1.3425098657608032,-1.367008090019226
1733513597819059700,10.953059814453125,0.7392457127571106,-0.9020383954048157,-1.711193323135376
1733513597829078800,10.963078857421875,1.0162397623062134,-0.2693062126636505,-1.9450100660324097
1733513597839097900,10.973097900390625,1.1056501865386963,0.20463287830352783,-1.9736478328704834
1733513597849116700,10.98311669921875,0.9667402505874634,0.6108323335647583,-1.839943766593933
1733513597859135700,10.9931357421875,0.7935718894004822,0.8912451863288879,-1.5179939270019531
1733513597869154800,11.00315478515625,0.6206799745559692,0.6817827820777893,-1.0437963008880615
1733513597879173600,11.013173583984376,0.34521958231925964,0.2735559940338135,-0.7093896269798279
1733513597889192700,11.023192626953126,0.10632338374853134,-0.29611465334892273,-0.6136699914932251
1733513597899211500,11.03321142578125,0.010301019996404648,-1.0958441495895386,-0.8996762633323669
1733513597909230600,11.043230712890624,0.031061161309480667,-2.263612747192383,-2.188967704772949
1733513597919249700,11.053249755859374,-0.15283505618572235,-2.598613739013672,-3.212926149368286
1733513597929269500,11.06326953125,-0.33813032507896423,-2.3549368381500244,-3.4391140937805176
1733513597939288600,11.07328857421875,-0.37269529700279236,-1.9295903444290161,-3.0576133728027344
1733513597949307600,11.0833076171875,-0.3259296417236328,-1.3659287691116333,-2.408644914627075
1733513597959326700,11.09332666015625,-0.20348411798477173,-0.8454872965812683,-1.6924917697906494
1733513597969345500,11.103345458984375,-0.07912354916334152,-0.5465024709701538,-1.1303948163986206
1733513597979364600,11.113364501953125,-0.0532650351524353,-0.4697515070438385,-0.8607935309410095
1733513597989383700,11.1233837890625,-0.10341635346412659,-0.6175508499145508,-0.8198969960212708
1733513597999402800,11.13340283203125,-0.18042446672916412,-0.8143789172172546,-0.8236749172210693
1733513598009421600,11.143421630859375,-0.2603131830692291,-0.8706173896789551,-0.7463167309761047
1733513598019440600,11.153440673828126,-0.2811295986175537,-0.7355925440788269,-0.6037765145301819
1733513598029459700,11.163459716796876,-0.24417050182819366,-0.5308064222335815,-0.44853127002716064
1733513598039478500,11.173478515625,-0.2066313773393631,-0.32483384013175964,-0.3307873010635376
1733513598049498600,11.18349853515625,-0.16582216322422028,-0.1766747236251831,-0.2505635619163513
1733513598059517700,11.193517578125,-0.1138368472456932,-0.09931577742099762,-0.21247772872447968
1733513598069536800,11.203536865234375,-0.06789572536945343,-0.09922176599502563,-0.23321416974067688
1733513598079555800,11.213555908203125,-0.042402978986501694,-0.16160957515239716,-0.3149365484714508
1733513598089574700,11.22357470703125,-0.01938394457101822,-0.23375540971755981,-0.41074055433273315
1733513598099593700,11.23359375,0.016564320772886276,-0.23828382790088654,-0.48174306750297546
1733513598109612800,11.24361279296875,0.06693348288536072,-0.1502775400876999,-0.5194997191429138
1733513598119632000,11.2536318359375,0.11348360776901245,0.03154858201742172,-0.55635005235672
1733513598129650700,11.263650634765625,0.15256629884243011,0.26515015959739685,-0.6368392705917358
1733513598139669800,11.273669677734375,0.18970024585723877,0.48164141178131104,-0.8101368546485901
1733513598149688800,11.283688720703125,0.19565027952194214,0.6291813254356384,-1.084410548210144
1733513598159707600,11.293707763671875,0.19205346703529358,0.6620779037475586,-1.403921127319336
1733513598169727500,11.3037275390625,0.2181660234928131,0.5546619892120361,-1.668262243270874
1733513598179746600,11.31374658203125,0.27934619784355164,0.2920241355895996,-1.8873649835586548
1733513598189765600,11.323765625,0.37340211868286133,-0.14497824013233185,-2.20432448387146
1733513598199784700,11.33378466796875,0.5015249252319336,-0.7988321781158447,-2.7363288402557373
1733513598209803500,11.343803466796874,0.5968184471130371,-1.536563754081726,-3.25506854057312
1733513598219822600,11.353822509765624,0.4846154451370239,-2.186842918395996,-3.3870270252227783
1733513598229841700,11.363841552734375,0.10012315213680267,-2.6305153369903564,-3.09317684173584
1733513598239860700,11.37386083984375,-0.3946533501148224,-2.848327398300171,-2.585653066635132
1733513598249879600,11.383879638671875,-0.7337449193000793,-2.9127633571624756,-2.101165771484375
1733513598259898600,11.393898681640625,-0.835091233253479,-2.904731035232544,-1.800611972808838
1733513598269917700,11.403917724609375,-0.8442463874816895,-2.7286934852600098,-1.5289474725723267
1733513598279937800,11.413937744140625,-0.7734344601631165,-2.152082681655884,-0.6966907382011414
1733513598289956600,11.42395654296875,-0.6940730810165405,-1.2048027515411377,0.5095062851905823
1733513598299975700,11.4339755859375,-0.5654417276382446,-0.22822465002536774,1.6074868440628052
1733513598309994800,11.443994873046876,-0.26070237159729004,0.6004115343093872,2.6948039531707764
1733513598320013800,11.454013916015626,0.046550408005714417,1.3373748064041138,3.495245933532715
1733513598330032600,11.46403271484375,0.2640388011932373,1.79680335521698,3.7863848209381104
1733513598340051700,11.4740517578125,0.36909201741218567,1.9227498769760132,3.864398717880249
1733513598350070800,11.48407080078125,0.39130812883377075,1.8044464588165283,3.828213691711426
1733513598360089600,11.494089599609374,0.4414956271648407,1.5148881673812866,3.742648124694824
1733513598370108700,11.504108642578124,0.5308340191841125,0.9845220446586609,3.6728200912475586
1733513598380127700,11.514127685546875,0.5732026696205139,0.35289981961250305,3.6125900745391846
1733513598390146800,11.524146728515625,0.5088931918144226,-0.2043546438217163,3.5402605533599854
1733513598400166700,11.534166748046875,0.40007928013801575,-0.7553936243057251,3.434260368347168
1733513598410185500,11.544185546875,0.2640942633152008,-1.3341501951217651,3.2883663177490234
1733513598420204500,11.55420458984375,0.08081884682178497,-1.7888931035995483,3.056664228439331
1733513598430223600,11.5642236328125,-0.1645059585571289,-1.757674217224121,2.6834828853607178
1733513598440242700,11.57424267578125,-0.3826119601726532,-1.1955808401107788,2.303269624710083
1733513598450261500,11.584261474609375,-0.49451398849487305,-0.5895587205886841,2.01273775100708
1733513598460280600,11.594280517578126,-0.5457178950309753,-0.1435551792383194,1.8154175281524658
1733513598470299600,11.604299560546876,-0.5808883905410767,0.3951016068458557,1.6315134763717651
1733513598480318500,11.614318359375,-0.5775890946388245,0.5297945141792297,1.461640477180481
1733513598490337500,11.624337646484374,-0.5737594962120056,-0.21458134055137634,1.1435093879699707
1733513598500356600,11.634356689453124,-0.7051832675933838,-1.566373586654663,0.7219509482383728
1733513598510375700,11.644375732421874,-0.9848144054412842,-2.5011610984802246,0.4606815576553345
1733513598520395500,11.6543955078125,-1.1966749429702759,-2.168250560760498,0.20755842328071594
1733513598530414300,11.664414306640625,-1.2147785425186157,-1.0254353284835815,0.2595856487751007
1733513598540433400,11.674433349609375,-1.0795738697052002,0.568501353263855,0.9087191224098206
1733513598550452500,11.684452392578125,-0.64711993932724,2.5808467864990234,1.7182849645614624
1733513598560471600,11.694471435546875,-0.3188793361186981,3.5954647064208984,2.2442946434020996
1733513598570490400,11.704490478515625,-0.2530478835105896,3.6276400089263916,2.3026087284088135
1733513598580509400,11.714509521484375,-0.26964467763900757,3.3117082118988037,2.041810989379883
1733513598590528500,11.724528564453125,-0.3331368565559387,2.975618600845337,1.656193733215332
1733513598600547600,11.734547607421876,-0.35490989685058594,2.700350761413574,1.3234481811523438
1733513598610566400,11.74456640625,-0.326953649520874,2.5138025283813477,1.0844203233718872
1733513598620585500,11.75458544921875,-0.3036101758480072,2.4160242080688477,0.883368194103241
1733513598630604500,11.7646044921875,-0.33125245571136475,2.3112452030181885,0.637772262096405
1733513598640624600,11.774624755859374,-0.4250749349594116,2.1314144134521484,0.3677034378051758
1733513598650643500,11.7846435546875,-0.5221948027610779,1.815105676651001,0.07464411854743958
1733513598660662500,11.79466259765625,-0.5780466198921204,1.4375841617584229,-0.20279626548290253
1733513598670681600,11.804681640625,-0.5817785263061523,1.126279592514038,-0.403957337141037
1733513598680700400,11.814700439453125,-0.5395492911338806,0.9391826391220093,-0.5231916308403015
1733513598690719500,11.824719482421875,-0.5267187356948853,0.7961003184318542,-0.6152917146682739
1733513598700738300,11.83473828125,-0.5877094268798828,0.5812475085258484,-0.7219861149787903
1733513598710757400,11.84475732421875,-0.6374101638793945,0.2072984278202057,-0.8282712697982788
1733513598720776400,11.8547763671875,-0.6621068716049194,-0.1318277269601822,-0.90957111120224
1733513598730795300,11.864795166015625,-0.617904782295227,-0.3100898861885071,-0.9022615551948547
1733513598740814300,11.874814453125,-0.45115694403648376,-0.3369615972042084,-0.558343768119812
1733513598750833400,11.88483349609375,-0.20222784578800201,0.19520457088947296,0.49461179971694946
1733513598760853500,11.894853515625,0.06312192976474762,1.516023874282837,1.3973573446273804
1733513598770872300,11.904872314453126,0.2734229862689972,2.2724177837371826,1.2494525909423828
1733513598780891400,11.914891357421874,0.22683116793632507,2.046208620071411,0.6242991089820862
1733513598790910500,11.924910400390624,0.031200136989355087,1.623071551322937,0.16865195333957672
1733513598800929500,11.934929443359374,-0.18913474678993225,1.3606129884719849,0.06531594693660736
1733513598810948400,11.9449482421875,-0.4125150740146637,1.3097554445266724,0.19772085547447205
1733513598820967400,11.954967529296875,-0.5936686396598816,1.2014832496643066,0.34406977891921997
1733513598830986500,11.964986572265625,-0.7633703351020813,0.7709372043609619,0.3767091929912567
1733513598841005600,11.975005615234375,-0.874305784702301,0.062367599457502365,0.37118402123451233
1733513598851024400,11.9850244140625,-0.7890646457672119,-0.4825116991996765,0.1275295466184616
1733513598861043500,11.99504345703125,-0.5115357637405396,-0.6071904301643372,-0.3147406578063965
1733513598871062500,12.0050625,-0.283541738986969,-0.9375579357147217,-0.8863162994384766
1733513598881082600,12.01508251953125,-0.2646788954734802,-1.7799170017242432,-1.4541157484054565
1733513598891101400,12.025101318359376,-0.37131267786026,-2.314333438873291,-1.6208940744400024
1733513598901120500,12.03512060546875,-0.3351036608219147,-2.1478302478790283,-1.2109639644622803
1733513598911139600,12.0451396484375,-0.04252132773399353,-0.2816694676876068,-1.0435278415679932
1733513598921158700,12.05515869140625,0.26259562373161316,1.6829001903533936,-1.0828934907913208
1733513598931177500,12.065177490234374,0.3710925281047821,1.4191311597824097,-0.41372716426849365
1733513598941196500,12.075196533203124,0.2626039385795593,0.2764210104942322,0.20418992638587952
1733513598951215600,12.085215576171874,0.0319233313202858,-0.6362967491149902,0.25218647718429565
1733513598961234400,12.095234375,-0.1287163496017456,-1.19793701171875,-0.15046758949756622
1733513598971253500,12.10525341796875,0.0181356742978096,-1.4840772151947021,-0.7543960809707642
1733513598981272600,12.1152724609375,0.39759987592697144,-1.5214684009552002,-1.3597475290298462
1733513598991291600,12.125291748046875,0.7603013515472412,-1.3128989934921265,-1.8539880514144897
1733513599001311500,12.1353115234375,1.002906084060669,-1.0345869064331055,-2.1489133834838867
1733513599011330300,12.145330322265625,1.150674819946289,-0.8086498975753784,-2.2140254974365234
1733513599021349400,12.155349365234375,1.218725323677063,-0.5573418736457825,-2.073718547821045
1733513599031368400,12.165368408203125,1.2625620365142822,-0.3588962256908417,-1.746742606163025
1733513599041387500,12.175387451171876,1.2409623861312866,0.026792658492922783,-1.3275821208953857
1733513599051406300,12.18540625,1.156231164932251,0.6023070812225342,-0.9064790606498718
1733513599061425400,12.19542529296875,0.939638614654541,1.0423223972320557,-0.598427414894104
1733513599071444500,12.205444580078124,0.6913209557533264,1.0705004930496216,-0.43768781423568726
1733513599081463300,12.21546337890625,0.5787882208824158,0.6758068203926086,-0.4799627363681793
1733513599091482400,12.225482421875,0.5732256770133972,-0.6061097383499146,-1.5690561532974243
1733513599101501400,12.23550146484375,0.22561410069465637,-1.5155189037322998,-2.751539468765259
1733513599111520500,12.2455205078125,-0.2100154012441635,-1.6838338375091553,-3.054800033569336
1733513599121540600,12.25554052734375,-0.4096360206604004,-1.5134347677230835,-2.618523597717285
1733513599131559400,12.265559326171875,-0.4251782298088074,-1.1477515697479248,-1.8531817197799683
1733513599141578500,12.27557861328125,-0.3586309254169464,-0.7133691906929016,-1.0705465078353882
1733513599151597600,12.28559765625,-0.33846229314804077,-0.22726856172084808,-0.48490196466445923
1733513599161616600,12.29561669921875,-0.3225790560245514,0.1021580696105957,-0.20954331755638123
1733513599171635500,12.305635498046875,-0.3110358715057373,0.2323797196149826,-0.2030460089445114
1733513599181654500,12.315654541015626,-0.28635913133621216,0.1725565642118454,-0.3211202621459961
1733513599191673600,12.325673583984376,-0.2277434766292572,0.019383523613214493,-0.43398794531822205
1733513599201692400,12.3356923828125,-0.16319677233695984,-0.1329646110534668,-0.4833814799785614
1733513599211711500,12.34571142578125,-0.11581088602542877,-0.23536156117916107,-0.4945944547653198
1733513599221730600,12.35573046875,-0.06974313408136368,-0.27238932251930237,-0.4871857762336731
1733513599231749600,12.36574951171875,-0.026635080575942993,-0.2827325165271759,-0.46214619278907776
1733513599241769500,12.37576953125,-0.0015681565273553133,-0.27273058891296387,-0.4190353453159332
1733513599251788300,12.385788330078125,-0.005450246389955282,-0.25840410590171814,-0.39350759983062744
1733513599261807400,12.395807373046875,-0.01809960976243019,-0.2173498570919037,-0.4023101329803467
1733513599271826400,12.405826416015625,-0.037255194038152695,-0.16093558073043823,-0.43112632632255554
1733513599281845200,12.41584521484375,-0.046692658215761185,-0.09493709355592728,-0.4503217935562134
1733513599291864300,12.4258642578125,-0.04258473217487335,-0.03523940220475197,-0.4384169280529022
1733513599301883400,12.43588330078125,-0.021772462874650955,0.039004333317279816,-0.4050479233264923
1733513599311902500,12.44590234375,0.003588286926969886,0.13644886016845703,-0.38941383361816406
1733513599321921300,12.45592138671875,0.03417521342635155,0.2752869427204132,-0.44363710284233093
