time,seconds_elapsed,z,y,x
1733513586888235800,0.02223583984375,0.12509762126505375,-0.16679507478773592,-0.10140146918334066
1733513586898254800,0.0322548828125,0.17640578369796275,-0.18060966512858867,-0.22436419731155036
1733513586908274000,0.04227392578125,0.061953475087881085,-0.11130699632167816,-0.26533538238629695
1733513586918293800,0.052293701171875,-0.0601511018410325,-0.025291677644848822,-0.20185330949164926
1733513586928312800,0.062312744140625,-0.07512099969685077,0.017850129467248916,-0.08572656486332415
1733513586938332000,0.072331787109375,-0.051560968150198457,0.01673719978928566,-0.062146075050532816
1733513586948351000,0.08235107421875,-0.00043079263269901275,0.0026098902374505997,-0.028762860886752603
1733513586958369800,0.092369873046875,-0.0011117606341838836,-0.016302900025248528,-0.022406769858300684
1733513586968388900,0.102388916015625,-0.05079261412620544,-0.019662731847167013,0.038593861484155056
1733513586978408000,0.112407958984375,-0.10558920319676399,-0.005138531932234764,0.07806618630327283
1733513586988427000,0.122427001953125,-0.06067249536663293,-0.012923778980970382,0.018297507908567785
1733513586998445800,0.13244580078125,-0.0008405424773693085,-0.09310615372061729,-0.0946386970501393
1733513587008465000,0.14246484375,0.054961424243450165,-0.08843465477824211,-0.11137757733985781
1733513587018484000,0.15248388671875,0.12684417267143724,-0.04256254591941833,-0.08401092005185783
1733513587028503800,0.16250390625,0.12728548669815062,-0.019852116939425467,-0.07363945590220392
1733513587038522600,0.172522705078125,0.08029138807207345,0.028991116684675217,-0.08157455975040794
1733513587048541700,0.182541748046875,0.025533669707179067,0.034679683715105054,-0.03993460856862366
1733513587058560800,0.192560791015625,0.04730389522761106,-0.013543372184038161,0.03244929431453347
1733513587068579800,0.202579833984375,0.05549509272873401,-0.05715922654867172,0.09726846103183924
1733513587078598700,0.2125986328125,0.03451514080315828,-0.12171791569888592,0.08597177179604769
1733513587088617700,0.22261767578125,-0.040519057393074036,-0.13830197075307368,0.04188676554970443
1733513587098636800,0.23263671875,-0.07054828495383263,-0.10513853681981562,-0.09927271352633833
1733513587108655900,0.24265576171875,-0.0787470812395215,-0.04323708418011665,-0.09687098614685237
1733513587118674700,0.2526748046875,-0.0283469735622406,-0.0357493587732315,-0.07554353595785797
1733513587128693800,0.26269384765625,0.06637567544430494,-0.03134557085633278,-0.10767828443050384
1733513587138713900,0.2727138671875,0.16490297743082047,-0.0015653496205806732,-0.03969086294062436
1733513587148733000,0.28273291015625,0.20625556303858755,0.03742635207474231,0.0854777777340263
1733513587158751700,0.292751708984375,0.10705752218365669,0.05332184034287929,0.05369111204668879
1733513587168770800,0.302770751953125,-0.004869651862978935,0.07460252878069877,-0.07869476653039455
1733513587178790000,0.312789794921875,0.027561960664391517,0.12513619970977305,-0.13470979148000478
1733513587188809000,0.32280908203125,0.15657412502467632,0.09935586176514626,-0.1493601019926369
1733513587198827800,0.332827880859375,0.2543254742026329,0.07208557752370834,-0.051353609009832143
1733513587208846800,0.342846923828125,0.2725745398595929,-0.003619359540939331,0.06414587056562304
1733513587218866000,0.352865966796875,0.17804712116420268,-0.08081190481483935,0.16437223155498504
1733513587228885000,0.362885009765625,0.09983867684602737,-0.12034779638946055,0.1678095855925232
1733513587238903800,0.37290380859375,-0.05477408497780561,-0.11605039145648478,0.12205839969962834
1733513587248924000,0.382923828125,-0.12378186249136924,-0.1341045190632343,0.022688436343893406
1733513587258942700,0.392942626953125,-0.02027297269999981,-0.13461656023859978,-0.140985583813861
1733513587268961800,0.4029619140625,0.005967968493700027,-0.11007307061254977,-0.20535240365378557
1733513587278980600,0.412980712890625,-0.049748658031225204,-0.07760521772801876,-0.1424573368668556
1733513587288999700,0.422999755859375,-0.06912935806661843,-0.008593056300282478,-0.10338614019453525
1733513587299018800,0.433018798828125,-0.07193301731050014,0.021674656191468238,-0.14388802725709973
1733513587309037800,0.443037841796875,-0.1611436248973012,-0.04791793547272682,-0.1497002206671983
1733513587319056600,0.453056640625,-0.22050416088253258,-0.11857844862937926,-0.1561271849747747
1733513587329075700,0.46307568359375,-0.24200550633370874,-0.06622808366715907,-0.22572058035656808
1733513587339094800,0.4730947265625,-0.31410628142654895,0.019283961662650107,-0.16032229857705532
1733513587349113600,0.483113525390625,-0.22177724955826997,0.03583762157857418,-0.010786255495622753
1733513587359133700,0.4931337890625,-0.16465338658392428,0.014041969355940818,0.0730938777834177
1733513587369152800,0.50315283203125,-0.14205927745997904,-0.05462064798176288,0.05453508859016001
1733513587379171800,0.513171875,0.014812661467492579,-0.14685177243351935,-0.06961531495265662
1733513587389191000,0.52319091796875,0.053096507154405115,-0.22048984009623526,-0.14247647995874285
1733513587399209700,0.533209716796875,0.08340776652693747,-0.2628168236941099,-0.12833813755623996
1733513587409228800,0.543228759765625,0.07546352952420711,-0.2375900279790163,-0.08299312131144106
1733513587419247900,0.553247802734375,0.06672521953433752,-0.187985162332654,0.028453429611399766
1733513587429267000,0.563266845703125,0.11722089654058217,-0.08298807981014251,0.17622443578168748
1733513587439285800,0.57328564453125,0.22868805186003446,0.02352583701610565,0.18090002637729047
1733513587449304800,0.583304931640625,0.35191257272958754,0.14831950689852236,0.027480858252197503
1733513587459324000,0.593323974609375,0.36688626997768875,0.2676116567552089,-0.03584865442924201
1733513587469344000,0.603343994140625,0.3804489313840866,0.2849117511242628,-0.09658047876767814
1733513587479362800,0.61336279296875,0.4643114559412002,0.2529559394150972,-0.22487163537703453
1733513587489382000,0.6233818359375,0.4518167160272598,0.21881810749173164,-0.31612127451077104
1733513587499401000,0.63340087890625,0.35421003601700063,0.18020576050281523,-0.28753398938663305
1733513587509420000,0.643419921875,0.3169885588645935,0.14527590141892432,-0.2938305322475731
1733513587519439000,0.653439208984375,0.24050620768666267,0.11290332560241222,-0.3975494115278125
1733513587529458200,0.663458251953125,0.040108138504624365,0.08447042732238769,-0.46346156111359593
1733513587539477000,0.67347705078125,-0.07603519193232058,0.04288812461197376,-0.5439782823741436
1733513587549496000,0.68349609375,-0.09140256467312574,0.007656067711114883,-0.5380594867844134
1733513587559515100,0.69351513671875,-0.01463613585680723,0.0063075757116079325,-0.3767382402978837
1733513587569535200,0.70353515625,0.12765344322770833,0.00005085340440273285,-0.14809607340618966
1733513587579554000,0.713553955078125,0.10128069234788417,-0.01628302628099918,-0.017104279536008835
1733513587589573000,0.723572998046875,0.003170446729660034,-0.05267594365477562,-0.0264992633363232
1733513587599592200,0.73359228515625,-0.020462357792258263,-0.07163608019053935,0.031978425399772824
1733513587609611300,0.743611328125,-0.11989946810007095,-0.10475392141640186,0.09305128172822297
1733513587619630000,0.753630126953125,-0.22148849574476479,-0.14676526319384575,0.06728259768877178
1733513587629649200,0.763649169921875,-0.255190566599369,-0.12357085008919239,0.013776596418023108
1733513587639668200,0.773668212890625,-0.12826046921014786,-0.09928747270405291,-0.06332969534453005
1733513587649687300,0.783687255859375,0.1354120945304632,-0.04647007475197315,-0.15634071812760084
1733513587659706000,0.7937060546875,0.24645985539406537,-0.04867722940742969,-0.04338343384824693
1733513587669725200,0.80372509765625,0.21952596350014209,-0.06812602624297141,0.12957414562460035
1733513587679745300,0.813745361328125,0.206620304697752,-0.10673837323188781,0.19685064236614852
1733513587689764400,0.823764404296875,0.11910042667686939,-0.04084463608562946,0.01714490380734205
1733513587699783200,0.833783203125,0.046781040397286415,0.06253741245567798,-0.29797501164115964
1733513587709802200,0.84380224609375,-0.018394611607491968,0.09062894995212555,-0.33964152203630654
1733513587719821300,0.8538212890625,-0.02026537391543388,0.14605916075110434,-0.2540968165459111
1733513587729840400,0.86384033203125,0.012287819164991378,0.1291822602301836,-0.18968360028099268
1733513587739859200,0.873859130859375,0.0057744917482137675,0.058142392367124554,-0.09564719823924824
1733513587749878300,0.883878173828125,-0.04544014718234539,-0.0032739071041345594,-0.07072002479154617
1733513587759897300,0.8938974609375,-0.13791004882603883,-0.15288170024752615,-0.06540697654262184
1733513587769916400,0.90391650390625,-0.26157880633175373,-0.17679624432027338,-0.0827931965588592
1733513587779936300,0.913936279296875,-0.46648879998028275,-0.1334738199442625,-0.2668501343308016
1733513587789955000,0.923955078125,-0.6824588245645165,-0.19725041880607605,-0.3932433483643457
1733513587799974100,0.93397412109375,-0.8010325970187783,-0.16983458861410616,-0.48678760124128306
1733513587809993200,0.9439931640625,-0.6454647264271974,-0.0240682733297348,-0.4683266098666936
1733513587820012000,0.954011962890625,0.005254267266392707,0.024072364982962606,-0.4203049582911655
1733513587830031000,0.964031005859375,0.5008616097033024,-0.07612754639089107,-0.40392409765888004
1733513587840050200,0.97405029296875,0.4880360303997993,-0.17697393897473812,-0.3317476269813254
1733513587850069200,0.9840693359375,0.7226981882333755,-0.12937515245378017,-0.30427093344759193
1733513587860088000,0.994088134765625,0.8552584004640579,-0.13936229346096515,-0.26695898326644674
1733513587870107100,1.004107177734375,0.5615154003694653,-0.12521335659921168,-0.1580069160404615
1733513587880126200,1.014126220703125,0.39855274335145946,0.042756607186794277,0.05323289255094714
1733513587890145300,1.024145263671875,0.36461657148003573,0.1447019009232521,0.18541553104035555
1733513587900165000,1.0341650390625,0.5382020370602607,0.14678572145998478,1.296083036225289
1733513587910184200,1.04418408203125,0.2019575735837221,0.31751229047775265,0.5690931421473622
1733513587920203300,1.054203369140625,0.25478140127658844,0.19004677103757858,-0.2190177947822958
1733513587930222300,1.064222412109375,0.34779461601674555,0.1274742872685194,-0.40162948391567915
1733513587940241200,1.0742412109375,0.39468496200740333,0.13079320255815982,-0.3629186449883505
1733513587950260200,1.08426025390625,0.35668577848076816,0.12365677480697632,-0.31138014439828693
1733513587960279300,1.094279296875,0.2923071220725775,0.09813245745003223,-0.5669903977144509
1733513587970298400,1.10429833984375,0.35384558661878107,0.040192309656739235,-0.9935534300196915
1733513587980317200,1.114317138671875,0.30634733786284923,-0.008350479716062545,-1.5386803709723054
1733513587990336300,1.124336181640625,0.16152473316937685,-0.022051088288426397,-1.785186695856601
1733513588000355300,1.134355224609375,-0.02286445049792528,-0.07277531335353851,-1.662187508175522
1733513588010375200,1.144375244140625,-0.21000877809226512,-0.2002583684504032,-1.4495502812758088
1733513588020394000,1.15439404296875,-0.3618120354533195,-0.2965232784628868,-1.2331444956228137
1733513588030413000,1.1644130859375,-0.48404374589323995,-0.343631066596508,-1.0171123655878007
1733513588040432000,1.17443212890625,-0.691195380988717,-0.34165538260936734,-0.8258204167947173
1733513588050451200,1.184451171875,-0.9544126021772622,-0.27919804965257644,-0.6248913094758987
1733513588060470000,1.194469970703125,-1.1535703159093855,-0.2522901689827442,-0.5420520270192996
1733513588070489000,1.204489013671875,-1.3114917638897896,-0.2475157941877842,-0.564313506655395
1733513588080508200,1.214508056640625,-1.3616194843664764,-0.2976233486592769,-0.63100599296391
1733513588090527200,1.22452734375,-1.3961147514253853,-0.37254911804497237,-0.6939624345492571
1733513588100546000,1.234546142578125,-1.425813724118471,-0.4664905535459518,-0.7378647777050733
1733513588110566100,1.244566162109375,-1.4358245382621884,-0.4743956275820732,-0.7683242133766413
1733513588120585200,1.254585205078125,-1.4051137581780553,-0.3807756791204214,-0.7105575955193489
1733513588130604300,1.264604248046875,-1.2363494291439652,-0.18125380825102327,-0.4916779305661097
1733513588140623000,1.274623046875,-1.1343649724408984,0.018773089531064033,-0.06969656349532306
1733513588150642200,1.28464208984375,-1.090448673824966,0.1481996799111366,0.33004758159779013
1733513588160661200,1.2946611328125,-1.1581728412687777,0.21719722829163074,0.5271268816206603
1733513588170680300,1.304680419921875,-1.2544970802530646,0.17730828549563885,0.5226855381723493
1733513588180699100,1.31469921875,-1.300022859892249,0.16832886022627352,0.45798817120380697
1733513588190718200,1.32471826171875,-1.4434481650084257,0.42193069632947444,0.3664917907673865
1733513588200737300,1.3347373046875,-1.788662116882205,0.9786720141649246,0.1907389910854399
1733513588210756400,1.34475634765625,-2.3892735561043024,1.7734575334876774,-0.10406403945609927
1733513588220776200,1.354776123046875,-3.084800244295597,2.646475462526083,-0.5716053441639989
1733513588230795300,1.364795166015625,-3.239894067634642,3.2482594526588913,-1.2267863587677479
1733513588240814300,1.374814453125,-3.213694335234165,3.3832705651730297,-1.6515288976475595
1733513588250833200,1.384833251953125,-3.0065245799601077,3.080613313999772,-1.9778147155590353
1733513588260852200,1.394852294921875,-2.6393442954719064,2.4095512049794197,-1.9226197748206555
1733513588270871000,1.40487109375,-1.7372639380782842,1.6171066958248614,-1.1009114695198834
1733513588280890000,1.41489013671875,-0.27383798392415043,0.8243091354489326,0.18148666715882716
1733513588290909200,1.4249091796875,0.9145379801675677,-0.26691549118459224,1.4051055748715995
1733513588300928000,1.434927978515625,1.3388345288455485,-1.7914485327303409,2.363769550883025
1733513588310947000,1.444947021484375,1.14866646951586,-2.9023335531234737,2.8192005118846892
1733513588320966100,1.454966064453125,0.7461211493968963,-2.803452323132753,2.4767662538573143
1733513588330985200,1.464985107421875,0.7211264088720083,-1.6693845800727605,1.7463377636328339
1733513588341005000,1.475005126953125,0.7024053417891264,-0.9085147743552923,1.2890396935850381
1733513588351024000,1.485024169921875,1.2760025173574685,-0.5050590613931417,0.8246864443287253
1733513588361043200,1.495043212890625,2.2072166147768497,-0.5944564237236977,0.7122690756123513
1733513588371062300,1.505062255859375,2.7837288010090586,-1.1857646125495434,0.940638709172979
1733513588381081000,1.5150810546875,3.0067320852309463,-2.0955700112372635,0.8237192067317665
1733513588391100200,1.52510009765625,2.9962025079101324,-2.9198113421469927,0.369747285431996
1733513588401119200,1.535119140625,2.7643916478544472,-3.427296753904223,-0.10034479973725974
1733513588411138300,1.54513818359375,2.5672271537661553,-3.5878619943916794,-0.5999664193168283
1733513588421157000,1.5551572265625,2.447273325130343,-3.480601058590412,-1.1134347048759459
1733513588431176200,1.56517626953125,2.3032883403047917,-3.215460760384798,-1.6041151123046875
1733513588441195300,1.5751953125,2.1772738964557647,-2.8535645537793632,-1.9426811505965886
1733513588451215400,1.58521533203125,1.9088304650515318,-2.4216478854864834,-2.093735489286482
1733513588461234200,1.595234130859375,1.520429113358259,-1.8704887516975401,-1.9048487019389866
1733513588471253200,1.605253173828125,1.3351806825131176,-1.599939872446656,-1.7463301648482679
1733513588481272300,1.615272216796875,1.3571701037421822,-1.3365923028767108,-1.5165217306561767
1733513588491291400,1.62529150390625,1.3386129950493573,-1.0587421607017518,-0.9701233815282583
1733513588501310200,1.635310302734375,1.1158470267146825,-0.9849491947382688,-0.29515922356806695
1733513588511329300,1.645329345703125,0.8989251082330941,-1.3225304597765206,0.08005969820804894
1733513588521348400,1.655348388671875,0.6930243499815464,-1.4850065023213623,0.38902364831008013
1733513588531367400,1.665367431640625,0.582064559662342,-1.542680692654848,0.6270064019337296
1733513588541386200,1.67538623046875,0.46909401404261586,-1.5660072077065705,0.7682843928229063
1733513588551405300,1.6854052734375,-0.15684300509393215,-1.3635539595603943,0.8724209129933267
1733513588561425200,1.695425048828125,-2.4743638688907024,-0.6197632989376783,1.146311211626604
1733513588571444200,1.7054443359375,-6.17818594610691,0.8833008381217717,1.5972592550605536
1733513588581463300,1.71546337890625,-9.227082517850398,2.565368374156952,2.3465233786582944
1733513588591482000,1.725482177734375,-9.409559145894645,2.8027690170437096,2.9428324445113536
1733513588601501200,1.735501220703125,-8.038896815633773,1.7609318139135837,2.9012808292001484
1733513588611520300,1.745520263671875,-6.458102373161911,1.0208405923306942,3.037550125081837
1733513588621539300,1.755539306640625,-3.8330209963202475,1.6321049429923296,4.873982001137733
1733513588631558100,1.76555810546875,-0.7703478281587361,2.310682834470272,6.763141551035642
1733513588641577200,1.7755771484375,0.835668149331212,2.0326807166039944,6.808535520988702
1733513588651596300,1.78559619140625,1.2143851423561571,1.0181780951231718,6.388956940743327
1733513588661615400,1.795615478515625,1.7206278605759142,-0.6515449231237173,5.593479932025074
1733513588671634200,1.80563427734375,1.8032833474308252,-2.399764554980397,3.26152225433588
1733513588681654300,1.815654296875,0.8200643374860286,-3.3499674305081366,0.2815283192310482
1733513588691673300,1.82567333984375,-0.9612859950780868,-2.8674381808310745,-1.3488219621136783
1733513588701692400,1.8356923828125,1.0728472584217785,-1.2073720487236976,-1.8688658266708253
1733513588711711200,1.845711181640625,3.2287644785940643,-0.15453355910778044,-3.1055548630326983
1733513588721730300,1.855730224609375,3.380353216421604,0.7012526646226644,-3.9591301327154036
1733513588731749400,1.865749267578125,2.81449861780405,1.77501937597692,-4.487273424836993
1733513588741768400,1.8757685546875,0.753048318311572,2.5931933696717024,-5.557409670734406
1733513588751787300,1.885787353515625,0.04600947150290012,2.944941107228398,-5.705360344320535
1733513588761806300,1.895806396484375,0.5457189885616303,2.284155477550626,-4.698228836129606
1733513588771825400,1.905825439453125,0.45206689139604567,1.063661496925354,-3.0795979994773863
1733513588781844500,1.915844482421875,0.2874894926577806,0.05680500628352165,-1.3214983402498066
1733513588791864300,1.9258642578125,0.6121063544437289,-0.9452572358191013,-0.040908275906369085
1733513588801883100,1.935883056640625,1.0387570650324225,-1.933093384170532,0.7877739600602537
1733513588811902200,1.945902099609375,1.162471122984588,-2.324810144022107,1.2558945259608327
1733513588821921300,1.95592138671875,0.9127595723181963,-2.4793115544259545,1.2181102272938937
1733513588831940000,1.965940185546875,1.0142682282030582,-2.089131502622366,1.0425960586734115
1733513588841959200,1.975959228515625,1.0076444261491297,-1.252077451890707,0.8635140415035187
1733513588851978200,1.985978271484375,0.9752794491171837,-0.25045301668345926,0.4058526911012828
1733513588861997300,1.995997314453125,1.029101055675745,0.8057119870066642,-0.19435657879440113
1733513588872016100,2.00601611328125,1.0360720637321472,1.7865093227624893,-0.781967977195233
1733513588882035200,2.01603515625,1.1145587404698132,2.499339612454176,-1.2579609569713472
1733513588892054300,2.02605419921875,1.0089353427425027,2.6190555406808853,-1.6433105198785662
1733513588902073300,2.0360732421875,0.9963222371459006,2.0439666652500628,-1.6219769322097302
1733513588912093200,2.04609326171875,1.1519196260929108,1.123476206418872,-1.134386745881289
1733513588922112300,2.0561123046875,1.2278916896611451,0.32232758180499077,-0.6160355105862021
1733513588932131300,2.06613134765625,1.3092910389751196,-0.04913315648138523,-0.27161395119912923
1733513588942150400,2.076150390625,1.231306466540694,0.04411854318976402,0.02996869301255792
1733513588952169200,2.086169189453125,0.9648170918136835,0.27679449564218517,0.21900778484493494
1733513588962188300,2.096188232421875,0.8434095572382211,0.5409288316756486,0.16769779578112065
1733513588972207400,2.106207275390625,0.8894602375343441,0.7818804450422525,-0.11051146202981471
1733513588982226400,2.116226318359375,1.0548182652562856,0.8486749304205179,-0.5124713469436392
1733513588992245200,2.126245361328125,1.2024550505876541,0.9290560426026582,-0.9940589683890342
1733513589002264300,2.136264404296875,1.2855667567774653,1.1259136626988648,-1.3541473949201404
1733513589012283400,2.146283447265625,1.3632219511270522,1.1801491107553244,-1.6651289684548973
1733513589022303200,2.15630322265625,1.424370539572835,1.0697247424870728,-1.9869613140888511
1733513589032322000,2.166322021484375,1.346213825441897,1.0898223586201667,-2.0802675204262138
1733513589042341000,2.176341064453125,1.141710366767645,1.1844681429982185,-1.7674011560581624
1733513589052360200,2.186360107421875,0.9102765233308077,1.1227537373632193,-1.1471361912086606
1733513589062379300,2.196379150390625,0.6885200242996216,0.7558657138198613,-0.3822297869188711
1733513589072398000,2.206398193359375,0.4611147057265043,0.21469605912566184,0.4931711647985503
1733513589082417200,2.216417236328125,0.1805389379799366,-0.2630804430663585,1.256311874590069
1733513589092436200,2.226436279296875,-0.08217325629591941,-0.5412257687956095,1.7792533602848648
1733513589102455300,2.236455322265625,-0.32133331007063387,-0.5565712219655513,2.0514565826140343
1733513589112474000,2.24647412109375,-0.3287897635564208,-0.5095411752432585,1.927349287560582
1733513589122493200,2.2564931640625,-0.3230447901636362,-0.48659343037605285,1.5979682801127433
1733513589132512300,2.26651220703125,-0.41375557318031786,-0.5415291356563567,1.186161283716932
1733513589142532400,2.276532470703125,-0.5111129546046257,-0.6303051512181759,0.8348886893913149
1733513589152551200,2.28655126953125,-0.6810752612516283,-0.6479115350574255,0.6505079082261771
1733513589162570200,2.2965703125,-0.9551111058354377,-0.6324819107353687,0.506759800896421
1733513589172589300,2.30658935546875,-1.3143176349654793,-0.5568880328297615,0.5211712976844981
1733513589182608400,2.3166083984375,-1.5296011385902761,-0.6022662206918001,0.7801305326350033
1733513589192627200,2.326627197265625,-1.6956623461455105,-0.8516688515394926,1.0619856726676224
1733513589202646300,2.336646240234375,-2.0442606797605753,-1.2308756739079951,1.2329593483142554
1733513589212665300,2.346665283203125,-2.2077660653531552,-1.6406056448340416,1.2173835204545407
1733513589222684400,2.356684326171875,-1.702227988271415,-1.9610826303362845,0.9500922547601163
1733513589232703200,2.366703125,-1.156691370539367,-2.1165181067198513,0.5122620515745133
1733513589242722300,2.376722412109375,-1.0347796858340501,-2.10437934063673,0.1945968903562985
1733513589252742400,2.386742431640625,-0.8486094639688729,-1.878193334725499,-0.09030501522738486
1733513589262761500,2.396761474609375,-0.4297194505095482,-1.4675632000893353,-0.31533911115713414
1733513589272780300,2.4067802734375,0.17258388732224703,-0.9653373162955046,-0.6508399897247552
1733513589282799400,2.41679931640625,0.963008873347938,-0.25737667846679685,-1.371155958996713
1733513589292818400,2.426818359375,1.4455483521580694,0.7998761204600334,-2.1611877079211173
1733513589302837200,2.436837158203125,1.210336743748188,2.0353607494682073,-2.5277356858551503
1733513589312856300,2.446856201171875,0.46835079445987937,2.951504703527689,-2.3556530260533095
1733513589322875100,2.456875244140625,-0.3153568660095334,2.94601955011487,-1.7550028622560203
1733513589332894200,2.466894287109375,-0.7754603488668799,2.100783361971378,-1.21400483780168
1733513589342913300,2.476913330078125,-0.8298074406042695,1.1134966641962527,-0.9493045384485274
1733513589352932000,2.48693212890625,-0.5482400314718484,0.4206114304244518,-0.7072668834108858
1733513589362951200,2.496951171875,-0.03728606682121754,0.14312076921164987,-0.54456762656942
1733513589372971300,2.50697119140625,-0.33670565124750135,0.12095336106717586,-0.655182110582292
1733513589382990300,2.516990234375,-0.9884183321535587,0.32054537456333637,-0.7322957454010843
1733513589393009200,2.527009033203125,-1.3525734236016869,0.5527782594233751,-0.36859548504836853
1733513589403028200,2.5370283203125,-2.0609934956356883,0.5721715266793966,0.029493230121070517
1733513589413047300,2.54704736328125,-3.3234678383782503,0.7594494175255299,0.3075851725621149
1733513589423066400,2.55706640625,-4.046926489590108,1.3065215742617844,0.35828466504476963
1733513589433085200,2.567085205078125,-4.41422630880475,1.8148276547521351,0.3076078593179583
1733513589443104300,2.577104248046875,-4.761314822378754,2.044663999864459,0.2643141861123964
1733513589453123300,2.587123291015625,-5.029776958483457,2.2498773603737354,0.7576986283354461
1733513589463142400,2.597142333984375,-5.721310777646303,1.8792647633492945,0.8135829395774752
1733513589473161200,2.6071611328125,-5.290638556456566,1.747596531522274,1.336847446681559
1733513589483181300,2.617181396484375,-4.880551734916866,1.3785609745562075,1.6671227726206181
1733513589493200400,2.627200439453125,-4.562413713756204,0.7179968786746264,1.641108041398227
1733513589503219500,2.637219482421875,-3.732460434940457,1.2990396940737963,2.201165351913869
1733513589513238500,2.647238525390625,-3.5167718576461073,1.010715504157543,1.917439449573308
1733513589523257600,2.657257568359375,-2.205848833554983,0.6053332070469856,1.525333398143202
1733513589533276400,2.6672763671875,-0.930554172205925,1.0562029976129532,1.43739295662269
1733513589543295500,2.67729541015625,-0.03466214805841446,0.7300701783061027,1.5803570739679038
1733513589553314600,2.687314453125,1.4122732745438813,-0.018877134427428246,1.856046384847164
1733513589563333600,2.697333740234375,2.7077473850905895,-0.3749456577926874,1.8696116766020654
1733513589573352400,2.7073525390625,3.544198209232092,-0.7860966014325619,1.6583157813087104
1733513589583371500,2.71737158203125,3.7521693440169095,-1.2604542350918053,0.8191750604961067
1733513589593390600,2.727390625,3.0916756830230354,-1.4199100530326365,-0.46247152716293927
1733513589603410400,2.737410400390625,3.349147638557851,-0.6499830806344747,-0.5988847615599632
1733513589613429200,2.74742919921875,4.037023227474093,0.2592179224193096,-0.06025931145586073
1733513589623448300,2.7574482421875,4.5394358660116785,0.09850888954699039,-0.04697568618655205
1733513589633467400,2.76746728515625,5.1377399050742385,-0.2789513814151287,0.010275091103091836
1733513589643486500,2.777486572265625,4.749160858726501,-0.37073768470883367,0.6176207339510321
1733513589653505300,2.78750537109375,3.919951676276326,0.20668577114939687,1.554752823242545
1733513589663524400,2.7975244140625,3.4129657384738326,0.6048468848347663,1.6894532623723149
1733513589673543400,2.80754345703125,3.328381037122011,0.8062854029804468,1.178326060046628
1733513589683562500,2.8175625,3.3217969825565814,0.9045844491690397,0.530854816102609
1733513589693581300,2.827581298828125,3.3385675000935793,0.8154764251738786,0.17782566043324768
1733513589703600400,2.837600341796875,3.295314633822441,0.558175734552741,0.07385368317477405
1733513589713620500,2.847620361328125,3.09632058621943,0.197239312890172,0.2505463209901005
1733513589723639600,2.8576396484375,2.8184160835087297,-0.30730887637138365,0.559059458584711
1733513589733658400,2.867658447265625,2.486407942427695,-0.9149959530681371,0.729246806159243
1733513589743677400,2.877677490234375,2.0837012942671773,-1.4911667785167693,0.6436809848155826
1733513589753696500,2.887696533203125,1.8577368221521378,-1.8923551310688256,0.36220045024901626
1733513589763715600,2.897715576171875,1.8843688084900378,-2.0686106926411387,0.089769264382869
1733513589773734400,2.907734375,1.7476538146674632,-2.0382541328221557,0.013501067412272095
1733513589783753500,2.91775341796875,1.401578277528286,-2.1246610811650752,-0.11645509979985653
1733513589793772500,2.9277724609375,1.1114601899325847,-2.2812983345538376,-0.35207200107499953
1733513589803791600,2.93779150390625,0.8613777601271867,-2.082799376991391,-0.38814730386696755
1733513589813810400,2.947810546875,0.425875926823914,-2.2681354861199856,-1.1510365596480667
1733513589823829500,2.95782958984375,0.11937339839935301,-2.3486703275591134,-1.8342831735894083
1733513589833849300,2.967849365234375,-0.25623452269434926,-2.1054361562132833,-2.211410267074406
1733513589843868400,2.977868408203125,-0.6490811633586883,-1.94825997364223,-2.5690561227589845
1733513589853887200,2.98788720703125,-0.852028040240705,-1.9328870479434728,-2.766859499272704
1733513589863906300,2.99790625,-1.4568424841105938,-1.2934668623775243,-2.634536895190179
1733513589873925400,3.00792529296875,-3.1147657589703797,-0.7201303835719823,-2.6824878561496734
1733513589883944400,3.0179443359375,-5.36672226370573,-0.047935471129417415,-2.9087945658311245
1733513589893963300,3.02796337890625,-8.508453771013022,1.2410884403645992,-3.0598043347269295
1733513589903982300,3.037982421875,-12.2106424018085,2.488507252794504,-1.782476560115069
1733513589914001400,3.04800146484375,-11.317418135565518,2.0453432143002748,1.238871056576073
1733513589924020200,3.058020263671875,-4.997108030068874,-0.3970534447044134,3.940288069601357
1733513589934039300,3.068039306640625,-1.5190449655234812,-2.0313053365975615,5.680675984919071
1733513589944059400,3.078059326171875,-0.197425775372982,-1.6877245388835667,6.6211974243879315
1733513589954078500,3.088078369140625,1.2703659727752208,-1.0096429064899684,6.214402337870001
1733513589964097500,3.09809765625,2.5589661058992146,-0.9528238716810941,4.432231336572766
1733513589974116400,3.108116455078125,2.8406431128859517,-1.5096780022412537,2.5981588831245896
1733513589984135400,3.118135498046875,2.386894552013278,-2.1723563137978315,1.056838957428932
1733513589994154500,3.128154541015625,2.860585246196389,-2.4505349572747943,-0.12083355234609916
1733513590004173600,3.138173583984375,3.726138538442552,-2.7159792068630457,-1.4492605045489966
1733513590014192400,3.1481923828125,1.9612410357683896,-2.848146035861969,-2.462876552453637
1733513590024211500,3.15821142578125,-2.3749662138104437,-1.792190875530243,-1.3916796915873884
1733513590034230500,3.16823046875,-3.5586809080928563,0.3296037102878093,0.18812959403833374
1733513590044249300,3.178249267578125,-0.049560441982746124,1.5871651465475558,0.21196327316090463
1733513590054268400,3.188268310546875,2.4485981439933178,1.718821103414893,0.22052016216926276
1733513590064288300,3.198288330078125,3.0404847172290084,1.345133921250701,0.12460823031291365
1733513590074307300,3.208307373046875,2.5974744079917667,0.8796633584022522,-0.22565036466456947
1733513590084326400,3.218326416015625,2.159992214526236,0.37928339473605155,-0.9208576847083866
1733513590094345200,3.22834521484375,2.082342865395546,0.05059621477127075,-1.7492774703465401
1733513590104364300,3.2383642578125,2.4924600820735097,0.18306173445582388,-2.2088632129400967
1733513590114383400,3.24838330078125,3.124869219833612,0.6161556298345326,-2.434886721765995
1733513590124402400,3.25840234375,3.590167933246493,1.096267296975851,-2.627400175178051
1733513590134421200,3.268421142578125,3.604045067429542,1.4222849654704333,-2.940780480417609
1733513590144440300,3.2784404296875,3.2835756807118655,1.529336642435193,-3.2897783347442746
1733513590154459400,3.28845947265625,2.635598679202795,1.4124199895381926,-3.4015190463081
1733513590164478200,3.298478271484375,1.4604729495674371,1.3253829265981911,-2.94424727974534
1733513590174497300,3.308497314453125,-0.04076820984855294,1.2360884401202201,-1.197176744858548
1733513590184517400,3.318517333984375,-1.2754742556996643,1.041857661396265,0.639570115430653
1733513590194536400,3.328536376953125,-1.4228710947953165,0.7506687296986579,2.125365283911675
1733513590204555500,3.338555419921875,-0.7845131316334009,0.38786592964231964,3.3417686342224475
1733513590214574300,3.34857421875,-0.06715031307861208,-0.013636895686388015,4.041789418962598
1733513590224593400,3.358593505859375,0.4382347653985023,-0.49992462111413477,4.252229574209451
1733513590234612500,3.368612548828125,0.7220598172646016,-0.7880833913356066,3.5244515984937546
1733513590244631300,3.37863134765625,0.9200496562611311,-0.7857815441340208,2.546924662710726
1733513590254650400,3.388650390625,1.0023667780071497,-0.6138654730707407,1.8057621586345136
1733513590264669400,3.39866943359375,0.9280061682235449,-0.23595395120978355,1.2746617702729999
1733513590274688500,3.4086884765625,0.9784925659447908,0.2323918748140335,0.49976380452923475
1733513590284707300,3.418707275390625,1.1120260071218013,0.7183996142566204,-0.9049434186745434
1733513590294727400,3.4287275390625,0.9550006311982869,0.9880518369287252,-1.7540496531844139
1733513590304746500,3.43874658203125,0.6288052680492401,1.104320255050063,-2.2617250345557927
1733513590314765600,3.448765625,0.1407610360766761,1.2064940968453883,-2.8440374314993617
1733513590324784600,3.45878466796875,-0.19386022837851197,1.2847171542108058,-3.5706352575197813
1733513590334803500,3.468803466796875,-0.4522445129852742,1.302740302157402,-4.4943335724815725
1733513590344822500,3.478822509765625,-1.1010158797424285,0.931844796538353,-4.294367464976013
1733513590354841300,3.48884130859375,-1.9691431871950624,0.8628180220633744,-3.3276275884062048
1733513590364860400,3.4988603515625,-2.3042308818519115,0.5681506006002426,-2.424820962564647
1733513590374879500,3.50887939453125,-2.462580199855566,0.243968915361166,-1.3807820116065441
1733513590384898300,3.518898193359375,-2.5159739363908766,-0.07205927403867245,-0.31539690575897694
1733513590394917400,3.52891748046875,-2.539891403073072,-0.664764470180869,0.6367588574022054
1733513590404936200,3.538936279296875,-2.570256146198511,-1.314071843510866,1.3316048698529601
1733513590414956300,3.548956298828125,-2.5233763216018676,-1.8259768252760171,1.6543622213773428
1733513590424975400,3.558975341796875,-2.4876632031857966,-2.17140763477087,1.7359443799123166
1733513590434994400,3.568994384765625,-2.448564533984661,-2.21012519569993,1.8302599094226955
1733513590445013500,3.579013427734375,-2.371559766367823,-1.8335382004410028,2.0059712811157104
1733513590455032300,3.5890322265625,-2.2445525120891627,-1.0712579434037208,2.0586209212854505
1733513590465051400,3.599051513671875,-2.0658875512875614,-0.19045535183846948,1.7525956549838184
1733513590475070500,3.609070556640625,-1.927820996725559,0.5933545999616384,1.111922254486382
1733513590485089300,3.61908935546875,-1.8901872855104505,1.3365776898294686,0.31876294812597333
1733513590495108400,3.6291083984375,-2.0256302135705946,1.9619892237871883,-0.6102540045753121
1733513590505127400,3.63912744140625,-2.285540209907293,2.5123300269305706,-1.5170026460409163
1733513590515147300,3.649147216796875,-2.6417276834771037,3.043865007317066,-2.339017533072829
1733513590525166300,3.659166259765625,-3.0597020433962343,3.486188503333926,-3.117296446491778
1733513590535186200,3.669186279296875,-3.6265740023627875,3.88495693526268,-3.998166550335288
1733513590545205200,3.679205322265625,-4.318927905736864,4.029806720224022,-4.896717272298038
1733513590555224300,3.689224365234375,-5.1038499104321,3.9556419983386992,-5.484741324886679
1733513590565243100,3.6992431640625,-5.850103161776065,3.8654292279720304,-5.98249152457118
1733513590575262200,3.70926220703125,-6.825171013969182,3.70039590215981,-5.77092616468668
1733513590585281300,3.71928125,-8.44295692422986,3.6666280725926157,-4.816551848693192
1733513590595300400,3.72930029296875,-12.184617149192094,3.628091128927469,-2.16167724500373
1733513590605319200,3.739319091796875,-17.653024009871483,4.032238915807008,1.7539178434982894
1733513590615338200,3.749338134765625,-21.756914787960053,5.599374835282564,3.741164258138835
1733513590625357300,3.759357421875,-20.629238791763783,6.9507713240593665,2.388024725086987
1733513590635376000,3.769376220703125,-14.337792377179861,6.425275039315223,2.2662793368592857
1733513590645396200,3.779396240234375,-8.998758915388583,4.96817127391994,2.855024104937911
1733513590655415300,3.789415283203125,-5.503120446664094,3.838094646322727,2.771182623168826
1733513590665434400,3.799434326171875,-3.2043013607278463,3.323595556411147,2.4747069832399484
1733513590675453400,3.809453369140625,-1.5730711547434328,3.2624066359549757,1.9441528305843472
1733513590685472300,3.81947216796875,-0.15071443921104072,3.232643365854025,1.3604928184241056
1733513590695491300,3.8294912109375,1.2513807017982006,3.2853374296873805,0.8946298952572047
1733513590705510400,3.839510498046875,2.707527604860067,3.748048464694619,0.5488472035847604
1733513590715529200,3.849529296875,4.258040890836716,4.474717894646525,0.26273557515144347
1733513590725548300,3.85954833984375,5.488728348696232,5.386672580322623,0.23936536708846687
1733513590735567400,3.8695673828125,6.140094992643594,6.132900112703442,0.848856570597738
1733513590745586400,3.87958642578125,6.782136174362898,6.6580094439566135,1.0129146216370164
1733513590755605200,3.889605224609375,7.880795334911346,6.676690179029107,0.38428500241562724
1733513590765625300,3.899625244140625,8.583819100859762,5.921163487905264,-0.5810119818694889
1733513590775644400,3.90964453125,8.248097784474492,4.994524443316459,-1.5363102808400988
1733513590785663500,3.91966357421875,6.1659109864234924,3.677500764262676,-1.7236644517928361
1733513590795682300,3.929682373046875,4.011934963446856,2.2136954554021355,-1.810234189482033
1733513590805701400,3.939701416015625,0.05081541047990322,0.9885457579255104,-3.0319074430197475
1733513590815720200,3.94972021484375,-7.104847202527522,0.40925943080484867,-5.4077340730518095
1733513590825739300,3.9597392578125,-2.549506788158417,0.4611503615617752,-3.0452418486282227
1733513590835758300,3.96975830078125,1.3778772300757467,0.750845839831233,-1.2924115081056953
1733513590845777200,3.979777099609375,2.2156547727763654,0.8744166899204253,-0.1397556766927242
1733513590855796200,3.989796142578125,3.708385439608991,0.14048516001105307,0.708202995217219
1733513590865815300,3.999815185546875,5.446185676521062,-0.19517127444446086,-0.1853584670908749
1733513590875835400,4.00983544921875,7.236731122931838,-0.6505249324262142,-1.6121632480733095
1733513590885854200,4.019854248046875,8.753414035499095,-1.4308020339250564,-1.9384170634113251
1733513590895873300,4.029873291015625,9.066895463025569,-2.574841720423102,-1.9591748970188199
1733513590905892400,4.039892333984375,8.370621171337365,-3.566702886506915,-1.860475599466264
1733513590915911400,4.049911376953125,7.754946603018045,-4.147702447286248,-1.9327844643518328
1733513590925930200,4.05993017578125,7.826718876808881,-4.499524419122934,-2.0977742432832716
1733513590935949300,4.06994921875,8.217594509661197,-4.791407178303599,-2.0183618300028145
1733513590945968400,4.079968505859375,8.572290575629472,-4.957761523586512,-1.7982373160876333
1733513590955987200,4.0899873046875,8.68048382384479,-5.304737808957696,-1.4685104178115724
1733513590966006300,4.10000634765625,8.461572777372599,-5.5102282328426835,-1.0296896692186592
1733513590976025300,4.110025390625,7.921513714268803,-5.863650041091442,-0.6878109992474317
1733513590986044400,4.12004443359375,7.461867327529191,-6.072398005467653,-0.42404052809029813
1733513590996064500,4.130064453125,6.9766942853450775,-6.03577478646934,-0.2099154007203877
1733513591006083300,4.140083251953125,6.200692376947402,-6.128289988559484,0.00409063031449914
1733513591016102400,4.150102294921875,5.560080935770273,-5.734308206385374,-0.13667334663793443
1733513591026121500,4.16012158203125,4.598856315490603,-4.965980485877394,-0.19352197286747394
1733513591036140300,4.170140380859375,2.993392711186409,-3.5598072817742823,-0.25628216122835873
1733513591046159400,4.180159423828125,0.24030454763472078,-1.1929226676106452,0.1889876904387027
1733513591056178400,4.190178466796875,-7.365436413300037,2.979789133247733,2.2219167557805775
1733513591066197500,4.200197509765625,-23.250492134749887,10.083573090457916,4.659453115272521
1733513591076216300,4.21021630859375,-25.540576417827605,12.804112152582407,6.887689137202501
1733513591086235400,4.2202353515625,-13.686907379269599,7.080763147106766,7.172515548130869
1733513591096254500,4.23025439453125,-7.545399012696743,2.0828882243186233,5.226836823153495
1733513591106273500,4.2402734375,-6.321497853976488,-1.27917004147768,3.117249392479658
1733513591116293400,4.25029345703125,-7.949919724541902,-3.6964644079297777,1.0553452848050742
1733513591126312200,4.260312255859375,-10.856072543692589,-3.884112301132083,0.03823123871684074
1733513591136331300,4.270331298828125,-4.108801931005716,-2.9794805056899785,0.4040900653429329
1733513591146350300,4.280350341796875,4.002420700648427,-0.03250643132925033,1.748198589068651
1733513591156369200,4.290369140625,7.931891315898299,3.5428830349802967,2.256669504731893
1733513591166388200,4.30038818359375,10.031500373393296,5.588409789153933,1.6566729825377464
1733513591176407300,4.3104072265625,10.367481217497586,6.003941139835119,1.1964200812723487
1733513591186426400,4.32042626953125,10.317892718464135,4.932413731840253,0.7456511207323521
1733513591196445200,4.330445068359375,9.448577151075005,1.549804845446348,-0.12544592324607073
1733513591206464300,4.34046435546875,8.666127381712197,-2.5631214720129964,-0.9436710626062005
1733513591216483300,4.3504833984375,8.636980782204866,-5.1681373814255,-1.0496228885702787
1733513591226503400,4.36050341796875,8.950673806655406,-5.761664999866485,-0.6256310949925333
1733513591236522500,4.3705224609375,8.835661526075006,-4.803420856702328,-0.07672419710978866
1733513591246541300,4.380541259765625,7.772974427139759,-2.893264696004987,0.307736673329398
1733513591256560400,4.390560302734375,5.7692480023413895,-0.09180383895039558,1.0082510868053882
1733513591266579500,4.400579345703125,5.003658182364702,2.370555411630869,0.6643596887722611
1733513591276598300,4.410598388671875,4.786014379349351,3.8044308616518974,-0.09601678047031163
1733513591286617300,4.420617431640625,4.511053528875112,4.193656389209628,-1.4378354396931827
1733513591296636400,4.430636474609375,4.700997424060106,3.97514807831943,-3.515351469454169
1733513591306655500,4.440655517578125,4.409250858479738,3.4412264950573443,-3.765096630129218
1733513591316674300,4.45067431640625,3.838161866340041,2.934691515892744,-3.2774709340959784
1733513591326693400,4.460693359375,2.9376620561361313,2.1746014623761174,-2.495797409802675
1733513591336712400,4.47071240234375,1.4790589920938013,1.0746341418385505,-1.389599378181994
1733513591346732300,4.480732177734375,-0.21830255918502806,0.6242723007947206,-0.9904152050592004
1733513591356751000,4.490751220703125,-1.52788761267066,0.7716986582458019,-0.81744611781165
1733513591366770200,4.500770263671875,-2.43416775984168,0.6245154619008302,-0.12358444022312759
1733513591376789200,4.510789306640625,-2.925647793215513,0.4318827660232782,0.42191790991313755
1733513591386808300,4.520808349609375,-3.3271360054969787,0.3736234692782163,0.24938414534293113
1733513591396827100,4.5308271484375,-3.649585167855024,0.3064958064228296,-0.045656566412001845
1733513591406846200,4.54084619140625,-3.841591256266832,0.28073826483190056,-0.16891294372454285
1733513591416865300,4.550865234375,-3.922710035073757,0.5067658653110265,-0.4191986410170793
1733513591426884400,4.56088427734375,-3.8890591098845,0.7876572748780251,-0.854517811229825
1733513591436903200,4.570903076171875,-3.6342452676430343,0.8267886773049831,-1.2910098246142268
1733513591446922200,4.580922119140625,-3.2677325071528553,0.5553425569534302,-1.4952774287059902
1733513591456941300,4.59094140625,-2.8934698631882667,0.09976210447847843,-1.6347988582514226
1733513591466961400,4.60096142578125,-2.497041564644873,-0.41644554291665553,-1.8569534166894852
1733513591476980200,4.610980224609375,-2.1263611630812287,-0.8964707008183002,-2.1023003424055875
1733513591486999300,4.620999267578125,-1.816200696671009,-1.2555325607806442,-2.3210521066628393
1733513591497018400,4.631018310546875,-1.5747697753548622,-1.5381459718346595,-2.3649384485319254
1733513591507037400,4.641037353515625,-1.3881217068448661,-1.8589555502921342,-2.1492313126675784
1733513591517055000,4.651054931640625,-1.2368635161459445,-2.235312243926525,-1.5388172952249646
1733513591527074000,4.661073974609375,-1.1132255921699106,-2.395197100934386,-0.6041008157078176
1733513591537092900,4.6710927734375,-0.8006511964857578,-2.0786194609582425,0.32731457643732426
1733513591547112000,4.68111181640625,-0.4266062869250774,-1.1769278106212615,1.0078723166208714
1733513591557131000,4.691131103515625,-0.14941139378845691,0.12552782937586307,1.4926703149475156
1733513591567150000,4.701150146484375,-0.1183241816073656,1.2150970900177955,1.7704864087224006
1733513591577169000,4.7111689453125,-0.5067182267770171,1.5844278305381536,1.6389669377163052
1733513591587189000,4.72118896484375,-1.3243793025135993,1.4223814115822315,1.3809218584686518
1733513591597208000,4.7312080078125,-2.1339871279150247,1.8534551993101833,1.184356426252052
1733513591607227100,4.74122705078125,-2.563601656745374,3.277699482154846,0.17240867688581346
1733513591617246000,4.751245849609375,-3.9012148271024225,5.171370371997356,-1.7068443960256874
1733513591627265000,4.76126513671875,-6.377516678318381,7.083093635880947,-3.8120530270934103
1733513591637284000,4.7712841796875,-8.282506834554672,8.17935391859412,-5.94537847622931
1733513591647303200,4.78130322265625,-9.98147465198636,7.830259910416602,-7.2630737709343425
1733513591657322000,4.791322021484375,-12.989753966659308,6.19088702224791,-6.401552802944183
1733513591667341000,4.801341064453125,-19.690300237572192,3.8528479788184162,-2.8689073766008018
1733513591677360000,4.811360107421875,-23.446136287403107,2.9143261887341736,0.5895540386348962
1733513591687379200,4.821379150390625,-20.095313116848466,3.9950188999593257,1.1854964631326497
1733513591697398000,4.83139794921875,-17.908579318130016,5.678110518345236,2.0821540648251773
1733513591707417900,4.84141796875,-12.589724721014498,6.284145151659846,2.6433628834635017
1733513591717437000,4.85143701171875,-9.062602734267712,5.9497764189273115,3.1999583630874753
1733513591727456000,4.8614560546875,-6.039143386119604,4.918078332495689,2.875128150811791
1733513591737474800,4.871474853515625,-2.5547291989818213,4.111055847412348,1.9494990139178932
1733513591747494000,4.881493896484375,0.8718655441328883,3.9189655878484246,1.1315794333755969
1733513591757513000,4.891512939453125,3.586941956937313,4.357021489548683,0.416396150816977
1733513591767532000,4.901531982421875,5.458724840098619,4.949840667459369,-0.33669805246293544
1733513591777550800,4.91155078125,7.394280230468511,5.945400688061118,-0.8234343984410166
1733513591787570000,4.92156982421875,9.028516924792527,6.758202341067791,-0.6959399451673031
1733513591797589000,4.931589111328125,9.486156647884846,6.728073744785785,0.14714096463844178
1733513591807608000,4.941608154296875,9.12588482761085,6.0726721462339155,1.224666444004327
1733513591817628200,4.951628173828125,8.61147926120162,5.687644654887914,1.7927185526661573
1733513591827647000,4.96164697265625,8.446673898926377,5.4768508638978,0.9183706901982426
1733513591837666000,4.971666015625,7.796519553378224,4.777863221597671,0.28637437102273106
1733513591847685000,4.98168505859375,6.730539842638373,3.9299470005899666,0.0470341383755207
1733513591857704000,4.991703857421875,5.909479479852318,2.553332483926415,-0.41604529155269265
1733513591867723000,5.001722900390625,5.383994301024079,1.0568675990015268,-0.9949708225369452
1733513591877742000,5.0117421875,4.8953205572426315,-0.07110065813958645,-1.535798824186623
1733513591887761200,5.02176123046875,4.396880621728301,-0.7768553103566169,-2.084714562962949
1733513591897780000,5.031780029296875,3.2109611108779905,-0.7625830393761396,-3.131227648949623
1733513591907799000,5.041799072265625,1.8928946447730064,-0.5464408730953931,-4.04784506573975
1733513591917818000,5.051818115234375,2.2733261866308747,-0.7470248202383518,-3.364569371834397
1733513591927837200,5.061837158203125,2.0543932205878197,-1.0369085145562886,-2.1126817434273657
1733513591937857000,5.07185693359375,1.5461087674073875,-1.4474176531612872,-1.009570352710411
1733513591947876000,5.0818759765625,3.0799884600996967,-1.497269771566987,-2.0160034303084013
1733513591957895200,5.091895263671875,5.532118577611446,-1.5326578958123922,-3.702471539390087
1733513591967914000,5.1019140625,7.208053309980034,-2.042203747230768,-4.236788843971491
1733513591977933000,5.11193310546875,8.691697876298427,-2.9423388157755133,-3.7490287079036233
1733513591987951900,5.121951904296875,9.476976147085427,-3.6948335918575523,-2.8064176026791334
1733513591997971000,5.131970947265625,9.72307798282206,-4.22429351953566,-2.15846456656754
1733513592007990000,5.141989990234375,10.271641839420795,-4.704858775663376,-1.693213930080086
1733513592018008800,5.1520087890625,11.009882464700937,-5.126278015339374,-0.9537915476694703
1733513592028028000,5.16202783203125,11.026037480688094,-5.657143718162179,-0.19545871308371424
1733513592038047000,5.172046875,9.854659120887517,-6.341205009487271,0.6321731370471417
1733513592048066000,5.182066162109375,8.318127013990283,-6.694795160040259,1.3635260486401617
1733513592058086000,5.1920859375,6.691227822947502,-6.486058301579952,2.389896656438708
1733513592068105000,5.20210498046875,4.903812491255998,-5.402420184552669,3.263857127024233
1733513592078124000,5.2121240234375,2.871174444749951,-3.9313539447784422,3.7043852640569206
1733513592088143000,5.22214306640625,0.3800767370708287,-1.936087305289507,3.987323377020657
1733513592098162000,5.232161865234375,-5.864132856172323,1.2444845125436783,4.57990407000035
1733513592108181000,5.242180908203125,-17.93134761477709,5.807619526311755,4.431671364602447
1733513592118200000,5.252199951171875,-21.657789227819443,8.71916631346047,4.205061580321193
1733513592128219100,5.26221923828125,-13.196458442509174,5.923067275699973,3.9890795730382202
1733513592138238000,5.272238037109375,-7.133581129580736,2.5537685372561216,4.454649504607915
1733513592148257000,5.282257080078125,-4.482468947164714,0.325290523263812,3.849103531593084
1733513592158276000,5.292276123046875,-3.7722996933758255,-1.1392641426593064,2.6230501632750034
1733513592168296200,5.302296142578125,-3.3168022430092092,-1.9912924751609562,1.37350675990656
1733513592178315000,5.31231494140625,-2.128649274018407,-2.4279712432891127,-0.14692987917102873
1733513592188334000,5.322333984375,-1.9746311170868573,-2.239638874953985,-1.84454226340577
1733513592198353200,5.332353271484375,-2.417181553727388,-1.4580349087655544,-2.5201699267759916
1733513592208372200,5.342372314453125,1.9869582453489303,-0.3852952023714781,-1.6344959297820925
1733513592218391000,5.35239111328125,7.2596736071020365,0.7911515467345714,-0.48452970277927815
1733513592228410000,5.36241015625,9.29451939278543,1.7577023304730652,1.207149711209908
1733513592238429200,5.37242919921875,8.724246977725624,3.04958338496387,2.379930558219552
1733513592248448300,5.3824482421875,6.130913322800398,3.056343965139985,2.952555673885345
1733513592258467000,5.392467041015625,5.794840124237537,3.898136150309443,4.44542808727622
1733513592268486100,5.402486083984375,6.423306954112649,4.879702716872096,5.442083501899242
1733513592278505000,5.4125048828125,6.823880389636755,2.8804584059238434,4.29872829053402
1733513592288525000,5.422525146484375,6.531303218451142,-0.43411622416377066,2.3075740547999737
1733513592298543900,5.4325439453125,6.323475291529298,-2.7460376605182883,1.5983936659179627
1733513592308563000,5.44256298828125,5.9999354113250964,-3.63094242670536,1.9485243236668406
1733513592318582000,5.45258203125,5.868527876260877,-3.377175170907378,2.5385972716093064
1733513592328601000,5.46260107421875,5.783432595038414,-2.610679926523566,2.6825881016537547
1733513592338620000,5.472619873046875,5.168835300561786,-1.7332208001673222,2.583571847106516
1733513592348639000,5.482638916015625,4.356363317900896,-0.7172323240429163,1.976111857163906
1733513592358658000,5.492657958984375,4.393535402953624,0.6426876629292965,0.6280252235874533
1733513592368677000,5.502677001953125,4.373850459274649,1.8368249670267105,-0.2657915286559611
1733513592378696000,5.512696044921875,4.46622303802371,2.7832354645341635,-0.9663599373415112
1733513592388715000,5.522715087890625,5.131330038031935,3.814000654029846,-2.3199663572527465
1733513592398735000,5.532735107421875,5.317324903330206,4.354664112767577,-3.2901328472703693
1733513592408754200,5.542754150390625,4.191820405954123,4.235899786177277,-3.507737487319112
1733513592418773000,5.55277294921875,2.4123954884946346,3.2700334775716065,-4.07292251611203
1733513592428792000,5.5627919921875,0.80128131108284,2.2057173161298036,-4.957610716938972
1733513592438811100,5.57281103515625,0.2935749500513077,0.5109826062232256,-5.985048807838559
1733513592448830200,5.582830322265625,-1.30276251398921,-2.29106627985239,-4.922465169277787
1733513592458849000,5.59284912109375,-2.6591023043870923,-1.6155419307261705,-3.034072219838202
1733513592468868000,5.6028681640625,-3.177607122808695,-0.7340607092469931,-2.5282158705875277
1733513592478887200,5.61288720703125,-3.340702758556604,-0.12400281176567077,-2.150776934674382
1733513592488906200,5.62290625,-3.1151988896906375,0.3310837197124958,-1.8182777952060103
1733513592498925000,5.632925048828125,-2.719917130833864,0.7935831577956676,-1.3475348449125886
1733513592508943600,5.642943603515625,-2.490978611344099,1.3804881432265041,-0.7182168781008571
1733513592518963500,5.65296337890625,-2.6810440870821473,1.7090087344527243,-0.39431495965123176
1733513592528982500,5.662982421875,-2.982093903058767,1.5336235259741544,-0.2913627538945526
1733513592539001300,5.67300146484375,-3.2466146080613134,0.9634691843360662,-0.28691980301104486
1733513592549020400,5.6830205078125,-3.3407389989137646,0.48606034641265866,-0.19565671987384556
1733513592559039500,5.69303955078125,-3.2101509635388847,0.331853535041213,-0.0419723249413073
1733513592569058600,5.70305859375,-3.0470810467541214,-0.19360592482388017,-0.23674663595743475
1733513592579077400,5.713077392578125,-2.920929532521963,-1.0185334844321012,-0.4375414493720978
1733513592589096400,5.723096435546875,-2.73821968024373,-1.646656615436077,-0.3242648334778845
1733513592599115500,5.733115478515625,-2.379237022997439,-2.0574609375953674,0.03596818915568292
1733513592609134600,5.743134521484375,-1.9426983939923346,-2.012389623725414,0.47727352110594506
1733513592619153400,5.7531533203125,-1.4216405300870536,-1.5018939242362974,0.8516825878039002
1733513592629172500,5.76317236328125,-0.6929520153976977,-0.7442810744881629,1.1510629361983389
1733513592639192600,5.773192626953125,0.053903731884062285,-0.06847030963599682,1.4197399571627378
1733513592649211600,5.783211669921875,0.6398153223633766,0.1105032787233591,1.49691876617223
1733513592659230500,5.79323046875,0.8075991159275173,-0.13574527200758457,1.2605688013821839
1733513592669249500,5.80324951171875,0.23604835149496792,-0.333634573239088,0.954675929288566
1733513592679268600,5.8132685546875,-0.9894906375601887,0.1642600033521652,0.8118535585016011
1733513592689287700,5.82328759765625,-2.2700471649602054,1.8637012835144995,0.6381684319391846
1733513592699306500,5.833306396484375,-3.371145535354316,4.385377230939269,-0.5329891977827995
1733513592709325600,5.84332568359375,-4.933355396604537,6.668268387642502,-2.4122315301045774
1733513592719344600,5.8533447265625,-6.577412058675288,7.852373542547226,-4.211093261700868
1733513592729363700,5.86336376953125,-7.691197476685047,7.504284327498078,-5.8429117889672515
1733513592739382500,5.873382568359375,-8.33877934139669,5.998932371762394,-6.788632550644874
1733513592749402600,5.883402587890625,-9.07286343151927,4.230929012027382,-6.475994003683328
1733513592759421700,5.893421630859375,-10.77240524944663,2.7374305756926534,-5.019720843893289
1733513592769440800,5.903440673828125,-14.863440053093433,2.0556793148756025,-2.312109360142052
1733513592779459600,5.91345947265625,-23.99235095052719,2.2854542851895094,2.16622292560935
1733513592789478700,5.923478759765625,-28.138458237576483,2.9582395647406576,4.888623689952492
1733513592799497700,5.933497802734375,-22.369019096577166,3.9394513265162705,4.521326793347299
1733513592809516500,5.9435166015625,-14.360685761511325,5.5738370739221565,3.7679260083362456
1733513592819535600,5.95353564453125,-7.421472188776731,7.634395393010974,1.7086122824810444
1733513592829554400,5.963554443359375,-3.0953882738053795,8.511123867005109,-1.0010255925312637
1733513592839573500,5.973573486328125,-0.3425143375262618,7.747388150462508,-2.9438047966748475
1733513592849592600,5.983592529296875,2.1320101287536324,5.979785772743821,-4.156998683419824
1733513592859611400,5.993611328125,4.056885865807533,4.242772010034322,-4.3108629649639125
1733513592869631500,6.003631591796875,5.5602305733740325,3.7890176039427517,-3.691878541444242
1733513592879650600,6.013650634765625,6.862800195139646,4.343820062670112,-2.5331959970876574
1733513592889669600,6.023669677734375,8.026060714936255,5.090972308680415,-1.7894348548203707
1733513592899688400,6.0336884765625,9.296434871017933,5.508249626246094,-1.4793362015999854
1733513592909707500,6.04370751953125,9.851959798800944,5.420086189624667,-0.9874769596502184
1733513592919726600,6.0537265625,9.26743615554869,4.950141111710668,-1.0189102087900042
1733513592929745700,6.06374560546875,8.589855458414554,4.545435106426477,-0.9882710326373576
1733513592939764500,6.073764404296875,7.638814963018894,4.024031643953919,-0.605406126152724
1733513592949783600,6.083783447265625,6.784349758759141,3.2178385954320428,-0.6261217280536889
1733513592959802600,6.093802734375,6.106072896054386,2.1330746892452237,-0.5333488979406654
1733513592969821400,6.103821533203125,5.224807363152504,1.0906208155214785,-0.724898767017573
1733513592979841500,6.113841552734375,4.6348669555485245,0.5012719440698623,-1.2291289763711393
1733513592989860600,6.123860595703125,4.668260691106319,0.5118634807109832,-1.6150645224727689
1733513592999879700,6.133879638671875,4.534992038345337,1.2232242823719977,-1.8892147872164844
1733513593009898800,6.143898681640625,3.8591999781936406,0.12593757922053336,-3.609666998964548
1733513593019917600,6.15391748046875,3.892045432218909,-1.5679285311579703,-5.092648717460036
1733513593029936600,6.1639365234375,3.8403257663756607,-1.988262313684821,-4.460767695227265
1733513593039955700,6.173955810546875,0.8855397030897438,-2.007464442282915,-3.3081372905164956
1733513593049974800,6.183974853515625,-0.9458850123286247,-1.974366474801302,-1.9052366783432662
1733513593059993600,6.19399365234375,1.0456669905513525,-1.5444459487617015,-2.1049391664765773
1733513593070012700,6.2040126953125,3.027602439302206,-0.890713744726777,-3.215279558598995
1733513593080031700,6.21403173828125,5.364050414147973,-0.7064724450975656,-3.456180903083086
1733513593090050600,6.224050537109375,7.516350028344989,-0.9905582667917012,-2.963677371880412
1733513593100070400,6.2340703125,8.945061227470635,-1.334378133958578,-1.9312075704239309
1733513593110089500,6.24408935546875,9.431752273002266,-1.8449118273705243,-0.8396595570549369
1733513593120108500,6.254108642578125,9.06473331655562,-2.5559517265141007,0.18555925035998225
1733513593130127600,6.264127685546875,8.401922903051972,-3.475650742706656,0.989403397668153
1733513593140146400,6.274146484375,7.772948708176612,-4.482817614471912,1.5283007235161958
1733513593150165500,6.28416552734375,6.941800666618347,-5.071937353342771,1.8145112822793423
1733513593160184600,6.2941845703125,6.1469561105847355,-5.270855997622013,2.053343565404415
1733513593170203600,6.30420361328125,5.643092980977893,-5.057133167442679,2.0871112488411367
1733513593180222500,6.314222412109375,5.163382295852899,-4.577234850791096,2.062420021307468
1733513593190241500,6.324241455078125,4.0744910806030035,-3.6698289144605396,2.206322296285629
1733513593200260600,6.334260498046875,1.1814613623976706,-1.983590814742446,2.4749369926035403
1733513593210279400,6.344279541015625,-4.961804076975584,1.029749874973297,2.671137610095739
1733513593220299500,6.354299560546875,-12.34382220724225,5.013289934062957,2.8055215306222436
1733513593230318600,6.364318603515625,-13.536573025417328,6.232115104693174,3.6242318231508133
1733513593240337700,6.374337646484375,-8.944021363028883,2.7770471312880516,4.384475605924427
1733513593250356700,6.384356689453125,-5.588578715980052,-0.5769932477474212,4.375542650145292
1733513593260375600,6.39437548828125,-3.4340397984236475,-1.7159347343236206,3.820910287287831
1733513593270394600,6.40439453125,-2.5587445721030235,-2.1407886246234176,2.7993428419873116
1733513593280413700,6.41441357421875,-2.2128867693677545,-2.1766893745660782,1.4355838613741099
1733513593290432500,6.4244326171875,-1.910467418603599,-2.007442814972997,-0.46159459819793697
1733513593300451600,6.43445166015625,-1.5559145604982971,-1.8512924683183432,-3.0392113362923263
1733513593310470700,6.444470703125,-0.46227352037280794,-1.8827146115422249,-5.629759452152252
1733513593320489700,6.45448974609375,2.137020504261553,-1.9853303518861531,-6.695491325610876
1733513593330509600,6.464509521484375,4.87499497757256,-1.817239392068982,-5.615640325906872
1733513593340528400,6.4745283203125,5.996436463293433,-0.6459878735184669,-2.910728456503153
1733513593350547500,6.48454736328125,5.758753496333957,1.5398983684599399,0.03537168456725776
1733513593360566500,6.49456640625,3.8913305619478225,4.678455921906233,2.510486152629554
1733513593370585600,6.504585693359375,1.2360200510591268,8.51505594575703,4.876774846726656
1733513593380604400,6.5146044921875,0.8939613483458757,10.7072579467535,5.606527045124769
1733513593390623500,6.52462353515625,2.120168884312361,7.656053682589531,3.991936716035008
1733513593400642600,6.534642578125,3.3963094949662684,1.5417957265138624,1.6549784535795449
1733513593410661400,6.544661376953125,4.2826591992646454,-3.7314158943235873,0.12774316733777522
1733513593420680400,6.554680419921875,5.307276387524604,-6.159289522457122,0.8258119412273168
1733513593430699500,6.564699462890625,6.424885163214802,-6.362493881231546,2.7072768449693916
1733513593440718600,6.574718505859375,6.8770870791673655,-5.116222485271096,4.416179780960083
1733513593450738700,6.58473876953125,5.85882247480452,-3.4191058486640453,4.626691247877479
1733513593460757500,6.594757568359375,4.630048741611838,-1.9102479306340217,3.8659196418374773
1733513593470776600,6.604776611328125,4.075015981259942,-0.4453291075736284,2.8183026862621308
1733513593480795600,6.614795654296875,3.2877357230007647,1.0696136833280325,2.2854621762350202
1733513593490814700,6.624814697265625,2.86420168312788,2.208337143239379,1.7268037727318704
1733513593500833500,6.63483349609375,3.7752205492585897,2.6974486939162015,0.7010371221758425
1733513593510852900,6.644852783203125,4.888249595943093,2.9817256542682644,0.13103914014324544
1733513593520872000,6.654871826171875,5.330274985796213,2.8910961197942493,0.12308379722461103
1733513593530890800,6.664890869140625,4.568647055187821,2.038281605350971,-0.25282719846889373
1733513593540909800,6.674909912109375,3.396912137034535,1.6340777043700216,-0.08536175013892353
1733513593550929000,6.684928955078125,2.3240391596496104,0.9718442139714956,-0.6734696816187351
1733513593560948000,6.694947998046875,1.8863561829149722,-0.7126181082457304,-1.5452332997471092
1733513593570967800,6.7049677734375,1.331959382379055,-1.0161492196440696,-2.1124830059848723
1733513593580986600,6.714986572265625,0.29663316857814787,-0.6874409968912601,-2.7139894943505523
1733513593591005700,6.725005615234375,-0.8621113350987434,-0.33399171611368655,-3.0893641912102696
1733513593601024800,6.735024658203125,-1.858185734963417,0.07001695455610751,-3.8240348490491507
1733513593611043800,6.7450439453125,-2.4260968277193604,0.574248332953453,-4.146358046939969
1733513593621062700,6.755062744140625,-2.6446915017187593,0.8545330087989568,-3.6184500248789786
1733513593631081700,6.765081787109375,-2.557195589095354,0.9722066175431012,-2.920005695675313
1733513593641100800,6.775100830078125,-2.3882876138068734,1.0341109927922487,-2.2403245191305876
1733513593651119600,6.78511962890625,-2.2320878750525415,0.9157838885754346,-1.3026260281279682
1733513593661138700,6.795138671875,-2.141866921379417,0.5869260282188654,-0.32471345402821894
1733513593671157800,6.80515771484375,-2.1954501891374587,0.24671090754568575,0.5276068471573293
1733513593681176800,6.8151767578125,-2.3652046982526778,-0.2002887635886669,1.1871235528778283
1733513593691197000,6.825197021484375,-2.6179005254268644,-0.8469055826604366,1.3735539600491522
1733513593701215700,6.8352158203125,-2.8011224188804627,-1.361542035216093,1.2057881405331194
1733513593711234800,6.84523486328125,-2.746730318957567,-1.6654688679337502,1.012961894844845
1733513593721254000,6.85525390625,-2.449298693478107,-1.7309972788989543,0.9325058907955884
1733513593731273000,6.86527294921875,-1.9531939229130744,-1.5186808083862064,0.869905934497714
1733513593741291800,6.875291748046875,-1.3066823177814484,-0.8084294292718172,0.6519202592421323
1733513593751310800,6.885310791015625,-0.7701777322888373,0.1569628320813179,0.2164928063493222
1733513593761330000,6.895329833984375,-0.5593699127733707,0.8157248469769954,-0.25904336957000196
1733513593771348700,6.9053486328125,-0.7776391542106866,1.0129852026551962,-0.7308030956905335
1733513593781367800,6.915367919921875,-1.3625582265213132,0.9388339247733354,-1.0973466897103934
1733513593791387000,6.925386962890625,-2.208677919501066,0.7814648499786854,-1.4042831525728106
1733513593801407000,6.935406982421875,-3.0342402698814865,1.1703759047597646,-1.8792454741269349
1733513593811426000,6.945426025390625,-3.8249814822494983,2.773344185116887,-2.6283760344728826
1733513593821444900,6.95544482421875,-4.870905077910423,4.975245157828927,-3.427453405770659
1733513593831464000,6.9654638671875,-6.057497373455763,6.847495073980093,-4.4937458357214926
1733513593841482800,6.975482666015625,-7.0549565056771035,7.3488605415523045,-5.605469060504436
1733513593851501800,6.985501708984375,-7.758533229333162,6.148408647480607,-5.985230594146251
1733513593861520600,6.995520751953125,-8.630131939223409,4.205210633403063,-4.922513684594631
1733513593871539700,7.005539794921875,-10.650274076771735,2.1850807708144186,-2.970460163888335
1733513593881558800,7.015558837890625,-16.24947940070629,1.199696691790223,0.06263298178464174
1733513593891577600,7.02557763671875,-24.98252167930603,1.7483043875306843,4.094544273072481
1733513593901596700,7.0355966796875,-23.9877823274374,2.9291864887356756,5.219366633403301
1733513593911616800,7.04561669921875,-17.71576542046666,4.850081485590338,5.489001904940605
1733513593921635800,7.0556357421875,-11.35130286951065,7.291832832428812,5.162554028335213
1733513593931655000,7.065655029296875,-6.330810456722975,8.283550790649652,3.2290982405930757
1733513593941673700,7.075673828125,-2.436991585090756,7.271407884037494,1.298908615040034
1733513593951692800,7.08569287109375,0.6140060505852103,5.297190462318063,-0.25075477610901
1733513593961711900,7.0957119140625,2.756049643705785,3.4606460657984015,-1.6389437029711902
1733513593971730700,7.105730712890625,4.677403782504797,2.864045031261444,-2.2451276816286145
1733513593981749800,7.115749755859375,6.2537225408673285,3.4267028796643015,-1.9567730965740977
1733513593991768800,7.125768798828125,7.786075900775193,4.355048143649101,-1.0245566902443766
1733513594001788000,7.135787841796875,8.808659537380933,5.167554028579592,0.051124476429075
1733513594011806700,7.145806640625,8.76905233413577,5.455856006664037,0.5993357201978564
1733513594021825800,7.15582568359375,7.477502119034528,5.113879137015342,1.6321971513204276
1733513594031846000,7.165845947265625,6.427953318613767,4.640777640897035,2.483933953529596
1733513594041865000,7.175864990234375,6.31970278725326,4.336689480137824,2.655663562110066
1733513594051884000,7.185884033203125,6.27375059889555,3.804267195522785,2.17714325581342
1733513594061902800,7.19590283203125,5.981078735163807,2.8142554566979405,1.759675676372647
1733513594071922000,7.205921875,5.240575425648689,1.5515461361557243,1.4948336304612457
1733513594081941000,7.21594091796875,3.9936896971821785,0.3883995981276035,0.8566397718198597
1733513594091959800,7.225959716796875,1.9244255090683697,-0.1121720887184143,0.06556041353866457
1733513594101979000,7.235978759765625,-0.7519774742096662,-0.22151392244696616,-1.5679843529984354
1733513594111998000,7.245998046875,-1.478771553454548,0.006670563805103302,-3.1244436878979203
1733513594122017000,7.25601708984375,0.9181243142217397,0.22265958535075187,-3.201020147100091
1733513594132035800,7.266035888671875,2.1896441332072016,0.17285013704299926,-1.8054799806922672
1733513594142055000,7.276054931640625,2.758448229280114,-0.28176059361696243,-0.8747463602662086
1733513594152074800,7.28607470703125,4.89922954737991,-0.5042611890137195,-1.7496553637482224
1733513594162093800,7.29609375,6.873283010709286,-0.9532190084785223,-3.094393709810078
1733513594172112600,7.306112548828125,8.277074288111924,-1.4977140082031488,-3.4799744511246677
1733513594182131700,7.316131591796875,8.732958691969513,-2.0851520775973795,-3.222426215483248
1733513594192150800,7.32615087890625,8.420051264938712,-2.7831360958129165,-2.6465637253314256
1733513594202169900,7.336169921875,8.35366185323,-3.5278666676342487,-2.0202583112739023
1733513594212188700,7.346188720703125,8.367882686284183,-4.183571048524976,-1.3628065021939575
1733513594222207700,7.356207763671875,8.239361520311236,-4.751034251382947,-0.6030861587725579
1733513594232226800,7.366226806640625,8.06863027511835,-5.140321738260984,0.13104030918702483
1733513594242246000,7.376245849609375,7.672200515270233,-5.434872839868069,0.6716625591315328
1733513594252264700,7.3862646484375,6.866943870815635,-5.622767401307821,0.9064750852212309
1733513594262283800,7.39628369140625,5.7736617271304125,-5.701074629825353,0.8447672554574907
1733513594272303900,7.406303955078125,4.62750051843375,-5.462545859691501,0.43586146039590234
1733513594282323000,7.416322998046875,3.7468244758576152,-4.875617493385076,-0.09229396055489777
1733513594292341800,7.426341796875,2.7127923935204743,-3.8661318232834336,-0.09309161373861133
1733513594302360800,7.43636083984375,1.282820088417828,-2.5063556286960837,0.40571065228208897
1733513594312380000,7.4463798828125,-1.2033258420728146,-0.602947188693285,1.6565034711897373
1733513594322399000,7.45639892578125,-6.515125406110286,2.31348444788754,3.812914904619753
1733513594332417800,7.466417724609375,-16.332410197371242,6.156784846159815,5.597223794728517
1733513594342436900,7.476436767578125,-21.58585562598705,7.427929402092099,6.282043795466422
1733513594352456000,7.4864560546875,-15.327639280831812,4.068838169407845,6.203757609736919
1733513594362475000,7.49647509765625,-8.830117335951329,1.0966466516822575,5.478657621058821
1733513594372493800,7.506493896484375,-5.78657381567359,-0.5069844764977693,4.825291912248731
1733513594382513700,7.516513671875,-4.230323447349667,-1.5670686994582415,4.175653407268226
1733513594392532700,7.52653271484375,-3.1884394824683664,-3.0464708059012886,2.7818647607028484
1733513594402551800,7.5365517578125,-1.800368336766958,-4.5330654541969295,0.682939009296894
1733513594412570600,7.546570556640625,-2.5638831040352583,-5.091219561439752,-1.7242432745940983
1733513594422589700,7.556589599609375,-2.494560561484098,-4.667175818479061,-3.6667847244590517
1733513594432608800,7.56660888671875,3.9097938548773525,-3.895919058781862,-5.399736644557118
1733513594442627800,7.5766279296875,9.714432904073595,-3.010682868683338,-5.538111680546403
1733513594452646700,7.586646728515625,10.997224058657883,-0.47102995054125785,-3.456479593768716
1733513594462665700,7.596665771484375,9.593642040091753,2.989476414525509,-0.6176140119493008
1733513594472684800,7.606684814453125,7.090670208615064,6.020809857049584,2.4451237458810207
1733513594482704000,7.616703857421875,6.1105959264367815,11.375670418047905,5.53971970026493
1733513594492722700,7.62672265625,4.792746902474761,12.184455821150541,4.6419712345957755
1733513594502742800,7.63674267578125,4.16726230328083,6.129067402672767,1.0838371467307208
1733513594512761300,7.64676123046875,5.4930000346660615,0.9932400532215833,-0.4345742701295763
1733513594522780400,7.656780517578125,6.961137819772959,-2.0777496923863885,0.11318374997898936
1733513594532799200,7.66679931640625,7.800933862689137,-3.025537907987833,2.2730367021650073
1733513594542818300,7.676818359375,7.489910934230685,-2.739659942179918,3.9366131804808973
1733513594552837400,7.68683740234375,6.668478815522789,-2.025436152303219,3.9519931204423306
1733513594562856400,7.6968564453125,6.2689183564335105,-0.7502741774231195,3.1745342912346124
1733513594572875300,7.706875244140625,5.892574522280693,0.5813280620813369,2.5345275379523633
1733513594582894300,7.716894287109375,5.566841515946388,1.1952660158663988,1.3387753460042178
1733513594592913400,7.726913330078125,5.771094506990909,1.6556904012411833,0.33041531893163917
1733513594602932200,7.73693212890625,6.284822612529993,2.157273310956359,-0.13693952329345047
1733513594612951300,7.746951416015625,6.8307216338336465,2.0221505547612906,-0.34331410960182546
1733513594622971400,7.756971435546875,5.874883382767439,1.7241490204393863,0.39811858971789477
1733513594632990500,7.766990478515625,4.14003410461545,1.2627420537680387,0.5957358690749853
1733513594643009500,7.777009521484375,2.8642262330472468,0.5214245052605867,-0.6584473229233175
1733513594653028400,7.7870283203125,1.4677157603025435,-0.22898937289416788,-1.5744262226141987
1733513594663047400,7.79704736328125,-0.22644144197702407,-0.535626049092412,-2.0790388554140926
1733513594673066500,7.80706640625,-1.6736008825935422,-0.6285375570237636,-2.6327690087348223
1733513594683085300,7.817085205078125,-2.806468456083536,0.3067851447582245,-3.1992265416815875
1733513594693104400,7.8271044921875,-3.4485295115470884,1.21283206769526,-3.7626764172449705
1733513594703123500,7.83712353515625,-3.657839785981178,1.444331377583742,-3.73792892947942
1733513594713142300,7.847142333984375,-3.5910511458218095,1.5713859781354664,-3.538958847273886
1733513594723161300,7.857161376953125,-3.6085911864265796,1.4972534049540758,-3.3069261611610647
1733513594733181200,7.86718115234375,-3.8230914307191965,1.0632932481348514,-2.6180776355594393
1733513594743200300,7.8772001953125,-4.192764701066911,0.5183838223904371,-1.590386592812091
1733513594753219300,7.88721923828125,-4.502643135665357,0.014591419932246207,-0.699436116719991
1733513594763238400,7.89723828125,-4.487076440960169,-0.4102496108859777,-0.13789682401828468
1733513594773257200,7.90725732421875,-4.22725090803653,-0.8383616261988878,0.07869834672696888
1733513594783276300,7.9172763671875,-3.8917929187625644,-1.3691951803177593,0.10411584270857274
1733513594793295400,7.92729541015625,-3.547442597980797,-1.759250728958845,0.15452318384423852
1733513594803314200,7.937314208984375,-3.2734739734143017,-1.9399796365529298,0.2771126216806471
1733513594813333200,7.947333251953125,-2.89352860763818,-1.8258342019349336,0.3722802379757166
1733513594823352300,7.957352294921875,-2.332471764691174,-1.4007897574990986,0.49853345901668067
1733513594833371400,7.967371337890625,-1.7103510889723896,-0.6988789212286471,0.7075720769025385
1733513594843390200,7.97739013671875,-0.9310659211203456,-0.05293021067678928,0.7410257990192621
1733513594853410300,7.987410400390625,-0.2985921936914325,0.24180092367231845,0.5418003538131714
1733513594863429400,7.997429443359375,-0.34664573824256656,0.40076223609447476,0.34869872524961826
1733513594873448400,8.007448486328125,-1.2496917257979512,1.2253864288419485,0.09770794842764735
1733513594883467500,8.017467529296875,-2.5915230983719226,3.356449193742871,-0.7543018255040049
1733513594893486300,8.027486328125,-4.0291920954570175,5.57080925053358,-2.0696780296117065
1733513594903505400,8.03750537109375,-5.422417847442627,6.9452662969022985,-3.3053938370272515
1733513594913524500,8.0475244140625,-6.557769785094261,7.115033080977201,-4.6306034528851505
1733513594923543300,8.057543212890625,-7.581835769212246,6.308418592172861,-5.863786819213629
1733513594933562400,8.067562255859375,-8.926639435595273,5.067287481710315,-6.106048930656909
1733513594943581400,8.07758154296875,-11.466730745154619,3.615384792089462,-4.755177342537046
1733513594953600500,8.0876005859375,-18.430280302244423,2.0153093105643984,-1.3294967916578053
1733513594963620400,8.097620361328126,-30.560095017147063,1.9558815545618533,3.7820898505061864
1733513594973639200,8.10763916015625,-30.637018097829817,2.991370265448093,5.437884296643734
1733513594983658200,8.117658203125,-22.212154464173317,4.222309652242064,4.94543571049869
1733513594993677300,8.12767724609375,-12.184779646277427,5.562611331030726,3.9006984020128845
1733513595003696000,8.137696044921874,-6.168970373994112,7.265851418954133,1.225596272200346
1733513595013715200,8.147715087890624,-2.365281855142116,9.20143778898418,-0.9325884545125067
1733513595023734300,8.157734375,0.8149895184397697,9.753812143781781,-2.1529764905452726
1733513595033753300,8.16775341796875,3.17171368085593,8.238464863732457,-3.526476674580574
1733513595043772200,8.177772216796875,4.707780216068029,6.432904803541303,-4.884306411275268
1733513595053791200,8.187791259765625,6.435870083087682,6.155389592409134,-4.900852764667571
1733513595063810300,8.197810302734375,7.774595890861749,6.256529999503493,-3.775658356153965
1733513595073829400,8.207829345703125,8.829003237229585,6.391604824903607,-2.5973504893511534
1733513595083849500,8.217849365234375,9.642325699239969,6.336060047814249,-1.1392846009254456
1733513595093868300,8.227868408203125,9.148028270357846,6.156480310255288,0.26958982496038075
1733513595103887400,8.237887451171876,8.096658099728822,5.912014551287889,0.617377718975395
1733513595113906400,8.247906494140626,7.719327008104324,5.807621279877424,0.5599221398286521
1733513595123925200,8.25792529296875,7.886201577869057,5.613497468659282,0.49998424234688277
1733513595133944300,8.2679443359375,7.70603614937663,4.7256887977242465,0.7746649607054888
1733513595143963400,8.27796337890625,6.926098070573806,3.090827249500155,0.7492280293710529
1733513595153982500,8.287982421875,5.761427099457383,1.2692238170027732,0.13454364113286138
1733513595164001300,8.298001220703124,3.8714106404691933,0.02920563621819019,-0.48947190842181443
1733513595174020400,8.308020263671875,0.28906112588867544,-0.13930033414065837,-0.6480388146989047
1733513595184039400,8.318039306640625,-1.25914022988379,-0.0861298849672079,-1.3178684593148529
1733513595194058500,8.32805859375,0.7370230661839247,0.000180032742023468,-1.458017080847919
1733513595204078300,8.338078369140625,2.5989929958611726,-0.5368436081886291,-0.8844569493543356
1733513595214097200,8.34809716796875,2.014717189890146,-1.336155665025115,1.2267863587677479
1733513595224116200,8.3581162109375,3.527690726545453,-2.1286253086209297,0.46714222238771613
1733513595234135300,8.36813525390625,7.5859531414031975,-2.1380893025368453,-1.763460163347423
1733513595244154000,8.378154052734375,8.99011032950878,-2.758270534625649,-3.474379407596588
1733513595254173200,8.388173095703126,9.513560203117132,-3.5993110246449707,-4.166486350472272
1733513595264192300,8.398192138671876,10.19619292294383,-4.391714617267251,-3.8099563470751043
1733513595274211300,8.40821142578125,10.547305869728326,-4.912535895937681,-3.4706741233378646
1733513595284230100,8.418230224609376,10.87160562838912,-5.209450804066658,-3.074990505681932
1733513595294249200,8.428249267578124,11.212338635456561,-5.380590630060434,-2.480804423332214
1733513595304268300,8.438268310546874,11.021724878185987,-5.55449173746109,-1.7824743681579827
1733513595314287400,8.448287353515624,10.107665913707017,-5.845030096295476,-0.9914750893756746
1733513595324307200,8.45830712890625,9.065748046556115,-6.0986933071970935,-0.22848098498061298
1733513595334326300,8.468326171875,8.112340822029113,-6.2729971501797435,0.5955065172985196
1733513595344345300,8.478345458984375,7.0103078011333935,-6.19797435016036,1.3659307716943323
1733513595354364400,8.488364501953125,5.5079322308599945,-5.486368633827567,1.7718769862979649
1733513595364383200,8.49838330078125,3.663147829261422,-4.399318662530184,1.1634911136820911
1733513595374402300,8.50840234375,0.5835629815265536,-2.4112205994963642,1.0338029497563839
1733513595384421400,8.51842138671875,-6.154268479424715,1.4573153623193502,1.736434501516819
1733513595394440400,8.5284404296875,-18.98971451242566,7.909032418358326,2.9174112952679394
1733513595404459300,8.538459228515626,-23.784455219066142,12.687068658435344,5.243850501796603
1733513595414478300,8.548478271484376,-13.652725708204507,9.148595256590843,7.362589207175374
1733513595424497400,8.558497314453126,-6.542952155190706,4.237304392278194,8.006797211539745
1733513595434517500,8.568517578125,-3.8025235667258497,0.5488952805101871,6.824107184129953
1733513595444536300,8.578536376953124,-3.396321769925952,-2.4099662155210972,5.073682151183486
1733513595454555400,8.588555419921875,-2.777782459825277,-4.151453908774257,3.080480043008923
1733513595464574500,8.598574462890625,-4.1311406040638685,-4.477244198253751,0.9585669453777372
1733513595474593300,8.60859326171875,-5.687254194265604,-4.292110333698988,-1.1036474703550339
1733513595484612400,8.6186123046875,-0.6827174755007028,-3.591001461461186,-3.0238471784219145
1733513595494631200,8.628631103515625,6.987607893547415,-1.5240028801918029,-3.3402544302672146
1733513595504650200,8.638650146484375,12.807418208390473,0.983057681903243,-2.820078756023943
1733513595514670600,8.648670654296875,12.757507053273915,2.3651474151074883,-1.8578811990588902
1733513595524689400,8.658689453125,7.428656547322869,3.4956595115125175,-0.384576751903817
1733513595534708500,8.66870849609375,3.450792780303955,6.304919644141197,3.038072103129327
1733513595544727600,8.6787275390625,1.6580635601133107,8.393638474309444,5.784630280390381
1733513595554747600,8.68874755859375,3.8780344425231217,5.341459812155366,4.364053287881613
1733513595564766700,8.6987666015625,5.525630384635925,0.20107436100840567,1.6486472047314047
1733513595574785500,8.70878564453125,6.900692411160469,-3.8349586863845584,0.31404169175773855
1733513595584804600,8.7188046875,8.182572296118735,-4.820782910391688,1.0841495736807585
1733513595594823700,8.72882373046875,8.595496094650029,-3.7358869022578,2.8222862029403446
1733513595604842500,8.738842529296875,8.629915081602334,-2.4604776746183634,3.442787460763752
1733513595614861600,8.748861572265625,8.752633698776364,-1.2632511723339557,2.8610861814558506
1733513595624880600,8.758880615234375,8.119346316877007,0.13899521371424198,1.979595607626438
1733513595634899700,8.768899658203125,7.4640470096558325,1.6604904949992894,0.6349613795261829
1733513595644918500,8.77891845703125,7.493660642153024,3.1580694786459205,-0.8419588469732552
1733513595654937600,8.7889375,6.488838287687301,4.5653187875479455,-0.952604091450572
1733513595664956700,8.798956787109375,4.880302436330914,4.837327217957377,-1.4283525949463247
1733513595674976500,8.8089765625,4.100731437274813,4.058607867294549,-2.182455244616419
1733513595684995300,8.818995361328126,3.5375241382956504,3.3128777630418536,-2.5312878253787754
1733513595695014400,8.829014404296874,3.0250258668124674,2.3347516923218965,-2.557075762107968
1733513595705033500,8.839033447265624,2.28110719589591,0.41216041294336314,-2.8955162743240592
1733513595715052500,8.849052490234374,-0.25624734564330426,-1.0268979926735162,-3.0053917765378952
1733513595725071400,8.8590712890625,-2.164042658960819,-0.46112055094540116,-2.262716383680701
1733513595735090400,8.86909033203125,-2.8540122975468636,0.22990181156396863,-1.7885133560612796
1733513595745109500,8.879109619140625,-3.0037796651661393,0.31579262707829475,-1.7212807715266942
1733513595755128600,8.889128662109375,-2.936378738327324,0.19921850400865077,-1.5805622411511837
1733513595765147400,8.8991474609375,-2.543421915286779,0.3648778527647257,-1.834914895621687
1733513595775166500,8.90916650390625,-2.28963069409132,0.8616898948162793,-2.328410360471159
1733513595785185500,8.919185546875,-2.4389376045919953,1.2418705306529998,-2.4226376271761954
1733513595795205600,8.92920556640625,-2.702839739304781,1.341463123783469,-2.224573407769203
1733513595805224400,8.939224365234375,-2.844630721217394,1.1986492285639048,-1.7723089479744434
1733513595815243500,8.949243408203126,-2.8137261721268296,0.7560521763026714,-1.3356480077639221
1733513595825262600,8.9592626953125,-2.6144872098520398,0.008669044145941733,-1.149101792193204
1733513595835281700,8.96928173828125,-2.366741552431136,-0.7800456308305264,-1.1455569591931998
1733513595845300500,8.979300537109374,-2.049611685399711,-1.3024094627678393,-1.1332567920032888
1733513595855319600,8.989319580078124,-1.779540360532701,-1.632657900699973,-1.089934367627278
1733513595865338600,8.999338623046874,-1.6153051993608474,-1.868946782952547,-1.059939334597066
1733513595875357700,9.009357666015624,-1.4958208879329262,-1.9191817631959913,-0.959332449857518
1733513595885376500,9.01937646484375,-1.4396930502586065,-1.811829057458043,-0.6950503028512001
1733513595895395600,9.0293955078125,-1.323502665809542,-1.5550503448843955,-0.35410051122792063
1733513595905414700,9.03941455078125,-1.1367840162813663,-1.0004191510707139,0.06384155385680497
1733513595915434500,9.0494345703125,-0.9097940005108713,-0.18476269315481184,0.4688215537767857
1733513595925453300,9.059453369140625,-0.6623793286100029,0.47146951100230217,0.6884351955603808
1733513595935472400,9.069472412109375,-0.6570607639357448,0.663783642449975,0.5883551111739128
1733513595945491500,9.079491455078125,-1.0807976329043507,0.715895522481203,0.19524821213819085
1733513595955510500,9.089510498046875,-1.8740446906134485,1.1404355245262383,-0.011584712396934628
1733513595965529300,9.099529296875,-2.6290470656022427,2.81328690392673,-0.49385078109316527
1733513595975548400,9.10954833984375,-4.064577881614864,5.484961105117201,-1.832573447062075
1733513595985567500,9.1195673828125,-6.33807372572422,7.589120665523409,-3.4897757141709325
1733513595995586600,9.129586669921874,-8.172584570589661,8.434715750107168,-5.307614825698733
1733513596005605400,9.13960546875,-9.522914891439676,7.725417726194858,-6.8232911915719505
1733513596015624400,9.14962451171875,-11.109004517710208,6.077537121921777,-7.131953236117958
1733513596025644500,9.15964453125,-14.131059844279289,4.260020666477084,-5.66482550483644
1733513596035663600,9.16966357421875,-18.808518571841716,2.8154063802987337,-2.856846644189954
1733513596045682400,9.179682373046875,-18.436942682743073,3.1915052997797724,-1.3763684329479933
1733513596055701500,9.189701416015625,-16.093550003325937,4.542433586522937,-0.3656292556539178
1733513596065720600,9.199720458984375,-17.040494169318674,6.096912268999219,1.7430011665560303
1733513596075739600,9.20973974609375,-15.799874515509604,7.5096367944419375,3.2022944048196074
1733513596085758500,9.219758544921875,-13.063485557824372,7.594294853290915,3.6434883122846484
1733513596095777500,9.229777587890625,-8.592851717621087,5.7964674331784245,2.6345269583180544
1733513596105796600,9.239796630859376,-4.23826300817728,4.096995757877827,1.3267059918954969
1733513596115815700,9.249815673828126,-0.8596201028048992,3.5581951704025268,0.19176789574176073
1733513596125834500,9.25983447265625,2.0624925020217892,3.7451246862024066,-0.5396352847337722
1733513596135853600,9.269853515625,4.723024546951056,4.022256450974941,-0.9257565626658498
1733513596145873700,9.279873779296874,7.252510291343927,4.831307811537385,-0.7801018910624087
1733513596155892700,9.289892822265625,9.408647876268624,6.054889821305871,-0.2124525179825723
1733513596165911600,9.29991162109375,10.73540501382947,7.060097375696897,0.6555988746896386
1733513596175930600,9.3099306640625,10.879735158830881,7.6494398174077265,1.367149207573384
1733513596185949400,9.319949462890625,10.899960785257816,7.4663734067767855,1.8274242476053535
1733513596195968500,9.329968505859375,10.384283883738517,6.676854429680109,2.5094734684556723
1733513596205987300,9.3399873046875,9.11893018616736,5.597488583144545,2.622095639029145
1733513596216006400,9.35000634765625,7.482385799422859,4.190830225872993,2.3579401140771803
1733513596226025500,9.360025390625,5.6944788848221295,2.4709195736557246,1.5069026923090219
1733513596236044500,9.37004443359375,4.35747449401319,1.203389701089263,0.6961663012690842
1733513596246063400,9.3800634765625,3.058771484547853,0.3621159868359565,0.2587418293401599
1733513596256083500,9.39008349609375,0.03957856167256832,0.0618307254910469,-1.5853884922638535
1733513596266102500,9.4001025390625,-3.8947248805612324,0.23842706332504748,-4.274079586967826
1733513596276121600,9.41012158203125,-0.7888836018025874,0.6374561920166015,-3.8598634105384346
1733513596286140400,9.420140380859374,2.307879467487335,0.7970926272213459,-2.5801655457943675
1733513596296159500,9.430159423828124,2.837250547838211,0.2012999864578247,-2.14130651101768
1733513596306178600,9.440178466796874,4.901113169169426,-0.7940753252267837,-2.261675934717059
1733513596316197600,9.45019775390625,7.356171741348504,-1.5225789848685263,-3.3331916522741314
1733513596326216400,9.460216552734375,8.531073599100113,-2.019476951637864,-4.573723335538804
1733513596336235500,9.470235595703125,9.896212782025337,-2.447098553085327,-4.419268979147076
1733513596346254600,9.480254638671875,10.683784716707468,-3.0648207015842197,-3.779982941354811
1733513596356273400,9.4902734375,11.066484057366848,-3.7631402353644368,-3.3803076237142085
1733513596366292500,9.50029248046875,11.206016446697712,-4.360511085230112,-2.871175029271841
1733513596376312600,9.5103125,11.184433560442924,-4.908037999996543,-2.128654973106831
1733513596386331600,9.52033154296875,11.068035378462076,-5.4955251692295075,-1.373866825390607
1733513596396350700,9.530350830078126,10.45690020713806,-6.023657063174247,-0.531219776957482
1733513596406369500,9.54036962890625,9.417050378432869,-6.3381748480111355,0.43380482012704014
1733513596416388600,9.550388671875,8.455634034973382,-6.379335125917196,1.1125094067245722
1733513596426407700,9.56040771484375,7.372839967554807,-6.234271990466118,1.4814492482312023
1733513596436426800,9.5704267578125,6.137278766179085,-5.774790438899397,1.6683832940757273
1733513596446445600,9.580445556640624,4.818278818616271,-5.003423204565048,1.9277429630532859
1733513596456464600,9.590464599609374,3.0977123328387735,-3.7002667228221893,2.169619290049374
1733513596466483700,9.600483642578125,-0.6278102656625211,-1.148845625475049,2.7347137179493903
1733513596476502500,9.61050244140625,-11.398172172713279,4.58591909250617,3.6314155971750615
1733513596486521600,9.620521484375,-27.529996669375894,14.045249692785738,5.675356835722923
1733513596496541400,9.63054150390625,-19.159215339040756,12.06757833122015,7.3720572927445165
1733513596506560500,9.640560546875,-7.940755590355396,5.5237073076188565,7.958077312034368
1733513596516578600,9.65057861328125,-4.071181225402653,2.1186726544052363,8.609808113119005
1733513596526597600,9.66059765625,-3.7684079466342926,-1.0196060820996762,7.634363244307041
1733513596536616700,9.67061669921875,-4.565210650998353,-3.5029613589584825,5.802842813429236
1733513596546635800,9.6806357421875,-4.519849998793005,-4.953664609661698,3.1972426743879914
1733513596556654600,9.690654541015626,-3.9180896817967295,-5.116150004556775,0.4943573423758149
1733513596566673700,9.700673583984376,-3.318602570429444,-4.535926104325056,-1.7354221096038818
1733513596576692700,9.710692626953126,0.1810346125423908,-3.6315894924372434,-3.780128779566288
1733513596586711800,9.7207119140625,5.698081877750158,-1.1511322751075028,-4.964528533503413
1733513596596730600,9.730730712890624,10.386060830283164,1.878562752559781,-5.147258844047784
1733513596606749700,9.740749755859374,10.387854143440723,3.759052089267969,-4.531014951407909
1733513596616769800,9.750769775390625,6.134337452030182,5.056224820426106,-2.5474802507668732
1733513596626788900,9.760788818359375,3.730206226272881,6.114069155505299,0.7782507102377713
1733513596636807700,9.7708076171875,3.146311236312985,5.806888289427757,2.4892037106260654
1733513596646826800,9.78082666015625,4.320078829337656,2.3395985478311774,1.5619640697956085
1733513596656845800,9.790845703125,5.66545971108675,-2.0604104350507257,-0.024998832178115844
1733513596666865000,9.800864990234375,6.632571051317453,-5.199796840536594,-0.564420254965499
1733513596676883700,9.8108837890625,7.19509855133891,-5.640679490095376,0.7416710381202399
1733513596686902800,9.82090283203125,7.204573651170731,-4.502762670391798,2.378363747294247
1733513596696921900,9.830921875,7.056636421588063,-2.9885575461149214,2.6359102293699976
1733513596706941000,9.84094091796875,6.958577029374242,-1.1179694256961346,2.05651430439502
1733513596716959700,9.850959716796876,6.289669468039274,0.8618237503290176,1.6092919304206967
1733513596726978800,9.860978759765626,5.664295343482494,2.604643568968773,0.5863912637550384
1733513596736999000,9.8709990234375,5.086128375780582,4.286681294387579,-0.0705428050611168
1733513596747018000,9.88101806640625,4.069468284004927,5.259884521752595,-0.735516314882785
1733513596757036800,9.891036865234375,3.3733447989642618,4.647679675370455,-1.366392690117657
1733513596767056000,9.901055908203125,3.231086784061789,3.6232764221221205,-1.87053098340407
1733513596777074700,9.91107470703125,3.227182177838683,2.6569045020818707,-1.6384297620996833
1733513596787093800,9.92109375,2.569849318963289,1.2240168940544127,-1.1810124495863914
1733513596797112600,9.931112548828125,1.078676695227623,0.09130699534416198,-0.5041751181654632
1733513596807131600,9.941131591796875,-0.49638771569225937,-0.11200374641418456,-0.4155927254796028
1733513596817150700,9.951150634765625,-1.1090261677186934,0.1913052466660738,-1.0628026881389319
1733513596827169800,9.961169677734375,-1.2707482500910758,0.34767128189802166,-2.0712898487225173
1733513596837188600,9.971188720703125,-1.7513140907406806,0.13536241016983985,-2.0709394278496505
1733513596847207700,9.981207763671875,-1.8739080586217343,-0.15076514648497102,-2.0637509776502845
1733513596857227800,9.991227783203126,-1.8354852428555488,-0.26788988917469975,-2.3543426741071043
1733513596867246800,10.001246826171876,-1.9747592735111712,0.003613514322042465,-2.7833243118613957
1733513596877265700,10.011265625,-2.1506207211993633,0.531480035328865,-2.6866478984385727
1733513596887284700,10.02128466796875,-2.3216731611706316,1.1515016929417847,-1.870216656757891
1733513596897303800,10.0313037109375,-2.3643232392430305,1.332990478992462,-1.070123313350603
1733513596907323000,10.041322998046875,-2.407705430982262,0.9295289208114147,-0.6503324055287987
1733513596917341700,10.051341796875,-2.4178363643743097,0.22632044594585896,-0.3379745752047747
1733513596927360800,10.06136083984375,-2.379300882013887,-0.48551615653336044,0.013135375905036925
1733513596937379800,10.0713798828125,-2.274552513555437,-0.9872884513407945,0.26889015225842594
1733513596947398700,10.081398681640625,-2.1033099578395484,-1.378211430466175,0.34242921652607616
1733513596957417700,10.091417724609375,-1.9049369647443293,-1.7639707432180642,0.3335990635342896
1733513596967437800,10.101437744140625,-1.6215172057434915,-2.1188293062716723,0.37226328684091564
1733513596977457000,10.111456787109375,-1.2559139613136647,-2.265543716061115,0.4901949619993567
1733513596987476000,10.12147607421875,-0.8179211879774928,-2.059938141363859,0.661237757359445
1733513596997494800,10.131494873046876,-0.3207514185294509,-1.4208002798706292,0.807536937411502
1733513597007513900,10.141513916015626,0.20655513050705193,-0.5601198543578386,0.8431453533440828
1733513597017533000,10.151532958984374,0.6715957775056361,0.30309564259052274,0.7358345870517193
1733513597027552000,10.161552001953124,0.7907964496865868,0.8770926311314106,0.3626185295306146
1733513597037570800,10.17157080078125,0.3124859867483377,1.144915884810686,-0.031622268905863164
1733513597047590000,10.18158984375,-0.7162067803874611,1.4670377149105072,-0.25247816583551463
1733513597057609000,10.19160888671875,-1.7297583847537636,2.6350065585285423,-0.8790939610164612
1733513597067627800,10.201627685546875,-2.580761465860903,4.274063804876804,-1.9963348532423375
1733513597077646800,10.211646728515625,-3.721540981519222,5.577974319857359,-3.3964737456172704
1733513597087666000,10.221666015625,-5.271079284983873,6.612449469786882,-5.1219455390930175
1733513597097685800,10.231685791015625,-6.625200230288505,7.306374568000435,-6.65061173492074
1733513597107704800,10.241704833984375,-7.661379261526465,7.181931611251831,-7.214151626855134
1733513597117723600,10.2517236328125,-8.871101088246702,5.679920782637596,-6.456046609675884
1733513597127742700,10.26174267578125,-11.385320874446629,2.849416201928258,-4.7262797493547195
1733513597137761800,10.27176171875,-17.31080047198534,0.4774702127218246,-1.9894202515482902
1733513597147780900,10.28178076171875,-22.786276540398596,0.674046677789092,1.2247450621984899
1733513597157799700,10.291799560546876,-21.336793186879156,3.1344384276896715,2.603376910033822
1733513597167818800,10.30181884765625,-19.210767831623553,5.890514667141437,3.422300553052127
1733513597177837800,10.311837890625,-14.664729498606919,7.257627780488133,4.063897205874324
1733513597187856600,10.321856689453124,-10.678262153893709,6.851562177288532,4.441731278584897
1733513597197875700,10.331875732421874,-6.617063685584068,4.963128603577614,3.319906638765335
1733513597207895800,10.341895751953125,-3.213649619309604,3.433440663486719,2.0210254962541163
1733513597217915000,10.351914794921875,-0.44944019615426656,3.1148838323920964,1.1626173995874822
1733513597227934000,10.361933837890625,2.194375837904215,3.3662469496577976,0.441928066958487
1733513597237952800,10.371952880859375,4.446376181781292,3.7322745569795366,-0.1644476348787546
1733513597247971800,10.381971923828125,6.683420948588847,4.67857282628417,-0.7180648293443024
1733513597257991000,10.391990966796875,8.704042978608607,5.9408712279379365,-0.7743119094841182
1733513597268009700,10.402009765625,9.501881455761193,6.87006580222845,-0.34763927932456135
1733513597278028800,10.41202880859375,9.25373262436688,7.370645672380924,0.28836116092577574
1733513597288047900,10.4220478515625,9.494843812209368,7.379936647817492,0.6841834564000367
1733513597298067000,10.43206689453125,9.5780931733042,6.929200128242373,1.4571046421781182
1733513597308085800,10.442085693359376,9.013843087273836,6.111698334720731,1.7440199882097542
1733513597318104800,10.452104736328126,7.1960513220191,4.769233924940228,1.8203646844826638
1733513597328124700,10.462124755859374,5.108841142848134,2.9251801757037637,1.3247143796868621
1733513597338143700,10.472143798828125,3.9057711752325295,1.2528823385328054,0.4167639612160623
1733513597348162800,10.482162841796875,2.0760190692014993,0.2806149307131767,-0.5093015212684869
1733513597358181600,10.492181640625,-2.402521744734049,0.09202829535603523,-2.7626909814164042
1733513597368200700,10.50220068359375,-2.681895150953531,0.6180670164138078,-3.9752071150302886
1733513597378219800,10.5122197265625,1.6400244839452207,0.9020371027737856,-2.9500837308138608
1733513597388238600,10.522238525390625,3.5558471459716556,0.9326654652714729,-1.5696313895530998
1733513597398257700,10.532257568359375,4.160115938657522,0.5038666367381811,-0.8404929391391575
1733513597408276700,10.54227685546875,5.254733714860677,-0.2723345936238766,-1.4101852162234485
1733513597418295800,10.5522958984375,7.303795072901249,-1.1064905848264694,-2.2781486383512615
1733513597428314600,10.562314697265625,8.314131806874276,-1.7334756517112253,-3.425443234992027
1733513597438333700,10.572333740234376,8.817211677148938,-2.459243748909235,-3.5522248638212677
1733513597448353800,10.582353759765626,9.244448078671097,-3.166890498483181,-2.659506501273811
1733513597458372900,10.592372802734374,9.161168322438002,-3.680818510508537,-1.8207338100560009
1733513597468392000,10.602391845703124,9.092380617415904,-3.9678795486211773,-1.1557770321734249
1733513597478410800,10.61241064453125,9.184696497541665,-4.28802101855874,-0.5493664051532745
1733513597488429800,10.622429931640625,9.199431125336885,-4.777186929771304,0.003468114501982927
1733513597498449000,10.632448974609375,9.184878283849358,-5.366975361683965,0.5114901173539459
1733513597508467700,10.6424677734375,8.8990991022408,-5.916337090662122,0.8537406893774867
1733513597518486800,10.65248681640625,7.931618344175815,-6.147853936207294,1.0866469434544443
1733513597528505600,10.662505615234375,6.773191820406914,-5.97040653450191,1.1108112245045603
1733513597538524700,10.672524658203125,5.8527376019328825,-5.567302703717351,0.8573891288824379
1733513597548543700,10.682543701171875,5.013641816240549,-5.00410884874165,0.5102693433873355
1733513597558562800,10.692562744140625,3.9623087627515194,-4.302325438243151,0.36128830384016036
1733513597568582700,10.702582763671876,2.786165672767162,-3.2724060519218443,0.5410092034354805
1733513597578601500,10.7126015625,0.9336030383825301,-1.6133441284209489,1.399819158901274
1733513597588620500,10.72262060546875,-4.001965358096361,1.1794909391075372,3.0948043364375826
1733513597598639600,10.7326396484375,-16.37758555613756,6.270924435558915,5.195504111778736
1733513597608658400,10.742658447265624,-23.119991777658463,9.785114460018276,6.776277511462569
1733513597618677500,10.752677490234374,-13.664839339846372,5.289677017948031,7.488917831540108
1733513597628696600,10.762696533203124,-6.620653819030523,1.262428165513277,7.8400307783246035
1733513597638715600,10.772715576171874,-3.8418613053798674,-0.6648381199389696,7.091762095504999
1733513597648734500,10.782734375,-2.8537434174776077,-1.7856722874164581,5.400620441654325
1733513597658753500,10.79275341796875,-3.035358460256457,-2.4583324792832135,3.128589117139578
1733513597668772600,10.802772705078125,-3.316141148751974,-2.7456664891183373,0.9468466969676316
1733513597678791700,10.812791748046875,-4.4448909116595985,-2.8722441198080775,-0.709692576187849
1733513597688811500,10.8228115234375,-2.6967215486854315,-3.2543618611872196,-2.5282979959130287
1733513597698830600,10.83283056640625,2.391857435117662,-2.352720479732752,-3.651694707354903
1733513597708849700,10.842849609375,7.2394310295403,0.3865846576601267,-4.207752426840365
1733513597718868700,10.85286865234375,8.8418054356575,3.615134616720676,-3.7609225593149658
1733513597728887600,10.862887451171876,5.027545253908634,5.961124911415577,-2.8373002321988343
1733513597738906600,10.87290673828125,1.3765819295682011,8.324657877063752,-0.5760150503650308
1733513597748925700,10.88292578125,2.5719962678641077,9.289779504781961,2.682495454934239
1733513597758944800,10.89294482421875,4.675993331184983,6.699463736373186,2.8363243729040026
1733513597768963600,10.902963623046874,5.816500751903653,1.7201012063533068,0.8143579425379633
1733513597778982700,10.912982666015624,6.718567080771923,-3.1484464947760102,-0.8150200597085058
1733513597789001700,10.923001708984375,7.401836929458379,-6.223464180725813,-0.6891143369309604
1733513597799020800,10.933020751953125,7.765835661301017,-6.751628223374485,1.0125334402997046
1733513597809040600,10.94304052734375,7.668852958407998,-5.582963214185834,2.563441205486655
1733513597819059700,10.953059814453125,7.492992533633113,-3.8038480933278795,2.608887782409787
1733513597829078800,10.963078857421875,7.6381240581452845,-1.8895564402610063,1.9800708239227531
1733513597839097900,10.973097900390625,7.4259396895796055,0.08360182779431342,1.3419935773983598
1733513597849116700,10.98311669921875,6.727775054100156,1.7390566667139529,0.5435599838968366
1733513597859135700,10.9931357421875,6.185697052389383,3.295021788355708,-0.6038822045210749
1733513597869154800,11.00315478515625,5.266212555730343,4.645201302558183,-1.0542204454936086
1733513597879173600,11.013173583984376,3.761574885743856,4.786785363721847,-1.1838332060955463
1733513597889192700,11.023192626953126,3.0033991414159535,3.846618144518137,-1.6726153786875306
1733513597899211500,11.03321142578125,2.4888264017462727,3.1279572489768266,-1.6280498223826287
1733513597909230600,11.043230712890624,2.0758196011066437,2.512415951648354,-1.4023787802562118
1733513597919249700,11.053249755859374,1.6159201163887977,0.8580325413525104,-1.4692355172157288
1733513597929269500,11.06326953125,-0.16974983294010162,-0.6155056414932012,-2.125243264967203
1733513597939288600,11.07328857421875,-1.790333264964819,-0.43769817430377006,-1.8875928851030765
1733513597949307600,11.0833076171875,-2.5130349603295326,0.06838496944010257,-1.4984939065344631
1733513597959326700,11.09332666015625,-2.746415846180916,0.27139994312226773,-1.4945657733052968
1733513597969345500,11.103345458984375,-2.9516449887812137,0.09212766407728194,-1.4246039099372922
1733513597979364600,11.113364501953125,-2.9169559527158735,-0.045026305684447286,-1.7073155206687747
1733513597989383700,11.1233837890625,-2.713510770922899,-0.07266425419449805,-2.035108966664225
1733513597999402800,11.13340283203125,-2.42234887336269,0.16096856059134004,-1.9005210479982195
1733513598009421600,11.143421630859375,-2.375139232289791,0.53231005641222,-1.5915315250635147
1733513598019440600,11.153440673828126,-2.3164333608210086,0.7438023510605096,-1.2906852688349784
1733513598029459700,11.163459716796876,-2.0398611296273765,0.6579968757420778,-0.9776469819661229
1733513598039478500,11.173478515625,-1.7057202143013477,0.3595926058381796,-0.7085531238291413
1733513598049498600,11.18349853515625,-1.2915139747440814,-0.09053484192788601,-0.6793029908820987
1733513598059517700,11.193517578125,-1.0053623065613209,-0.5658832401901484,-0.6743141696188598
1733513598069536800,11.203536865234375,-0.754602708146721,-0.9000655104398727,-0.5651960616435855
1733513598079555800,11.213555908203125,-0.5105179113209247,-1.0940063663065434,-0.5295774165779352
1733513598089574700,11.22357470703125,-0.354809024823457,-1.2354285149067639,-0.44922450757697224
1733513598099593700,11.23359375,-0.3190544053532183,-1.3825164341837166,-0.16491846726089715
1733513598109612800,11.24361279296875,-0.31879969993978735,-1.3750883300095795,0.23748349886462092
1733513598119632000,11.2536318359375,-0.21119375009313224,-1.1397504648715258,0.6657152680996805
1733513598129650700,11.263650634765625,0.049462388435751195,-0.7075877128630876,1.0046908370405434
1733513598139669800,11.273669677734375,0.4679194173052907,-0.2611316470861435,1.161047373791784
1733513598149688800,11.283688720703125,0.8941013413384556,0.12650514997541903,1.104531925039366
1733513598159707600,11.293707763671875,1.0416907803967594,0.3883966755181551,0.6730217186555266
1733513598169727500,11.3037275390625,0.5708668738216162,0.5531827485710382,0.15668511111848055
1733513598179746600,11.31374658203125,-0.504875813780725,0.7922504478871822,-0.11541428551003337
1733513598189765600,11.323765625,-1.7135954777210949,1.5961352194666862,-0.5605309193767607
1733513598199784700,11.33378466796875,-2.5170275370970367,3.116418786874413,-1.5628968206010758
1733513598209803500,11.343803466796874,-3.1802409784436225,4.759447859463095,-2.997915157046914
1733513598219822600,11.353822509765624,-4.316538380251824,6.072243107166886,-4.602415469276905
1733513598229841700,11.363841552734375,-5.88345948793292,6.7786793119072914,-6.234206524014472
1733513598239860700,11.37386083984375,-7.140843814060092,6.710293173423409,-7.454965293055772
1733513598249879600,11.383879638671875,-7.886078243750333,5.984378945752978,-7.535716992115974
1733513598259898600,11.393898681640625,-8.569896373969316,4.43778195643723,-6.2770326893061394
1733513598269917700,11.403917724609375,-9.84840824379921,2.2972353238761425,-4.2865608828783035
1733513598279937800,11.413937744140625,-12.755048554205894,1.018507765468955,-1.9309658706225454
1733513598289956600,11.42395654296875,-17.160286085391043,1.126508121460676,1.1361141541957855
1733513598299975700,11.4339755859375,-17.07290123192668,2.1810119139403104,2.8764783963769673
1733513598309994800,11.443994873046876,-14.450842417776585,3.898610782083869,3.767168175706267
1733513598320013800,11.454013916015626,-14.467440501356124,5.661519449028372,5.200472547841072
1733513598330032600,11.46403271484375,-12.854086436063051,5.571461576962471,5.491224841687083
1733513598340051700,11.4740517578125,-9.151951581281423,4.2299113594174385,4.363084442849457
1733513598350070800,11.48407080078125,-6.733680478751659,2.946580691128969,2.787026088988781
1733513598360089600,11.494089599609374,-4.229675212574005,2.026115951260924,1.4445236852854488
1733513598370108700,11.504108642578124,-1.5191631850756704,1.8003420332819222,0.4897054249167442
1733513598380127700,11.514127685546875,1.0024585479438304,2.235174296760559,-0.2887134814947843
1733513598390146800,11.524146728515625,3.5244869620680808,2.72106220921576,-1.4821008440077303
1733513598400166700,11.534166748046875,5.520418787467479,3.208324917155504,-2.4779542945981023
1733513598410185500,11.544185546875,6.8948296566069125,3.894037482818961,-2.864516740426421
1733513598420204500,11.55420458984375,7.585794151449203,4.804903788736462,-2.7060610394388434
1733513598430223600,11.5642236328125,8.2440336037755,5.639766466903686,-2.078341082408279
1733513598440242700,11.57424267578125,9.093926093292236,6.194064483240246,-1.7749378351733087
1733513598450261500,11.584261474609375,9.094192635273933,6.033348436105251,-1.4725066478408873
1733513598460280600,11.594280517578126,8.206406760692596,5.429439124381542,-1.0307809715867042
1733513598470299600,11.604299560546876,7.241682607859373,4.8064966108858584,-0.7267727441959083
1733513598480318500,11.614318359375,6.753001265293359,3.950043447679281,-0.8241495609730481
1733513598490337500,11.624337646484374,5.779840708026289,3.1495465649724004,-0.37312531049773096
1733513598500356600,11.634356689453124,4.162456364303827,2.569502697482705,-0.6113445762909948
1733513598510375700,11.644375732421874,1.7441482907645403,1.8641583796322345,-1.949991473609954
1733513598520395500,11.6543955078125,0.1546514863990247,0.7501607801765203,-2.900883938837051
1733513598530414300,11.664414306640625,0.746416332951188,0.37158348788321016,-2.4866993265897035
1733513598540433400,11.674433349609375,0.6752893713265657,0.7215273908883333,-0.9598334581822157
1733513598550452500,11.684452392578125,-0.03399389340803027,0.616311697179079,0.5668524505484849
1733513598560471600,11.694471435546875,1.0497983912676572,0.18987667516767978,1.1814970182329416
1733513598570490400,11.704490478515625,3.3530577977389093,0.10445406168699264,-0.3841681711029261
1733513598580509400,11.714509521484375,6.193302851217985,-0.41426235365867614,-1.3080150276899336
1733513598590528500,11.724528564453125,8.1357713819772,-1.262922086510062,-1.1578330879203975
1733513598600547600,11.734547607421876,9.16760449296534,-2.210634898787737,-0.8895113831996917
1733513598610566400,11.74456640625,9.297654768201708,-3.103344201245904,-0.3621340339493006
1733513598620585500,11.75458544921875,8.795849155646563,-3.7733050710260865,0.07096490293070673
1733513598630604500,11.7646044921875,8.399977614203095,-4.319766986909508,0.25962927969917654
1733513598640624600,11.774624755859374,8.190983566111326,-4.719556578579545,0.37119697278365493
1733513598650643500,11.7846435546875,7.8781392674446105,-4.968194070273637,0.4788472001634538
1733513598660662500,11.79466259765625,7.637182393380999,-5.060066882807016,0.7823784576922654
1733513598670681600,11.804681640625,7.21311585406661,-5.06093606685698,1.1532847769662737
1733513598680700400,11.814700439453125,6.4254691005826,-4.948508542072773,1.4443898297727107
1733513598690719500,11.824719482421875,5.449478288325667,-4.639563004410267,1.4497580788075923
1733513598700738300,11.83473828125,4.603283484283089,-4.326013772344589,0.9885768106509
1733513598710757400,11.84475732421875,3.8396976976051924,-3.955344476696849,0.6570402326043695
1733513598720776400,11.8547763671875,2.9441818132936954,-3.3560657473832367,0.7160543663047254
1733513598730795300,11.864795166015625,1.4116557271674275,-2.4166531459391116,1.0798675124473869
1733513598740814300,11.874814453125,-1.2580682167381048,-0.9253045811146497,1.7146699750848113
1733513598750833400,11.88483349609375,-6.547566370987892,1.7778414476603268,2.851376103824377
1733513598760853500,11.894853515625,-15.229232682615518,6.183699156570434,3.4489597196578976
1733513598770872300,11.904872314453126,-17.23235529630184,8.139877063730358,3.176292240817845
1733513598780891400,11.914891357421874,-11.785758116370438,4.688519050759076,2.942669362904131
1733513598790910500,11.924910400390624,-7.489162746211886,1.438283329591155,2.7423975504502653
1733513598800929500,11.934929443359374,-4.871463004054129,-0.34009120203256604,2.9094886855751274
1733513598810948400,11.9449482421875,-3.6382542110234497,-1.951016578873992,2.343298279131949
1733513598820967400,11.954967529296875,-2.7637098030701277,-2.9076304904878136,1.0431598300360143
1733513598830986500,11.964986572265625,-1.0636375315278768,-3.4729864919334648,-0.8913440054543316
1733513598841005600,11.975005615234375,0.5319365469247103,-3.732618840372562,-3.1324574830055236
1733513598851024400,11.9850244140625,0.06126198569238186,-3.3156501503646374,-5.213876219293475
1733513598861043500,11.99504345703125,1.290979721736908,-2.6729730088293553,-6.307274098312854
1733513598871062500,12.0050625,5.21319642033577,-1.909104021295905,-6.523848226270079
1733513598881082600,12.01508251953125,7.85486419031918,-0.8340086916863918,-5.958310438516736
1733513598891101400,12.025101318359376,7.781034983998537,0.7098889755427837,-3.6205145561933514
1733513598901120500,12.03512060546875,4.377382725054026,2.8928263045877216,0.13942512956410646
1733513598911139600,12.0451396484375,-3.872065304985642,6.817821235728263,4.731611465771496
1733513598921158700,12.05515869140625,-7.818941813066601,10.58025536864996,8.890013293987511
1733513598931177500,12.065177490234374,-0.9888339272171258,8.309996899026633,8.370831599217652
1733513598941196500,12.075196533203124,4.241679538622498,2.218466907587647,4.91248153540194
1733513598951215600,12.085215576171874,6.767721864563226,-2.7706688284277914,2.342264259909093
1733513598961234400,12.095234375,7.847151423984766,-5.7231666346460575,1.5341649393744765
1733513598971253500,12.10525341796875,8.358461946988106,-6.355068699666857,2.1602748308598994
1733513598981272600,12.1152724609375,8.170952585473657,-5.659691064557433,3.436437507215142
1733513598991291600,12.125291748046875,7.675570868486165,-4.338230279839038,3.9675720901072022
1733513599001311500,12.1353115234375,7.046034363552928,-3.025646044537425,3.3779593070223926
1733513599011330300,12.145330322265625,6.302449454635381,-1.6352695445030927,2.5532161640703674
1733513599021349400,12.155349365234375,5.635827958410978,-0.012852467310428618,1.8763032831951976
1733513599031368400,12.165368408203125,5.149380658507347,1.7707406757444142,1.2641148034259677
1733513599041387500,12.175387451171876,4.445350345864892,3.5424282769501207,0.8615971019662916
1733513599051406300,12.18540625,3.978573961114883,4.684028169080615,0.05938603575266897
1733513599061425400,12.19542529296875,3.5197704549401996,4.891494861474633,-0.9766133280694484
1733513599071444500,12.205444580078124,3.027684272366762,4.626247595763206,-2.2055754234410823
1733513599081463300,12.21546337890625,2.27730312743783,4.0508524308621885,-2.8500305344343184
1733513599091482400,12.225482421875,1.478828690469265,3.155668262723088,-3.110018856704235
1733513599101501400,12.23550146484375,1.2778268101751804,2.003273420333862,-5.019622644215822
1733513599111520500,12.2455205078125,-0.4047791435856372,0.23772388349175452,-7.206071196252108
1733513599121540600,12.25554052734375,-2.5570073730468748,0.3201905697762966,-6.091586690062284
1733513599131559400,12.265559326171875,-3.6949990115523335,0.4835311201959848,-3.973492127805948
1733513599141578500,12.27557861328125,-3.8135377126932144,0.29634207667708395,-2.618854757411778
1733513599151597600,12.28559765625,-3.5737586502373215,0.24681495244204996,-1.7685789676658807
1733513599161616600,12.29561669921875,-2.982002717643976,0.39496319442689415,-1.3167121288865804
1733513599171635500,12.305635498046875,-2.2551509168624877,0.5219271940857172,-0.5811787167385221
1733513599181654500,12.315654541015626,-1.6624388525880873,0.5363146158784627,0.019233400519192218
1733513599191673600,12.325673583984376,-1.326737263816595,0.45973289597928524,0.389172628326714
1733513599201692400,12.3356923828125,-1.2435748503528534,0.22634090421199798,0.4398432235084474
1733513599211711500,12.34571142578125,-1.2845534880816936,-0.03636953649818897,0.2531368489399552
1733513599221730600,12.35573046875,-1.343351860139519,-0.2656014859765768,-0.11737301836237311
1733513599231749600,12.36574951171875,-1.3411961434103548,-0.38501346282064913,-0.5254416319474577
1733513599241769500,12.37576953125,-1.2840506531260907,-0.410892584964633,-0.8927930352188647
1733513599251788300,12.385788330078125,-1.2258591609202325,-0.4142997630596161,-1.2971195396661757
1733513599261807400,12.395807373046875,-1.0895089087568224,-0.4220096067845821,-1.5917315776802599
1733513599271826400,12.405826416015625,-0.9031061933100223,-0.4983160168737173,-1.608361809963733
1733513599281845200,12.41584521484375,-0.7325717858634889,-0.7302917121022939,-1.3898974843457341
1733513599291864300,12.4258642578125,-0.5556747115172446,-1.0313596482574938,-0.9490750405415892
1733513599301883400,12.43588330078125,-0.3857132816530764,-1.223375089019537,-0.35661943524628875
1733513599311902500,12.44590234375,-0.20770649249926207,-1.17555067704916,0.24253844416663048
1733513599321921300,12.45592138671875,0.06646130790114402,-0.9972937125265597,0.7518861426644027
1733513599331940400,12.4659404296875,0.4487279562316835,-0.762007869836688,1.1356535509467125
1733513599341959400,12.47595947265625,0.8029545049920678,-0.44095571479499335,1.2925685983635484
1733513599351979500,12.4859794921875,0.9622434419333934,-0.07601999436318874,1.2007324645787476
1733513599361998600,12.49599853515625,0.7965259332492947,0.21254618761539457,0.8054264480635523
1733513599372017400,12.506017333984374,0.24439663925394414,0.41645314170122144,0.43229573073834177
1733513599382036500,12.516036376953124,-0.5783183588713408,0.8963421060025691,0.11828618768453597
1733513599392055600,12.5260556640625,-1.593593426029384,1.8093430858612058,-0.4107598984956741
1733513599402074400,12.536074462890625,-2.565021168154478,2.9482278738141057,-1.2788609755285083
1733513599412093400,12.546093505859375,-3.444323292028904,3.898229089289903,-2.2951231540277597
1733513599422112500,12.556112548828125,-4.498388985352218,4.3454988095372915,-3.5536949363738297
1733513599432131600,12.566131591796875,-5.718101752471924,4.248489218637347,-4.7647944811880585
1733513599442150400,12.576150390625,-6.663571169736981,3.9254654712617394,-5.493518505582213
1733513599452169500,12.58616943359375,-7.593174324828386,3.371962404695153,-5.523813690602779
1733513599462188500,12.5961884765625,-9.71106547346711,2.557100896549225,-4.55203202047348
1733513599472208400,12.60620849609375,-15.360496425294874,2.131453810045123,-1.891005031634122
1733513599482227500,12.6162275390625,-25.08668348004818,2.6011896291226146,1.9800217240840194
1733513599492246300,12.626246337890626,-24.50669748022556,3.6891210594296453,3.005766455069184
1733513599502265300,12.636265380859374,-17.813406295007468,5.338273583334684,1.9755776041567323
1733513599512284400,12.646284423828124,-11.570352447670697,6.396644572636485,1.1329309941150247
1733513599522304300,12.65630419921875,-7.183765840941667,6.5349482969552275,0.8336465803757309
1733513599532323000,12.666322998046875,-4.681251690104603,5.786454573208093,0.3260441181100905
