time,seconds_elapsed,z,y,x
1733724629138015200,0.10501513671875,0.4709433317184448,0.24494725465774536,-0.1909763365983963
1733724629147976000,0.114975830078125,0.4857819080352783,-0.35268205404281616,-0.04429050534963608
1733724629157937200,0.124937255859375,0.4119116961956024,-0.7848723530769348,0.14381656050682068
1733724629167897900,0.13489794921875,0.22071191668510437,-1.150694489479065,0.3442191481590271
1733724629177859000,0.144859130859375,-0.06875066459178925,-1.3697324991226196,0.557975709438324
1733724629187820000,0.154820068359375,-0.41661328077316284,-1.2913717031478882,0.6048324704170227
1733724629197780700,0.16478076171875,-0.6970791816711426,-1.0405751466751099,0.47780710458755493
1733724629207742000,0.174741943359375,-0.7800033688545227,-0.8782861828804016,0.27147576212882996
1733724629217703000,0.184702880859375,-0.6656948924064636,-0.9227800965309143,0.06633742898702621
1733724629227664000,0.194663818359375,-0.5129338502883911,-1.0328433513641357,-0.074749656021595
1733724629237624800,0.204624755859375,-0.41443702578544617,-1.1444212198257446,-0.1746721714735031
1733724629247586000,0.2145859375,-0.3781096339225769,-1.1290172338485718,-0.23478317260742188
1733724629257547000,0.224547119140625,-0.3470653295516968,-0.8913686275482178,-0.3314790427684784
1733724629267508000,0.234508056640625,-0.29826903343200684,-0.542864978313446,-0.5063760280609131
1733724629277469000,0.244468994140625,-0.25482404232025146,-0.08445560932159424,-0.6898267269134521
1733724629287430100,0.25443017578125,-0.217183455824852,0.3344918489456177,-0.824185848236084
1733724629297390800,0.264390869140625,-0.21455100178718567,0.5959908366203308,-0.8763410449028015
1733724629307352000,0.27435205078125,-0.2595168948173523,0.6539806723594666,-0.8452063202857971
1733724629317313000,0.28431298828125,-0.3173244297504425,0.5982518196105957,-0.7782106995582581
1733724629327273700,0.294273681640625,-0.3590897023677826,0.49557098746299744,-0.694980263710022
1733724629337235000,0.30423486328125,-0.36328667402267456,0.5016462206840515,-0.6476150155067444
1733724629347196000,0.31419580078125,-0.3596504032611847,0.6248422265052795,-0.6782972812652588
1733724629357156900,0.324156982421875,-0.2942472994327545,0.6990577578544617,-0.678605854511261
1733724629367117800,0.334117919921875,-0.150546595454216,0.5319633483886719,-0.6292197108268738
1733724629377079000,0.3440791015625,-0.040888711810112,0.2933804988861084,-0.5384576916694641
1733724629387040000,0.3540400390625,-0.01480438094586134,0.1473013162612915,-0.42290791869163513
1733724629397001000,0.3640009765625,-0.045542579144239426,-0.058808501809835434,-0.2550124228000641
1733724629406962000,0.3739619140625,-0.05952364206314087,-0.1724514365196228,-0.09680652618408203
1733724629416921900,0.383921875,-0.05107039585709572,-0.2460615485906601,0.01656833291053772
1733724629426883000,0.393883056640625,-0.030717987567186356,-0.36845138669013977,0.04128566384315491
1733724629436843800,0.40384375,-0.019286245107650757,-0.4199516773223877,0.007282457780092955
1733724629446805000,0.413804931640625,-0.0007109628058969975,-0.39600878953933716,-0.03575769066810608
1733724629456766000,0.423765869140625,0.026979899033904076,-0.3682095408439636,-0.05860459804534912
1733724629466727000,0.433726806640625,0.04614214599132538,-0.5049028992652893,-0.09427817165851593
1733724629476688000,0.44368798828125,-0.010617885738611221,-0.7638707756996155,-0.16414427757263184
1733724629486649000,0.453649169921875,-0.09451411664485931,-0.7686548829078674,-0.22262783348560333
1733724629496610000,0.463610107421875,-0.14552992582321167,-0.7027328014373779,-0.2790289521217346
1733724629506571000,0.473571044921875,-0.1945912092924118,-0.6972152590751648,-0.2985435128211975
1733724629516532000,0.483531982421875,-0.233916774392128,-0.6704870462417603,-0.2747860550880432
1733724629526493200,0.4934931640625,-0.26509785652160645,-0.5886446237564087,-0.22239795327186584
1733724629536454000,0.503453857421875,-0.2719193994998932,-0.4590039551258087,-0.19827090203762054
1733724629546414800,0.513414794921875,-0.2436206340789795,-0.3241116404533386,-0.2397560179233551
1733724629556376000,0.5233759765625,-0.19319717586040497,-0.2037477046251297,-0.2763938009738922
1733724629566336800,0.533336669921875,-0.15788206458091736,-0.12126775085926056,-0.2710709273815155
1733724629576298000,0.543298095703125,-0.14082270860671997,-0.09555722773075104,-0.2194730043411255
1733724629586259000,0.553259033203125,-0.1282949298620224,-0.08503774553537369,-0.14642968773841858
1733724629596220000,0.563219970703125,-0.10190542042255402,-0.0021830019541084766,-0.04809745401144028
1733724629606180900,0.573180908203125,-0.09030921757221222,0.06789355725049973,0.04106064885854721
1733724629616142000,0.58314208984375,-0.09354201704263687,-0.03431113064289093,0.08436386287212372
1733724629626103000,0.59310302734375,-0.0680563673377037,-0.2729841470718384,0.11308205872774124
1733724629636064000,0.60306396484375,0.016760962083935738,-0.4344310760498047,0.1434027999639511
1733724629646025000,0.61302490234375,0.10207000374794006,-0.4893832504749298,0.20842014253139496
1733724629655986200,0.622986083984375,0.1589304655790329,-0.5678530931472778,0.2966424822807312
1733724629665947000,0.63294677734375,0.17981524765491486,-0.6903150677680969,0.3944428265094757
1733724629675907800,0.642907958984375,0.18101230263710022,-0.6648366451263428,0.47484588623046875
1733724629685869000,0.652869140625,0.24073955416679382,-0.6941636800765991,0.4711366295814514
1733724629695829000,0.6628291015625,0.34774795174598694,-0.9196733236312866,0.4662631154060364
1733724629705790000,0.6727900390625,0.4559388756752014,-1.3704756498336792,0.44245123863220215
1733724629715751000,0.6827509765625,0.5217207074165344,-1.5452165603637695,0.3326243758201599
1733724629725712100,0.692712158203125,0.5769858360290527,-1.1127516031265259,0.2365812212228775
1733724629735672800,0.7026728515625,0.6546449065208435,-1.0068573951721191,0.1355007439851761
1733724629745633800,0.7126337890625,0.7665466666221619,-0.9762731790542603,0.1291421800851822
1733724629755595000,0.722594970703125,0.8720169067382812,-0.79838627576828,0.2543655037879944
1733724629765556000,0.732555908203125,0.9258583188056946,-0.6185570955276489,0.4185411036014557
1733724629775517000,0.742516845703125,0.9165065884590149,-0.4459194839000702,0.6023954153060913
1733724629785478000,0.752477783203125,0.7834734320640564,-0.340358167886734,0.804229736328125
1733724629795439000,0.762439208984375,0.5819951891899109,-0.31914129853248596,0.9665132761001587
1733724629805399800,0.77239990234375,0.4514544606208801,-0.24698001146316528,1.0820482969284058
1733724629815361000,0.782361083984375,0.4069764316082001,-0.17113494873046875,1.1535619497299194
1733724629825322000,0.792322021484375,0.42801380157470703,0.004621709696948528,1.1593199968338013
1733724629835283000,0.802282958984375,0.48520299792289734,0.28138408064842224,1.0933595895767212
1733724629845244000,0.812243896484375,0.5476565361022949,0.5010154843330383,0.9484191536903381
1733724629855205000,0.822205078125,0.5090065002441406,0.5196084976196289,0.7690883874893188
1733724629865165800,0.832165771484375,0.4739398658275604,0.500486433506012,0.6403411030769348
1733724629875126800,0.842126708984375,0.43589457869529724,0.4700104296207428,0.5495670437812805
1733724629885088000,0.852087890625,0.3505783677101135,0.3822539448738098,0.48955005407333374
1733724629895049000,0.862049072265625,0.2455875724554062,0.30067217350006104,0.4854549169540405
1733724629905010000,0.872010009765625,0.15565873682498932,0.2582448124885559,0.469841867685318
1733724629914971000,0.881970947265625,0.08566434681415558,0.2679878771305084,0.40921518206596375
1733724629924932000,0.89193212890625,0.03073905222117901,0.28504249453544617,0.3186804950237274
1733724629934892800,0.901892822265625,-0.024243773892521858,0.34999990463256836,0.2054990977048874
1733724629944854000,0.91185400390625,-0.08311747759580612,0.3766445815563202,0.1359969824552536
1733724629954815000,0.92181494140625,-0.14829497039318085,0.38815802335739136,0.12343279272317886
1733724629964776000,0.93177587890625,-0.18904931843280792,0.33696460723876953,0.14408746361732483
1733724629974736000,0.94173583984375,-0.18161442875862122,0.26968827843666077,0.17689092457294464
1733724629984696800,0.95169677734375,-0.14316478371620178,0.23748637735843658,0.2236429899930954
1733724629994658000,0.961657958984375,-0.10163027048110962,0.23863805830478668,0.263298898935318
1733724630004619000,0.971618896484375,-0.059608250856399536,0.2638850808143616,0.28937283158302307
1733724630014580000,0.981580078125,-0.024789469316601753,0.3147255778312683,0.28561368584632874
1733724630024541000,0.991541015625,-0.002201868686825037,0.3561214804649353,0.24847537279129028
1733724630034502100,1.001502197265625,-0.020939543843269348,0.3515463173389435,0.22637277841567993
1733724630044462800,1.011462890625,-0.05669141560792923,0.33392420411109924,0.26031264662742615
1733724630054424000,1.021424072265625,-0.072537861764431,0.28304705023765564,0.31470224261283875
1733724630064385000,1.031385009765625,-0.07884476333856583,0.22147983312606812,0.3421003222465515
1733724630074346000,1.041345947265625,-0.0736195519566536,0.17266426980495453,0.33505403995513916
1733724630084307000,1.051306884765625,-0.06090269237756729,0.1491355150938034,0.2935188412666321
1733724630094268000,1.061267822265625,-0.04143274575471878,0.14980252087116241,0.23927754163742065
1733724630104228900,1.071228759765625,-0.02540930174291134,0.13594715297222137,0.21910542249679565
1733724630114189800,1.08118994140625,-0.0028411266393959522,0.11443810909986496,0.2518065869808197
1733724630124151000,1.091151123046875,0.017485450953245163,0.1122865378856659,0.32610398530960083
1733724630134112000,1.101112060546875,0.048297036439180374,0.12704427540302277,0.38745972514152527
1733724630144073200,1.1110732421875,0.060999780893325806,0.13343772292137146,0.4444015920162201
1733724630154034200,1.1210341796875,0.0512002557516098,0.13244029879570007,0.48076605796813965
1733724630163995400,1.130995361328125,0.032387688755989075,0.12566335499286652,0.45833292603492737
1733724630173956000,1.1409560546875,0.015173856168985367,0.147781103849411,0.3807854950428009
1733724630183917300,1.150917236328125,0.004674343392252922,0.15342222154140472,0.2829154133796692
1733724630193878300,1.160878173828125,0.0021726395934820175,0.133320614695549,0.20085911452770233
1733724630203839200,1.170839111328125,0.0034810504876077175,0.12043251097202301,0.1575755625963211
1733724630213800200,1.18080029296875,0.00656286021694541,0.12602221965789795,0.15998944640159607
1733724630223761400,1.190761474609375,0.018290355801582336,0.150039941072464,0.20597904920578003
1733724630233722000,1.20072216796875,0.054301876574754715,0.22274872660636902,0.265331894159317
1733724630243683300,1.210683349609375,0.10238338261842728,0.29300132393836975,0.29551801085472107
1733724630253644300,1.220644287109375,0.14702947437763214,0.32767510414123535,0.2959412634372711
1733724630263604200,1.230604248046875,0.19615866243839264,0.3276863098144531,0.27774256467819214
1733724630273565200,1.240565185546875,0.20638535916805267,0.28176388144493103,0.25619640946388245
1733724630283526100,1.250526123046875,0.17566552758216858,0.1854482740163803,0.2386629581451416
1733724630293487400,1.2604873046875,0.11994185298681259,0.05663062259554863,0.22307850420475006
1733724630303448300,1.2704482421875,0.06799690425395966,-0.058934055268764496,0.20200251042842865
1733724630313409300,1.2804091796875,0.03222211077809334,-0.11418291181325912,0.17912070453166962
1733724630323370200,1.290370361328125,0.012432960793375969,-0.12907476723194122,0.15331973135471344
1733724630333331500,1.30033154296875,0.0012707398273050785,-0.11879005283117294,0.12702253460884094
1733724630343292200,1.310292236328125,-0.005699551664292812,-0.09553132951259613,0.09948571026325226
1733724630353253400,1.32025341796875,-0.004127807449549437,-0.05117448419332504,0.07076559960842133
1733724630363214300,1.33021435546875,-0.000543725211173296,-0.01841680333018303,0.03452051430940628
1733724630373175000,1.340175048828125,0.005029304418712854,0.004177885130047798,-0.009073961526155472
1733724630383136300,1.35013623046875,-0.012092158198356628,0.022406956180930138,-0.04267879202961922
1733724630393097200,1.36009716796875,-0.034300386905670166,0.011121425777673721,-0.06724940240383148
1733724630403058200,1.37005810546875,-0.053009625524282455,-0.024524185806512833,-0.09373108297586441
1733724630413019100,1.38001904296875,-0.061298951506614685,-0.046012211591005325,-0.11776596307754517
1733724630422980400,1.38998046875,-0.06293945759534836,-0.074787937104702,-0.13041117787361145
1733724630432941300,1.39994140625,-0.058814436197280884,-0.07420101016759872,-0.1254376769065857
1733724630442902300,1.40990234375,-0.04343415051698685,-0.06304635852575302,-0.113522969186306
1733724630452863200,1.41986328125,-0.03028237074613571,-0.06395670026540756,-0.10705128312110901
1733724630462824400,1.429824462890625,-0.018400143831968307,-0.06822308897972107,-0.0867508053779602
1733724630472785200,1.43978515625,-0.008991765789687634,-0.08125676214694977,-0.04392705112695694
1733724630482746400,1.449746337890625,-0.0034499941393733025,-0.09806211292743683,-0.008197548799216747
1733724630492707300,1.459707275390625,-0.0023846463300287724,-0.11135570704936981,0.011650418862700462
1733724630502668000,1.46966796875,0.004276718012988567,-0.1002362072467804,0.007992301136255264
1733724630512629200,1.479629150390625,0.015389496460556984,-0.0805034339427948,-0.005147235468029976
1733724630522590200,1.489590087890625,0.027048280462622643,-0.07034879922866821,-0.023805607110261917
1733724630532551200,1.49955126953125,0.03724236041307449,-0.07986796647310257,-0.02364303544163704
1733724630542512000,1.50951220703125,0.03213122487068176,-0.08042722940444946,-0.007875258103013039
1733724630552473300,1.519473388671875,0.021957574412226677,-0.06308518350124359,-0.0031764707528054714
1733724630562434300,1.529434326171875,0.0023484528064727783,-0.021239466965198517,-0.0024861800484359264
1733724630572395300,1.539395263671875,-0.014156481251120567,0.02207626961171627,-0.004371712449938059
1733724630582356200,1.549356201171875,-0.022274861112236977,0.05563928931951523,-0.014339393004775047
1733724630592316200,1.559316162109375,-0.019567809998989105,0.07585998624563217,-0.024338573217391968
1733724630602277400,1.56927734375,-0.0058306921273469925,0.07970345765352249,-0.030281949788331985
1733724630612238000,1.579238037109375,0.0029577603563666344,0.07879684865474701,-0.01864134520292282
1733724630622199300,1.58919921875,0.0037409961223602295,0.06268312782049179,0.007361226715147495
1733724630632160300,1.59916015625,-0.0011544330045580864,0.04354489967226982,0.04091200977563858
1733724630642121200,1.609121337890625,-0.019785109907388687,-0.002242294605821371,0.07875765860080719
1733724630652082200,1.619082275390625,-0.025526558980345726,-0.039636094123125076,0.09779396653175354
1733724630662043400,1.62904345703125,-0.03812144324183464,-0.05464779958128929,0.09438059478998184
1733724630672004000,1.639004150390625,-0.03642840310931206,-0.038770891726017,0.06357979029417038
1733724630681965300,1.64896533203125,-0.024761363863945007,-0.0009707827121019363,0.023348217830061913
1733724630691926300,1.65892626953125,-0.022266652435064316,0.028634101152420044,-0.012273136526346207
1733724630701887200,1.66888720703125,-0.02319476380944252,0.05026669055223465,-0.031404752284288406
1733724630711848200,1.67884814453125,-0.015184171497821808,0.06806453317403793,-0.030166395008563995
1733724630721809200,1.68880908203125,-0.007879387587308884,0.05674530565738678,-0.005690611433237791
1733724630731770400,1.698770263671875,0.003639903385192156,0.0471821203827858,0.029088987037539482
1733724630741731000,1.70873095703125,0.023531319573521614,0.04709290713071823,0.06092015281319618
1733724630751692300,1.7186923828125,0.04636893793940544,0.030470823869109154,0.07204493135213852
1733724630761653200,1.7286533203125,0.04595108702778816,0.005109273828566074,0.07219699770212173
1733724630771614200,1.7386142578125,0.039026208221912384,-0.01654880680143833,0.06302853673696518
1733724630781575200,1.7485751953125,0.018446896225214005,-0.027472028508782387,0.04500027000904083
1733724630791536400,1.758536376953125,0.0001215771771967411,-0.03314867615699768,0.01308162696659565
1733724630801497300,1.768497314453125,-0.01968514919281006,-0.05332398787140846,-0.02427160181105137
1733724630811458300,1.778458251953125,-0.032077234238386154,-0.07525070756673813,-0.04846218228340149
1733724630821419300,1.788419189453125,-0.02886785939335823,-0.07558200508356094,-0.05351020395755768
1733724630831380500,1.79838037109375,-0.01685151644051075,-0.06455777585506439,-0.04943965747952461
1733724630841341200,1.808341064453125,-0.007127782795578241,-0.043630119413137436,-0.037172336131334305
1733724630851302100,1.81830224609375,0.005925852805376053,-0.02457454614341259,-0.016847439110279083
1733724630861263400,1.828263427734375,0.016115374863147736,0.003990518860518932,0.001391750993207097
1733724630871224000,1.83822412109375,0.0021965387277305126,0.004159953910857439,0.016152169555425644
1733724630881185300,1.848185302734375,-0.010481173172593117,-0.006197612266987562,0.0174454003572464
1733724630891146200,1.858146240234375,-0.009773388504981995,-0.00988087709993124,0.023113444447517395
1733724630901107200,1.868107177734375,-0.007408235687762499,-0.027767732739448547,0.01814584992825985
1733724630911068200,1.878068115234375,-0.0013384358026087284,-0.02704385295510292,0.01774243637919426
1733724630921029400,1.888029296875,0.0015361802652478218,-0.01607588864862919,0.009661074727773666
1733724630930990300,1.897990234375,-0.0061715468764305115,-0.0014682062901556492,-0.009454519487917423
1733724630940951300,1.907951416015625,-0.012697623111307621,0.027767710387706757,-0.018322579562664032
1733724630950912300,1.917912353515625,-0.011982573196291924,0.04406789690256119,-0.01683039590716362
1733724630960873500,1.92787353515625,-0.010626491159200668,0.044049255549907684,-0.01352115161716938
1733724630970834200,1.937834228515625,-0.010272808372974396,0.04349236562848091,-0.004031036049127579
1733724630980795100,1.947795166015625,-0.005697764456272125,0.03295131027698517,0.008589152246713638
1733724630990755300,1.95775537109375,-0.010313189588487148,0.010355083271861076,0.017018461599946022
1733724631000716300,1.96771630859375,-0.029946545138955116,0.0025765220634639263,0.007527488749474287
1733724631010677200,1.97767724609375,-0.03755582869052887,0.004970806650817394,-0.0006264508701860905
1733724631020638200,1.98763818359375,-0.042822763323783875,0.016018930822610855,-0.01140746008604765
1733724631030599400,1.997599365234375,-0.03728289157152176,0.027618346735835075,-0.022384315729141235
1733724631040560000,2.00756005859375,-0.02272205799818039,0.04558749496936798,-0.024061841890215874
1733724631050521000,2.01752099609375,-0.017685504630208015,0.04064895212650299,-0.022890791296958923
1733724631060482300,2.027482421875,-0.018604028970003128,0.030087649822235107,-0.005001006182283163
1733724631070443300,2.037443359375,-0.014103970490396023,0.011205182410776615,0.02775995060801506
1733724631080404200,2.047404296875,-0.008867396973073483,-0.012329436838626862,0.06308411806821823
1733724631090365200,2.057365234375,0.0008793454617261887,-0.018493138253688812,0.09312600642442703
1733724631100326400,2.067326416015625,0.020539600402116776,-0.022131014615297318,0.10979579389095306
1733724631110287000,2.077287109375,0.02678133174777031,-0.03695851191878319,0.11057629436254501
1733724631120248300,2.087248291015625,0.02130107954144478,-0.03681496903300285,0.08790720254182816
1733724631130209300,2.097209228515625,0.015818195417523384,-0.005533786956220865,0.057706307619810104
1733724631140170200,2.107170166015625,0.0015782732516527176,0.03032035194337368,0.017274195328354836
1733724631150132200,2.11713232421875,-0.019225943833589554,0.0653490275144577,-0.01821000874042511
1733724631160093200,2.12709326171875,-0.02774939127266407,0.0913582593202591,-0.03370880335569382
1733724631170054100,2.13705419921875,-0.024257920682430267,0.09369831532239914,-0.028718851506710052
1733724631180015400,2.147015380859375,-0.011955980211496353,0.07503541558980942,-0.013893567025661469
1733724631189976300,2.156976318359375,0.007557492703199387,0.05202624201774597,0.011104932054877281
1733724631199937000,2.16693701171875,0.00456596352159977,-0.004203209187835455,0.04352838173508644
1733724631209898200,2.176898193359375,0.00009280070662498474,-0.05528537929058075,0.08256915211677551
1733724631219859200,2.186859130859375,0.0023146760649979115,-0.08134707808494568,0.12310006469488144
1733724631229820200,2.196820068359375,0.012375125661492348,-0.08240474760532379,0.13601630926132202
1733724631239781000,2.206781005859375,0.009457099251449108,-0.06319136917591095,0.11346706002950668
1733724631249742300,2.216742431640625,0.003773897886276245,-0.02578219212591648,0.06486149877309799
1733724631259703000,2.226703125,-0.002403304213657975,0.017040373757481575,0.013434262946248055
1733724631269664300,2.236664306640625,-0.006408719811588526,0.063294418156147,-0.02978314459323883
1733724631279625200,2.246625244140625,-0.016197966411709785,0.08360155671834946,-0.0620872862637043
1733724631289586400,2.25658642578125,-0.01954713836312294,0.06106402724981308,-0.05844711512327194
1733724631299547100,2.266547119140625,-0.016792364418506622,0.030774561688303947,-0.016331356018781662
1733724631309508400,2.27650830078125,-0.003705605398863554,-0.009548073634505272,0.03619023412466049
1733724631319469300,2.28646923828125,0.018949905410408974,-0.05012932047247887,0.07726763188838959
1733724631329430000,2.296429931640625,0.03164810314774513,-0.08315545320510864,0.09522516280412674
1733724631339391200,2.30639111328125,0.04226639121770859,-0.08148085325956345,0.08767084032297134
1733724631349352200,2.316352294921875,0.0484500378370285,-0.04677005112171173,0.05819368734955788
1733724631359313200,2.326313232421875,0.04736320301890373,-0.0022814124822616577,0.020215943455696106
1733724631369274000,2.336274169921875,0.036669813096523285,0.03633708506822586,-0.01653408072888851
1733724631379235300,2.3462353515625,0.014262506738305092,0.032080553472042084,-0.03890250250697136
1733724631389196000,2.356196044921875,-0.006898945197463036,-0.009231522679328918,-0.04145441949367523
1733724631399157200,2.3661572265625,-0.017732951790094376,-0.05604403838515282,-0.01988840475678444
1733724631409118200,2.3761181640625,-0.013726516626775265,-0.0768166333436966,0.026037614792585373
1733724631419079400,2.386079345703125,0.007114316336810589,-0.08043906837701797,0.06152530387043953
1733724631429040000,2.3960400390625,0.02715090662240982,-0.060434773564338684,0.06287088245153427
1733724631439001300,2.40600146484375,0.04430219531059265,-0.012915190309286118,0.04876624420285225
1733724631448962300,2.41596240234375,0.056428179144859314,0.04247340187430382,0.029118748381733894
1733724631458923000,2.425923095703125,0.05718984454870224,0.08385226130485535,-0.0021648709662258625
1733724631468884200,2.43588427734375,0.05598774552345276,0.10672850906848907,-0.030516037717461586
1733724631478845200,2.44584521484375,0.04854873567819595,0.10485737025737762,-0.05779719725251198
1733724631488806100,2.45580615234375,0.023198675364255905,0.07343151420354843,-0.07423145323991776
1733724631498767000,2.46576708984375,-0.024579765275120735,0.014014797285199165,-0.07389962673187256
1733724631508728300,2.475728271484375,-0.07079879194498062,-0.05652420595288277,-0.0652046874165535
1733724631518689300,2.485689208984375,-0.0937240794301033,-0.10567151755094528,-0.03539832681417465
1733724631528650200,2.495650146484375,-0.08106183260679245,-0.11129157990217209,-0.009002570062875748
1733724631538611200,2.505611083984375,-0.04055542126297951,-0.08835244178771973,0.0015278353821486235
1733724631548572400,2.515572509765625,0.006871383171528578,-0.046193964779376984,0.005364246666431427
1733724631558533000,2.525533203125,0.05162926763296127,0.003863073419779539,0.0049216290935873985
1733724631568493000,2.5354931640625,0.07188224047422409,0.03775562718510628,0.011865682899951935
1733724631578455300,2.545455322265625,0.06612928211688995,0.06004149094223976,0.014425779692828655
1733724631588415200,2.555415283203125,0.051956385374069214,0.06396973878145218,0.018709011375904083
1733724631598376200,2.565376220703125,0.03429057449102402,0.05187898501753807,0.01098797470331192
1733724631608337200,2.575337158203125,0.01727077178657055,0.04265543818473816,-0.005676434375345707
1733724631618298400,2.58529833984375,0.0036281971260905266,0.031930889934301376,-0.022297222167253494
1733724631628259000,2.595259033203125,-0.0017993052024394274,0.051891013979911804,-0.02740154042840004
1733724631638220300,2.60522021484375,0.006712423637509346,0.06600789725780487,-0.01963096857070923
1733724631648181200,2.61518115234375,0.0183126050978899,0.059702616184949875,-0.011034226045012474
1733724631658142200,2.62514208984375,0.03130856528878212,0.04186582565307617,-0.0024279546923935413
1733724631668103200,2.635103271484375,0.04467618092894554,0.011573007330298424,0.0018522411119192839
1733724631678064000,2.645064208984375,0.04224231839179993,-0.0134516516700387,0.0048757279291749
1733724631688025300,2.655025390625,0.032274506986141205,-0.04615246504545212,-0.007421173620969057
1733724631697986000,2.664986083984375,0.01575838401913643,-0.06705109030008316,-0.026671569794416428
1733724631707947300,2.674947265625,-0.001609274884685874,-0.07756780087947845,-0.05350268632173538
1733724631717908200,2.684908203125,-0.02299126237630844,-0.07243695855140686,-0.07348225265741348
1733724631727869200,2.694869140625,-0.04478009417653084,-0.058843716979026794,-0.08635688573122025
1733724631737830100,2.704830078125,-0.04735856503248215,-0.03734934329986572,-0.10039680451154709
1733724631747791400,2.714791259765625,-0.03654108941555023,-0.022433776408433914,-0.12010781466960907
1733724631757752000,2.724751953125,-0.014260287396609783,-0.018159136176109314,-0.13875740766525269
1733724631767713300,2.73471337890625,0.005842557642608881,-0.037454478442668915,-0.14528900384902954
1733724631777674200,2.74467431640625,0.018661683425307274,-0.06948351860046387,-0.13318254053592682
1733724631787635200,2.75463525390625,0.019428981468081474,-0.1021515354514122,-0.10594785213470459
1733724631797596200,2.76459619140625,0.00046700891107320786,-0.1204807385802269,-0.06391464918851852
1733724631807557000,2.77455712890625,-0.02296680212020874,-0.12815286219120026,-0.013174040243029594
1733724631817518300,2.784518310546875,-0.02814691700041294,-0.11650606989860535,0.01933863013982773
1733724631827479000,2.79447900390625,-0.007807781919836998,-0.08333408832550049,0.014243338257074356
1733724631837440300,2.804440185546875,0.01405357476323843,-0.033422715961933136,-0.020895740017294884
1733724631847401200,2.814401123046875,0.02165905572474003,0.012540267780423164,-0.058870963752269745
1733724631857362200,2.824362060546875,0.024284932762384415,0.04608358070254326,-0.07791203260421753
1733724631867323100,2.8343232421875,0.017966361716389656,0.06289978325366974,-0.08283612877130508
1733724631877284400,2.844284423828125,0.00932946614921093,0.051859647035598755,-0.09206211566925049
1733724631887245000,2.8542451171875,-0.002353790681809187,0.028186501935124397,-0.07945004105567932
1733724631897206300,2.864206298828125,-0.01153077743947506,-0.001327980775386095,-0.05059947818517685
1733724631907167200,2.874167236328125,-0.009022841230034828,-0.023865800350904465,-0.013060785830020905
1733724631917128400,2.88412841796875,0.0026545869186520576,-0.021578943356871605,0.024430396035313606
1733724631927089200,2.894089111328125,0.02234596200287342,-0.00472777197137475,0.04314059764146805
1733724631937050000,2.904050048828125,0.0374080054461956,0.012204073369503021,0.05303423851728439
1733724631947011300,2.91401123046875,0.03980552777647972,0.01392404641956091,0.045190393924713135
1733724631956972000,2.923971923828125,0.03893547132611275,0.01359780877828598,0.021795855835080147
1733724631966933200,2.933933349609375,0.03601658344268799,0.027841540053486824,-0.0014386596158146858
1733724631976894200,2.943894287109375,0.03392467275261879,0.03515324741601944,-0.030149400234222412
1733724631986855200,2.953855224609375,0.019180791452527046,0.041485778987407684,-0.04575887322425842
1733724631996816100,2.963816162109375,0.0009831460192799568,0.04621661826968193,-0.03750520199537277
1733724632006777300,2.97377734375,-0.00978371687233448,0.038442011922597885,-0.014755002222955227
1733724632016738300,2.98373828125,-0.014338787645101547,0.021939203143119812,-0.0012290733866393566
1733724632026699300,2.99369921875,-0.010677186772227287,-0.0008891518227756023,0.02220318093895912
1733724632036660200,3.00366015625,0.0036761858500540257,-0.012488017790019512,0.04573540389537811
1733724632046621400,3.013621337890625,0.01288283709436655,-0.017688188701868057,0.06362847983837128
1733724632056582100,3.02358203125,0.0146897928789258,-0.02582174725830555,0.061324577778577805
1733724632066543000,3.033543212890625,0.017334723845124245,-0.004267618991434574,0.05186232924461365
1733724632076504300,3.04350439453125,0.02205970510840416,0.011079113930463791,0.025300495326519012
1733724632086465000,3.053465087890625,0.01729622855782509,0.022332197055220604,-0.01699446141719818
1733724632096426200,3.06342626953125,0.003669632598757744,0.009353281930088997,-0.04889540374279022
1733724632106387200,3.07338720703125,-0.020071638748049736,-0.006598025560379028,-0.06492019444704056
1733724632116348200,3.08334814453125,-0.02388022467494011,-0.023501908406615257,-0.056702740490436554
1733724632126309000,3.09330908203125,-0.017025897279381752,-0.037377920001745224,-0.0277545265853405
1733724632136270300,3.103270263671875,-0.00353352352976799,-0.03315254673361778,0.0022358635906130075
1733724632146230300,3.113230224609375,0.01669898070394993,-0.024369895458221436,0.03245365619659424
1733724632156191200,3.123191162109375,0.03681010752916336,-0.02066330797970295,0.04172492027282715
1733724632166152200,3.133152099609375,0.04854398965835571,-0.020742155611515045,0.037772826850414276
1733724632176113200,3.143113037109375,0.053375761955976486,-0.01879005879163742,0.027235500514507294
1733724632186074400,3.153074462890625,0.05497680976986885,-0.0035583162680268288,0.0037982608191668987
1733724632196035000,3.16303515625,0.049282170832157135,0.010879479348659515,-0.02048097923398018
1733724632205996300,3.172996337890625,0.04377518966794014,0.013407720252871513,-0.04592549428343773
1733724632215957200,3.182957275390625,0.03473908454179764,0.0158008374273777,-0.06488559395074844
1733724632225918200,3.192918212890625,0.019609926268458366,0.006679758429527283,-0.07623594999313354
1733724632235879200,3.202879150390625,0.0030977940186858177,-0.01986929401755333,-0.07726579904556274
1733724632245840400,3.21284033203125,-0.016306623816490173,-0.040910013020038605,-0.06757953017950058
1733724632255801000,3.222801025390625,-0.02681252919137478,-0.03721993789076805,-0.05662860721349716
1733724632265762000,3.232761962890625,-0.03051684983074665,-0.008588147349655628,-0.05175531283020973
1733724632275723300,3.24272314453125,-0.029237734153866768,0.022918913513422012,-0.06535447388887405
1733724632285684200,3.252684326171875,-0.03001433238387108,0.041899263858795166,-0.08280979841947556
1733724632295645200,3.262645263671875,-0.0245420690625906,0.03706163167953491,-0.07576014846563339
1733724632305606100,3.272606201171875,-0.02289089560508728,0.012267829850316048,-0.057999007403850555
1733724632315567400,3.2825673828125,-0.017579488456249237,-0.004877068102359772,-0.04370315745472908
1733724632325528000,3.292528076171875,-0.013091091997921467,-0.004083061590790749,-0.02471287176012993
1733724632335489300,3.3024892578125,-0.008529895916581154,-0.012724487110972404,-0.00014760717749595642
1733724632345450200,3.3124501953125,-0.009691467508673668,-0.003810455556958914,0.015915388241410255
1733724632355411200,3.3224111328125,0.0061639281921088696,0.02815013937652111,0.007749869488179684
1733724632365372200,3.3323720703125,0.02506256103515625,0.05449226498603821,-0.002175403293222189
1733724632375333400,3.34233349609375,0.025259634479880333,0.07358419895172119,-0.010286593809723854
1733724632385294000,3.352294189453125,0.022531913593411446,0.0647236555814743,-0.004712913651019335
1733724632395255000,3.362255126953125,0.006314328871667385,0.035556718707084656,0.008007142692804337
1733724632405216300,3.37221630859375,-0.010639684274792671,-0.013815542683005333,0.009045742452144623
1733724632415177200,3.38217724609375,-0.030879175290465355,-0.06309414654970169,0.012919044122099876
1733724632425138200,3.39213818359375,-0.04251405596733093,-0.09852981567382812,0.011033225804567337
1733724632435099100,3.40209912109375,-0.04048658907413483,-0.09624934941530228,0.009734668768942356
1733724632445060400,3.412060302734375,-0.02376028336584568,-0.0482100211083889,0.013332409784197807
1733724632455021000,3.42202099609375,-0.0038350452668964863,-0.0034028668887913227,0.016457363963127136
1733724632464982300,3.431982177734375,0.012579001486301422,0.028972748667001724,0.016229156404733658
1733724632474943200,3.441943115234375,0.025721967220306396,0.05736177787184715,-0.004455348942428827
1733724632484904200,3.451904296875,0.02944864332675934,0.08056950569152832,-0.02723941020667553
1733724632494865200,3.461865234375,0.021410159766674042,0.07120849192142487,-0.05055219307541847
1733724632504826400,3.471826416015625,0.0053067561239004135,0.06368539482355118,-0.05818746238946915
1733724632514787000,3.481787109375,-0.005467061884701252,0.061742886900901794,-0.05930439382791519
1733724632524748300,3.491748291015625,-0.020070504397153854,0.04900392144918442,-0.05734910070896149
1733724632534709200,3.501709228515625,-0.02396058477461338,0.03169790282845497,-0.04660617560148239
1733724632544670200,3.511670166015625,-0.021813131868839264,0.02419055625796318,-0.03353142365813255
1733724632554631200,3.521631103515625,-0.013002329505980015,0.010206030681729317,-0.015577455051243305
1733724632564592000,3.531592041015625,-0.008996418677270412,0.007944227196276188,0.01152772456407547
1733724632574553300,3.54155322265625,-0.008512789383530617,-0.0033805985003709793,0.03253154084086418
1733724632584514000,3.55151416015625,-0.00616207392886281,-0.021274011582136154,0.050852417945861816
1733724632594475300,3.561475341796875,-0.00021150708198547363,-0.0329972505569458,0.05636436119675636
1733724632604436200,3.571436279296875,0.01242330577224493,-0.029588134959340096,0.034966498613357544
1733724632614397200,3.581397216796875,0.01967748999595642,-0.019546952098608017,-0.003770512994378805
1733724632624358100,3.591358154296875,0.014447132125496864,-0.022041330114006996,-0.02859688177704811
1733724632634319400,3.6013193359375,0.0013174815103411674,-0.021438390016555786,-0.0412873737514019
1733724632644280300,3.6112802734375,-0.01147208921611309,0.007113871164619923,-0.046261318027973175
1733724632654241300,3.6212412109375,-0.012095268815755844,0.03915516287088394,-0.038803666830062866
1733724632664202200,3.6312021484375,-0.01273210160434246,0.04773005470633507,-0.02479272335767746
1733724632674163200,3.6411630859375,-0.008693152107298374,0.06021628528833389,-0.015057536773383617
1733724632684124200,3.651124267578125,-0.0044146752916276455,0.08895199000835419,-0.018119055777788162
1733724632694085000,3.661085205078125,0.006201483309268951,0.09937400370836258,-0.02622944489121437
1733724632704046300,3.67104638671875,0.014910804107785225,0.09473666548728943,-0.028350329026579857
1733724632714007000,3.681007080078125,0.022776983678340912,0.08793254941701889,-0.01916535384953022
1733724632723968300,3.69096826171875,0.010251984000205994,0.07045969367027283,-0.012006696313619614
1733724632733929200,3.70092919921875,-0.028673311695456505,0.0991683080792427,-0.020611636340618134
1733724632743890200,3.71089013671875,-0.06440501660108566,0.1250033974647522,-0.038846999406814575
1733724632753851100,3.72085107421875,-0.06343003362417221,0.09750252962112427,-0.09755638986825943
1733724632763812400,3.730812255859375,-0.006463784258812666,0.0868513286113739,-0.15768247842788696
1733724632773773300,3.740773193359375,0.061271585524082184,0.021766338497400284,-0.19573692977428436
1733724632783734300,3.750734375,0.09931264817714691,-0.24799849092960358,-0.21657966077327728
1733724632793695200,3.7606953125,0.08438190072774887,-0.2621784806251526,-0.13247038424015045
1733724632803656200,3.77065625,0.04588981717824936,-0.2257453054189682,-0.06423501670360565
1733724632813617200,3.7806171875,0.022449204698204994,-0.2997138202190399,-0.07820329815149307
1733724632823578000,3.790578125,-0.004385520704090595,-0.21032942831516266,-0.18598975241184235
1733724632833539300,3.800539306640625,-0.03742735832929611,-0.06948547810316086,-0.3843614459037781
1733724632843500000,3.8105,-0.08896313607692719,0.11137978732585907,-0.6393547654151917
1733724632853461200,3.820461181640625,0.00028817588463425636,0.5556877255439758,-0.7564584612846375
1733724632863422200,3.830422119140625,0.1426396667957306,1.0080349445343018,-0.9532890319824219
1733724632873383200,3.840383056640625,0.28180819749832153,1.0815966129302979,-1.1951274871826172
1733724632883344100,3.85034423828125,0.33064040541648865,0.9743921160697937,-1.444252371788025
1733724632893305300,3.860305419921875,0.24490180611610413,0.9596768021583557,-1.5837020874023438
1733724632903266300,3.870266357421875,0.12871722877025604,0.7188077569007874,-1.5732975006103516
1733724632913227300,3.880227294921875,0.029740314930677414,0.4715055525302887,-1.4668235778808594
1733724632923188200,3.890188232421875,-0.07809371501207352,0.45278531312942505,-1.3401634693145752
1733724632933149200,3.900149169921875,-0.16968248784542084,0.39346927404403687,-1.2445330619812012
1733724632943110100,3.910110107421875,-0.2195741981267929,0.28885236382484436,-1.200663685798645
1733724632953071000,3.920071044921875,-0.2512788772583008,0.20921535789966583,-1.2169755697250366
1733724632963031300,3.93003125,-0.2803937792778015,0.02250261977314949,-1.2904231548309326
1733724632972993000,3.939992919921875,-0.29500865936279297,-0.03570076823234558,-1.190280795097351
1733724632982954200,3.949954345703125,-0.29779863357543945,-0.11720623821020126,-1.0264207124710083
1733724632992914200,3.9599140625,-0.26097777485847473,-0.34443193674087524,-0.8143436312675476
1733724633002875100,3.969875244140625,-0.2157970368862152,-0.50482177734375,-0.6068421602249146
1733724633012837000,3.979837158203125,-0.18750335276126862,-0.6312766671180725,-0.4301703870296478
1733724633022797000,3.989797119140625,-0.12113869935274124,-0.6857292652130127,-0.29030364751815796
1733724633032759300,3.99975927734375,-0.047588050365448,-0.5923426151275635,-0.27026548981666565
1733724633042720300,4.00972021484375,0.04597970098257065,-0.4869690537452698,-0.3849797546863556
1733724633052681200,4.01968115234375,0.14158426225185394,-0.4148559868335724,-0.5103667378425598
1733724633062641200,4.02964111328125,0.2183300107717514,-0.26287028193473816,-0.6376510858535767
1733724633072602400,4.039602294921875,0.27289313077926636,-0.14942920207977295,-0.7472111582756042
1733724633082564000,4.049564208984375,0.3075251877307892,-0.0700172558426857,-0.7808920741081238
1733724633092524300,4.059524169921875,0.2809223532676697,0.07707498967647552,-0.7496614456176758
1733724633102485200,4.0694853515625,0.2674415707588196,0.21658635139465332,-0.6700164675712585
1733724633112446200,4.0794462890625,0.3013819754123688,0.2670298218727112,-0.5657558441162109
1733724633122407200,4.0894072265625,0.3405458629131317,0.3051742911338806,-0.45589274168014526
1733724633132368100,4.0993681640625,0.38762202858924866,0.2969086468219757,-0.3880034387111664
1733724633142329300,4.109329345703125,0.4310511350631714,0.4093050956726074,-0.3212779462337494
1733724633152290600,4.11929052734375,0.4458002746105194,0.5034435987472534,-0.2928425669670105
1733724633162251800,4.129251708984375,0.4234274625778198,0.48942479491233826,-0.32550787925720215
1733724633172212500,4.13921240234375,0.3765616714954376,0.48196184635162354,-0.39195749163627625
1733724633182173700,4.149173583984375,0.31055963039398193,0.5291358828544617,-0.4862464666366577
1733724633192134700,4.159134765625,0.2247810661792755,0.5938533544540405,-0.6127316951751709
1733724633202095600,4.169095703125,0.1244603767991066,0.7032128572463989,-0.7520890235900879
1733724633212056600,4.179056640625,0.04093698784708977,0.8008019924163818,-0.8619713187217712
1733724633222017500,4.189017578125,0.011555176228284836,0.7789043188095093,-0.8539209365844727
1733724633231978800,4.198978759765625,0.03932422399520874,0.6484988927841187,-0.7145259976387024
1733724633241939500,4.208939453125,0.06156892329454422,0.5160377025604248,-0.43767258524894714
1733724633251900700,4.218900634765625,0.0688641220331192,0.41837799549102783,-0.15006183087825775
1733724633261861600,4.228861572265625,0.06727591902017593,0.5039663314819336,0.07076629251241684
1733724633271822600,4.238822509765625,0.06572116166353226,0.8101912140846252,0.21861647069454193
1733724633281783600,4.248783447265625,0.09500672668218613,1.2147213220596313,0.32604607939720154
1733724633291744800,4.258744873046875,0.20176540315151215,1.2419110536575317,0.272511750459671
1733724633301705500,4.26870556640625,0.46419984102249146,1.0545064210891724,0.19267408549785614
1733724633311666700,4.278666748046875,0.8300725817680359,0.4515153467655182,0.22433054447174072
1733724633321627600,4.288627685546875,1.0087735652923584,-0.14643816649913788,0.39354753494262695
1733724633331588600,4.298588623046875,0.957876980304718,-0.41422325372695923,0.6898154616355896
1733724633341549600,4.308549560546875,0.8976241946220398,-0.761323094367981,1.1170951128005981
1733724633351510500,4.318510498046875,0.9793922901153564,-1.0825104713439941,1.6622040271759033
1733724633361471700,4.3284716796875,1.3967127799987793,-1.4090576171875,2.263373613357544
1733724633371432400,4.338432373046875,1.9698915481567383,-2.2315120697021484,2.6051900386810303
1733724633381393700,4.3483935546875,2.093827486038208,-3.5362954139709473,2.690250873565674
1733724633391354600,4.358354736328125,0.400714635848999,-3.935323476791382,2.4520208835601807
1733724633401315600,4.368315673828125,-1.0910722017288208,-3.099213123321533,2.1512691974639893
1733724633411276500,4.378276611328125,-0.8661046028137207,-2.8519937992095947,1.8333024978637695
1733724633421237800,4.38823779296875,-0.05827536806464195,-2.698530912399292,1.657438039779663
1733724633431198700,4.39819873046875,0.5004611611366272,-2.5279593467712402,1.4819189310073853
1733724633441159700,4.40815966796875,0.6714303493499756,-2.60714054107666,1.2501535415649414
1733724633451120600,4.41812060546875,0.6074625849723816,-2.6686506271362305,1.2416764497756958
1733724633461081600,4.42808154296875,0.7277727127075195,-2.894000768661499,1.4974308013916016
1733724633471042600,4.43804248046875,1.2163852453231812,-3.398902416229248,1.90693199634552
1733724633481003500,4.44800341796875,1.8478034734725952,-3.916313409805298,2.407196521759033
1733724633490964700,4.45796484375,2.4397494792938232,-4.322292804718018,2.958611249923706
1733724633500925400,4.467925537109375,2.934258222579956,-4.672811508178711,3.494065523147583
1733724633510886700,4.47788671875,3.319774866104126,-5.195209980010986,3.7172067165374756
1733724633520847600,4.48784765625,3.6849281787872314,-5.255197048187256,3.366213083267212
1733724633530808600,4.49780859375,3.982079029083252,-5.819869041442871,2.843867063522339
1733724633540769500,4.50776953125,4.152737617492676,-6.506527423858643,2.2910027503967285
1733724633550730800,4.517730712890625,4.369916915893555,-6.3713178634643555,1.6411612033843994
1733724633560691700,4.527691650390625,4.631504535675049,-5.635237216949463,0.8703203797340393
1733724633570652700,4.537652587890625,4.939204692840576,-4.3665452003479,-0.05321487784385681
1733724633580613600,4.547613525390625,5.233307361602783,-3.008310079574585,-1.0299005508422852
1733724633590574800,4.557574951171875,5.415460109710693,-1.791414737701416,-1.871242642402649
1733724633600535600,4.56753564453125,5.427021026611328,-1.2584702968597412,-1.774804949760437
1733724633610496500,4.57749658203125,5.418980598449707,0.10236159712076187,-1.135283350944519
1733724633620457700,4.587457763671875,4.752521514892578,0.4519265294075012,-0.4144302308559418
1733724633630418400,4.59741845703125,3.9430160522460938,0.1164795532822609,-0.004775605164468288
1733724633640379600,4.607379638671875,3.7947640419006348,0.1680563986301422,0.5574851632118225
1733724633650340600,4.617340576171875,3.804576873779297,0.25241097807884216,1.1598576307296753
1733724633660301600,4.627301513671875,3.9403820037841797,0.052791327238082886,1.3878178596496582
1733724633670262500,4.637262451171875,4.196260929107666,-0.2696583569049835,1.5401065349578857
1733724633680223700,4.6472236328125,4.4889445304870605,-0.21753305196762085,1.8766180276870728
1733724633690184700,4.657184814453125,4.643992900848389,-0.10179552435874939,2.252169370651245
1733724633700145700,4.667145751953125,4.547247886657715,0.04374794661998749,2.519263505935669
1733724633710106600,4.677106689453125,4.327876091003418,0.27502697706222534,2.5451719760894775
1733724633720067800,4.68706787109375,4.071239471435547,0.5359175801277161,2.1251766681671143
1733724633730028500,4.697028564453125,3.7263784408569336,1.1564545631408691,1.422206997871399
1733724633739989500,4.706989501953125,3.508012533187866,2.017530918121338,0.7441199421882629
1733724633749950700,4.71695068359375,3.35961651802063,2.355154037475586,0.48716431856155396
1733724633759911400,4.726911376953125,3.092313289642334,2.2019455432891846,0.6004629731178284
1733724633769872600,4.73687255859375,2.414215564727783,1.602540135383606,0.7504245042800903
1733724633779833600,4.74683349609375,1.8234103918075562,0.8989027142524719,0.8045268058776855
1733724633789794600,4.756794677734375,1.1088230609893799,0.3983250856399536,0.6124194264411926
1733724633799755500,4.766755615234375,0.6232406497001648,0.3049565255641937,0.06888093054294586
1733724633809716700,4.776716796875,0.2196047604084015,0.4100397825241089,-0.8275486826896667
1733724633819677700,4.786677734375,-0.5052967071533203,0.5641344785690308,-1.9747318029403687
1733724633829638700,4.796638671875,-1.1603293418884277,0.4336414039134979,-2.592421293258667
1733724633839599600,4.806599609375,-1.3014273643493652,-0.3082638680934906,-2.4576661586761475
1733724633849560800,4.816560791015625,-1.2043285369873047,-1.0991401672363281,-2.255706787109375
1733724633859521500,4.826521484375,-1.1168102025985718,-1.6413434743881226,-1.9653998613357544
1733724633869482500,4.836482421875,-1.2254271507263184,-2.3632254600524902,-1.5862541198730469
1733724633879443700,4.846443603515625,-1.5338729619979858,-3.2584362030029297,-1.0565297603607178
1733724633889404400,4.856404296875,-2.062030076980591,-3.916128158569336,-0.46136006712913513
1733724633899365600,4.86636572265625,-2.305431365966797,-4.500747203826904,0.03990798071026802
1733724633909326600,4.87632666015625,-2.6524791717529297,-5.30243444442749,0.35114017128944397
1733724633919287800,4.886287841796875,-3.126333475112915,-6.29272985458374,0.42000481486320496
1733724633929248500,4.89624853515625,-3.3866100311279297,-6.63352108001709,0.2486937940120697
1733724633939209700,4.906209716796875,-3.3577792644500732,-6.17715311050415,0.0705813616514206
1733724633949170700,4.916170654296875,-3.083268165588379,-4.513864994049072,-0.4882747232913971
1733724633959131600,4.926131591796875,-2.138213872909546,-2.7680695056915283,-1.3131563663482666
1733724633969092600,4.936092529296875,-1.7568366527557373,-1.654660940170288,-1.869394302368164
1733724633979053800,4.9460537109375,-1.832816481590271,-0.6485896110534668,-1.3445295095443726
1733724633989014500,4.9560146484375,-1.9556682109832764,-0.0984087586402893,-1.0906403064727783
1733724633998975500,4.9659755859375,-1.9929189682006836,-0.29152944684028625,-0.2974857687950134
1733724634008936700,4.975936767578125,-1.6833751201629639,-0.8679935932159424,0.5365318655967712
1733724634018897400,4.9858974609375,-1.5295733213424683,-1.4629358053207397,1.5135266780853271
1733724634028858600,4.995858642578125,-0.762833833694458,-2.1428072452545166,2.336167097091675
1733724634038819600,5.005819580078125,-0.017327450215816498,-2.4445106983184814,2.9275479316711426
1733724634048780800,5.01578076171875,0.3211510181427002,-2.4597370624542236,3.040422201156616
1733724634058741500,5.025741455078125,0.4109596014022827,-2.2077717781066895,2.672454595565796
1733724634068702700,5.03570263671875,0.3417717516422272,-1.64185631275177,2.1427619457244873
1733724634078663700,5.04566357421875,0.2957650423049927,-1.0625998973846436,1.458422303199768
1733724634088624600,5.055624755859375,0.40199559926986694,-1.0076544284820557,0.6781938076019287
1733724634098585600,5.065585693359375,0.5029909610748291,0.046219997107982635,0.09293822199106216
1733724634108546800,5.075546875,0.62203049659729,1.1148474216461182,-0.4347357153892517
1733724634118507500,5.085507568359375,0.6915737986564636,1.2941864728927612,-0.9172102808952332
1733724634128468500,5.095468505859375,1.3275529146194458,0.5527823567390442,-1.132847785949707
1733724634138429700,5.1054296875,2.466179609298706,-0.8158001899719238,-1.0535578727722168
1733724634148390000,5.115389892578125,3.1513500213623047,-1.309874415397644,-0.4016607403755188
1733724634158350800,5.125350830078125,3.407102346420288,-2.193998098373413,0.49078524112701416
1733724634168311800,5.135311767578125,3.343458652496338,-2.6199779510498047,1.287023901939392
1733724634178273000,5.14527294921875,2.9999287128448486,-2.388042449951172,1.6801332235336304
1733724634188233700,5.155233642578125,2.4014835357666016,-2.752605676651001,1.9166892766952515
1733724634198195000,5.16519482421875,1.881203532218933,-3.4074370861053467,2.2261509895324707
1733724634208156000,5.175156005859375,1.5756713151931763,-3.2417354583740234,2.295445203781128
1733724634218116900,5.185116943359375,1.6436841487884521,-1.9779083728790283,2.0753166675567627
1733724634228077800,5.195077880859375,1.8090384006500244,-0.6664482355117798,1.7515714168548584
1733724634238038800,5.205038818359375,1.902984380722046,-0.15347029268741608,1.6321814060211182
1733724634248000000,5.215,1.7565094232559204,-0.480949342250824,1.6410832405090332
1733724634257960700,5.224960693359375,1.456186056137085,-1.247933030128479,1.5584499835968018
1733724634267922000,5.234921875,1.2211564779281616,-1.7961229085922241,1.5212243795394897
1733724634277883000,5.2448828125,1.0231754779815674,-2.1548304557800293,1.3926321268081665
1733724634287843800,5.25484375,1.0746184587478638,-2.2909064292907715,1.2976895570755005
1733724634297804800,5.2648046875,1.2632293701171875,-1.8004950284957886,1.2808960676193237
1733724634307766000,5.27476611328125,1.08287513256073,-0.6467791795730591,1.5505033731460571
1733724634317727000,5.28472705078125,0.7798964381217957,0.7368624806404114,1.9845006465911865
1733724634327688000,5.29468798828125,0.9363086819648743,1.5830360651016235,2.199734687805176
1733724634337649000,5.30464892578125,0.8813287019729614,1.9640344381332397,1.9050180912017822
1733724634347609900,5.31460986328125,0.6588767170906067,2.187166690826416,1.4476598501205444
1733724634357570800,5.32457080078125,0.35564911365509033,1.5518593788146973,1.0314710140228271
1733724634367531800,5.33453173828125,-0.18999342620372772,0.41215115785598755,0.7667099237442017
1733724634377493000,5.344492919921875,-1.3064522743225098,-0.7144184708595276,0.7954936623573303
1733724634387453700,5.35445361328125,-2.594896078109741,-1.981740951538086,1.1571615934371948
1733724634397415000,5.364414794921875,-4.083061218261719,-3.081153631210327,1.6501797437667847
1733724634407376000,5.3743759765625,-5.442986011505127,-3.223271131515503,1.973989725112915
1733724634417336800,5.3843369140625,-6.453510284423828,-1.5076298713684082,2.440610885620117
1733724634427297800,5.3942978515625,-6.447319507598877,1.2557227611541748,2.8393850326538086
1733724634437259000,5.404259033203125,-5.269989013671875,3.0710949897766113,1.7777069807052612
1733724634447220000,5.414219970703125,-3.801576614379883,3.241615056991577,-0.33592459559440613
1733724634457181000,5.424180908203125,-2.4899449348449707,2.625680446624756,-2.219806671142578
1733724634467142000,5.434141845703125,-1.6753281354904175,2.0941312313079834,-3.274308443069458
1733724634477102800,5.444102783203125,-1.2431200742721558,1.451306939125061,-3.3852334022521973
1733724634487063800,5.454063720703125,-0.41770341992378235,0.2674447298049927,-2.974764585494995
1733724634497024800,5.464024658203125,0.6596997380256653,-0.6463468670845032,-2.7217423915863037
1733724634506986000,5.473986083984375,1.877776861190796,-1.5330835580825806,-2.7251369953155518
1733724634516946700,5.48394677734375,3.198546886444092,-2.299832820892334,-2.8794236183166504
1733724634526908000,5.493907958984375,4.653870105743408,-2.5257441997528076,-3.0444231033325195
1733724634536868900,5.503868896484375,6.327735424041748,-2.4042232036590576,-3.07743763923645
1733724634546829800,5.513829833984375,7.806057453155518,-2.127382278442383,-2.920004367828369
1733724634556790800,5.523790771484375,8.281784057617188,-3.6779003143310547,-2.765627384185791
1733724634566752000,5.533751953125,8.093310356140137,-6.2547607421875,-2.201565742492676
1733724634576713000,5.543712890625,7.777186870574951,-5.7060770988464355,-0.599480926990509
1733724634586674000,5.553673828125,7.08457088470459,-4.180199146270752,1.5290292501449585
1733724634596635000,5.563634765625,6.301119804382324,-4.223198890686035,2.4625418186187744
1733724634606595800,5.573595947265625,5.792408466339111,-4.715865135192871,2.647775888442993
1733724634616556800,5.583556884765625,5.415427207946777,-4.898858070373535,2.563152551651001
1733724634626517800,5.593517822265625,5.438819885253906,-4.302319049835205,1.619460105895996
1733724634636479000,5.60347900390625,5.461723804473877,-4.116189002990723,1.0090595483779907
1733724634646439700,5.613439697265625,5.9508891105651855,-3.1228811740875244,0.7660652995109558
1733724634656401000,5.62340087890625,6.834982872009277,0.062490686774253845,-0.10207817703485489
1733724634666361900,5.63336181640625,7.2069268226623535,2.320810556411743,-1.2181419134140015
1733724634676322800,5.64332275390625,7.312585830688477,2.798524856567383,-1.6877295970916748
1733724634686283800,5.65328369140625,7.269059181213379,2.571376323699951,-1.5014910697937012
1733724634696245000,5.663244873046875,7.258750915527344,2.1494758129119873,-0.817230224609375
1733724634706206000,5.6732060546875,7.410816192626953,1.543041706085205,0.1011398583650589
1733724634716167000,5.6831669921875,7.808372974395752,0.6035140156745911,0.9716949462890625
1733724634726127900,5.6931279296875,8.304744720458984,-0.3569829761981964,1.6272778511047363
1733724634736089000,5.703089111328125,8.60057544708252,-1.241598129272461,2.0836031436920166
1733724634746049800,5.7130498046875,8.55715274810791,-1.812471628189087,2.406827211380005
1733724634756010800,5.7230107421875,7.992227554321289,-2.250458002090454,2.608826160430908
1733724634765972000,5.732971923828125,6.962936878204346,-2.674983501434326,2.6884944438934326
1733724634775932700,5.7429326171875,5.596015930175781,-3.2926180362701416,2.5589160919189453
1733724634785894000,5.752893798828125,3.8446576595306396,-4.265738487243652,2.0800423622131348
1733724634795854800,5.762854736328125,2.015632390975952,-5.496642589569092,1.2486516237258911
1733724634805815800,5.77281591796875,0.7309048175811768,-6.536252021789551,0.2149810791015625
1733724634815776800,5.78277685546875,0.2773262858390808,-6.629664897918701,-0.6526355743408203
1733724634825738000,5.792738037109375,-0.026057561859488487,-5.681759834289551,-1.3831803798675537
1733724634835699000,5.802698974609375,-0.26368188858032227,-3.9081149101257324,-1.9807487726211548
1733724634845660000,5.812659912109375,-0.39769721031188965,-1.767271876335144,-2.3267204761505127
1733724634855620900,5.822620849609375,-0.47661033272743225,0.19900748133659363,-2.335615396499634
1733724634865582000,5.83258203125,-0.5163063406944275,1.6721408367156982,-2.026035785675049
1733724634875542800,5.842542724609375,-0.5276622772216797,2.5798890590667725,-1.5034565925598145
1733724634885503700,5.852503662109375,-0.5053447484970093,2.9907419681549072,-0.8902478218078613
1733724634895465000,5.86246484375,-0.4894985854625702,2.9531409740448,-0.3050195574760437
1733724634905425700,5.87242578125,-0.49750620126724243,2.5627310276031494,0.18709240853786469
1733724634915387000,5.882386962890625,-0.5060268044471741,1.9993720054626465,0.6032554507255554
1733724634925347800,5.892347900390625,-0.49623358249664307,1.3607465028762817,0.9666150212287903
1733724634935309000,5.90230908203125,-0.45323383808135986,0.751419723033905,1.290621280670166
1733724634945269800,5.912269775390625,-0.3845061659812927,0.21106596291065216,1.5497751235961914
1733724634955231000,5.92223095703125,-0.27766937017440796,-0.18964427709579468,1.730833649635315
1733724634965192000,5.93219189453125,-0.1540054827928543,-0.43148088455200195,1.822719693183899
1733724634975153000,5.94215283203125,-0.06210469827055931,-0.5373781323432922,1.844549298286438
1733724634985113900,5.95211376953125,-0.016319897025823593,-0.5269976854324341,1.8046103715896606
1733724634995075000,5.962074951171875,-0.005252395756542683,-0.41968607902526855,1.7079179286956787
1733724635005035800,5.972035888671875,-0.013291146606206894,-0.2686787247657776,1.5622477531433105
1733724635014996700,5.981996826171875,-0.02873344160616398,-0.07708539068698883,1.3726766109466553
1733724635024958000,5.9919580078125,-0.02229524962604046,0.09691862761974335,1.1531013250350952
1733724635034919000,6.0019189453125,0.013064628466963768,0.23158590495586395,0.9085289835929871
1733724635044880000,6.0118798828125,0.07919704169034958,0.15144340693950653,0.6029608249664307
1733724635054840800,6.0218408203125,0.1527673751115799,-0.38892555236816406,0.16381560266017914
1733724635064802000,6.031802001953125,0.20433256030082703,-0.8869457244873047,-0.26191091537475586
1733724635074762800,6.0417626953125,0.23903712630271912,-0.9372764229774475,-0.532776415348053
1733724635084724000,6.051723876953125,0.25099390745162964,-0.6438344120979309,-0.6630364060401917
1733724635094685000,6.061684814453125,0.22365213930606842,-0.1923929899930954,-0.69074946641922
1733724635104646000,6.07164599609375,0.1701044887304306,0.2649979889392853,-0.6489905714988708
1733724635114606800,6.08160693359375,0.10827071964740753,0.6298560500144958,-0.5742586255073547
1733724635124568000,6.091568115234375,0.06031331419944763,0.8663889765739441,-0.4830746352672577
1733724635134528800,6.10152880859375,0.025678737089037895,0.9952661991119385,-0.3971937298774719
1733724635144489700,6.11148974609375,0.00666350033134222,1.0163496732711792,-0.3291155993938446
1733724635154451200,6.121451171875,0.0018662656657397747,0.9051278233528137,-0.2990066409111023
1733724635164412000,6.131411865234375,0.006369670853018761,0.6801099181175232,-0.306270956993103
1733724635174373000,6.141373046875,0.01615200936794281,0.3828395903110504,-0.35106056928634644
1733724635184334000,6.151333984375,0.030145322903990746,0.053550660610198975,-0.4235866963863373
1733724635194295000,6.161294921875,0.05252443253993988,-0.2730674147605896,-0.5172351002693176
1733724635204256000,6.171256103515625,0.07937762141227722,-0.5549033880233765,-0.6095772981643677
1733724635214217200,6.18121728515625,0.10354519635438919,-0.7384299635887146,-0.6660750508308411
1733724635224178200,6.19117822265625,0.11547695100307465,-0.7825852036476135,-0.66614830493927
1733724635234139100,6.20113916015625,0.11084473133087158,-0.6926796436309814,-0.6022210121154785
1733724635244100000,6.21110009765625,0.09477894753217697,-0.5041110515594482,-0.49555930495262146
1733724635254061300,6.221061279296875,0.06254901736974716,-0.2969774603843689,-0.3568468987941742
1733724635264022000,6.23102197265625,0.037001047283411026,-0.12444166839122772,-0.20807763934135437
1733724635273983200,6.240983154296875,0.00421467050909996,-0.03826158493757248,-0.07449158281087875
1733724635283944200,6.250944091796875,-0.026040170341730118,-0.019836504012346268,0.042830511927604675
1733724635293905000,6.26090478515625,-0.048324719071388245,-0.030394043773412704,0.13799086213111877
1733724635303866000,6.2708662109375,-0.06366851925849915,-0.03651371970772743,0.2125266194343567
1733724635313827000,6.2808271484375,-0.07390765845775604,-0.030215542763471603,0.25135642290115356
1733724635323788300,6.290788330078125,-0.08118528127670288,-0.00972704403102398,0.2660328149795532
1733724635333749000,6.3007490234375,-0.09028242528438568,0.01237538456916809,0.25722914934158325
1733724635343710200,6.310710205078125,-0.097244992852211,0.02837192639708519,0.24167202413082123
1733724635353671200,6.320671142578125,-0.09436456859111786,0.03828772157430649,0.2230072021484375
1733724635363632000,6.330632080078125,-0.08898977190256119,0.05184108018875122,0.2006203979253769
1733724635373593000,6.340593017578125,-0.08440496027469635,0.0344666987657547,0.18077565729618073
1733724635383554300,6.35055419921875,-0.08526329696178436,-0.024228038266301155,0.18739494681358337
1733724635393515000,6.360514892578125,-0.08144819736480713,-0.08501692116260529,0.2027914822101593
1733724635403476200,6.370476318359375,-0.07084854692220688,-0.12008462101221085,0.2207299917936325
1733724635413437200,6.380437255859375,-0.05266675353050232,-0.1216065064072609,0.21836543083190918
1733724635423398100,6.390398193359375,-0.04147747904062271,-0.08891806751489639,0.19818879663944244
1733724635433359000,6.400359130859375,-0.03561066836118698,-0.03896022215485573,0.16592644155025482
1733724635443320000,6.410320068359375,-0.018327821046113968,0.014950146898627281,0.11159369349479675
1733724635453281300,6.42028125,0.0012530363164842129,0.043930694460868835,0.054534830152988434
1733724635463242000,6.430241943359375,0.011672121472656727,0.03885657340288162,-0.006285644136369228
1733724635473204200,6.440204345703125,0.02292531542479992,-0.002422662451863289,-0.05497763305902481
1733724635483164200,6.4501640625,0.02937336079776287,-0.059447869658470154,-0.09427125006914139
1733724635493125000,6.460125,0.030312716960906982,-0.11270825564861298,-0.1175818145275116
1733724635503087000,6.470087158203125,0.027336370199918747,-0.14254523813724518,-0.14152097702026367
1733724635513048000,6.480048095703125,0.022405393421649933,-0.15633255243301392,-0.156631201505661
1733724635523009000,6.490009033203125,0.017174676060676575,-0.1562369465827942,-0.17200402915477753
1733724635532970200,6.49997021484375,0.01059570349752903,-0.15035545825958252,-0.19041644036769867
1733724635542931200,6.50993115234375,0.002482118085026741,-0.14785635471343994,-0.20290960371494293
1733724635552892200,6.51989208984375,-0.00469551607966423,-0.14810946583747864,-0.21318884193897247
1733724635562853000,6.52985302734375,-0.014360660687088966,-0.15019099414348602,-0.20418016612529755
1733724635572814300,6.539814453125,-0.02137935534119606,-0.15356022119522095,-0.1863633543252945
1733724635582775000,6.549775146484375,-0.02740289270877838,-0.15764550864696503,-0.15881189703941345
1733724635592736000,6.559736083984375,-0.0302477665245533,-0.16144336760044098,-0.12611988186836243
1733724635602697200,6.569697265625,-0.037075843662023544,-0.15187889337539673,-0.09522774815559387
1733724635612658000,6.579657958984375,-0.042198546230793,-0.14046284556388855,-0.06847459077835083
1733724635622619100,6.589619140625,-0.044208966195583344,-0.11854955554008484,-0.045708026736974716
1733724635632580000,6.599580078125,-0.044751256704330444,-0.09960724413394928,-0.029321279376745224
1733724635642541000,6.609541015625,-0.04414192587137222,-0.08949095755815506,-0.019051862880587578
1733724635652502000,6.619501953125,-0.04110215604305267,-0.07982397079467773,-0.005291736219078302
1733724635662463200,6.629463134765625,-0.038348447531461716,-0.08509410172700882,0.0038556894287467003
1733724635672424200,6.639424072265625,-0.03224802762269974,-0.09192822128534317,0.012019945308566093
1733724635682385200,6.64938525390625,-0.0306975357234478,-0.09831608086824417,0.017098061740398407
1733724635692346000,6.65934619140625,-0.027762753888964653,-0.10284718871116638,0.011388920247554779
1733724635702307300,6.669307373046875,-0.025138741359114647,-0.09238389134407043,0.008335339836776257
1733724635712268000,6.67926806640625,-0.026832742616534233,-0.0716879665851593,-0.0002769497223198414
1733724635722229200,6.689229248046875,-0.025090236216783524,-0.06236504018306732,-0.010798033326864243
1733724635732190200,6.699190185546875,-0.02303645759820938,-0.049879562109708786,-0.02293943241238594
1733724635742151000,6.70915087890625,-0.02122577652335167,-0.052947789430618286,-0.034706611186265945
1733724635752112000,6.719112060546875,-0.02401452139019966,-0.053288526833057404,-0.042999882251024246
1733724635762073000,6.729072998046875,-0.028264394029974937,-0.054861389100551605,-0.04410802200436592
1733724635772034000,6.739033935546875,-0.029043249785900116,-0.05015169829130173,-0.040779564529657364
1733724635781995000,6.7489951171875,-0.03118043765425682,-0.027834143489599228,-0.03979339823126793
1733724635791956200,6.758956298828125,-0.031689584255218506,-0.006058318540453911,-0.03885272145271301
1733724635801917200,6.768917236328125,-0.02593608945608139,0.011905502527952194,-0.04203999042510986
1733724635811878100,6.778878173828125,-0.021233264356851578,0.023091355338692665,-0.0395694263279438
1733724635821839000,6.788839111328125,-0.016514942049980164,0.02619447186589241,-0.03165184706449509
1733724635831800300,6.79880029296875,-0.01466659177094698,0.028460169211030006,-0.022480640560388565
1733724635841761000,6.808760986328125,-0.011033240705728531,0.02168908156454563,-0.008262822404503822
1733724635851722200,6.81872216796875,-0.005462075117975473,0.012721318751573563,0.0006929943338036537
1733724635861683200,6.82868310546875,-0.003826627740636468,0.011466970667243004,0.005521838087588549
1733724635871644000,6.838643798828125,-0.00440742913633585,0.012091187760233879,0.0014763367362320423
1733724635881605000,6.848605224609375,-0.00898620206862688,0.015354624949395657,-0.0008720387704670429
1733724635891566000,6.858566162109375,-0.010012633167207241,0.022151334211230278,-0.00637555168941617
1733724635901527000,6.868527099609375,-0.012509079650044441,0.02090923674404621,-0.006809114012867212
1733724635911488000,6.878488037109375,-0.014040548354387283,0.004623354412615299,-0.008853009901940823
1733724635921449200,6.88844921875,-0.014174506068229675,-0.014946885406970978,-0.009582716040313244
1733724635931410200,6.89841015625,-0.0166622307151556,-0.029978768900036812,-0.014011808671057224
1733724635941371100,6.90837109375,-0.022456737235188484,-0.04440644383430481,-0.015457372181117535
1733724635951332000,6.91833203125,-0.02559065818786621,-0.035885464400053024,-0.0142353605479002
1733724635961293300,6.928293212890625,-0.02221190556883812,-0.024767564609646797,-0.0119509007781744
1733724635971254000,6.93825390625,-0.015017196536064148,-0.007994906045496464,-0.01350420992821455
1733724635981215200,6.94821533203125,-0.010527106933295727,0.0015722340904176235,-0.014210480265319347
1733724635991176200,6.95817626953125,-0.00887699332088232,-0.003734387457370758,-0.013023344799876213
1733724636001137000,6.968136962890625,-0.004400486126542091,-0.01656017079949379,-0.01769639365375042
1733724636011098000,6.97809814453125,-0.0007720957510173321,-0.0208548866212368,-0.02578374370932579
1733724636021059000,6.98805908203125,-0.0023859713692218065,-0.01574055105447769,-0.026343541219830513
1733724636031020300,6.998020263671875,-0.004442147444933653,-0.003287654370069504,-0.0284375362098217
1733724636040981000,7.00798095703125,-0.004729236010462046,0.012195165269076824,-0.028112363070249557
1733724636050942200,7.017942138671875,-0.006094907410442829,0.013517145067453384,-0.026959171518683434
1733724636060903200,7.027903076171875,-0.0030889976769685745,0.010074210353195667,-0.0225998442620039
1733724636070864100,7.037864013671875,-0.004372590221464634,0.004151295404881239,-0.02386852540075779
1733724636080825000,7.0478251953125,-0.002317695412784815,0.0027150525711476803,-0.019271908327937126
1733724636090786300,7.057786376953125,-0.004517417401075363,0.004410897381603718,-0.019943200051784515
1733724636100747000,7.0677470703125,-0.0058047897182404995,0.011835790239274502,-0.026491113007068634
1733724636110708200,7.077708251953125,-0.0045023695565760136,0.017765989527106285,-0.02687729522585869
1733724636120669200,7.087669189453125,-0.007254480384290218,0.02008986473083496,-0.02970743551850319
1733724636130630100,7.097630126953125,-0.009840762242674828,0.015977216884493828,-0.024455569684505463
1733724636140591000,7.107591064453125,-0.014391837641596794,0.0102394362911582,-0.01448709238320589
1733724636150551800,7.1175517578125,-0.014336790889501572,0.006902056280523539,-0.006513562519103289
1733724636160513000,7.127512939453125,-0.018614893779158592,0.004453812260180712,0.0009257118217647076
1733724636170473700,7.1374736328125,-0.016070161014795303,0.006694502662867308,-0.0014437283389270306
1733724636180435000,7.14743505859375,-0.010477256961166859,0.011288189329206944,-0.005993473343551159
1733724636190396000,7.15739599609375,-0.010754475370049477,0.016576677560806274,-0.011080170050263405
1733724636200356900,7.16735693359375,-0.005623363424092531,0.013673564419150352,-0.011244487017393112
1733724636210317800,7.17731787109375,-0.001650725957006216,0.007948567159473896,-0.010553395375609398
1733724636220279000,7.187279052734375,0.0003964458592236042,-0.0020382869988679886,-0.00906096026301384
1733724636230239700,7.19723974609375,0.0001391521655023098,-0.01134413480758667,-0.014177041128277779
1733724636240200700,7.20720068359375,0.002800449263304472,-0.018658772110939026,-0.021240277215838432
1733724636250162000,7.217161865234375,0.0006486638449132442,-0.022469010204076767,-0.02786586619913578
1733724636260123000,7.227122802734375,-0.002400921890512109,-0.016204457730054855,-0.028852300718426704
1733724636270083800,7.237083740234375,-0.0030380820389837027,-0.01279281172901392,-0.026875192299485207
1733724636280044800,7.247044921875,-0.00778596568852663,-0.0124897425994277,-0.02328072302043438
1733724636290006000,7.257006103515625,-0.009140648879110813,-0.014048822224140167,-0.024164371192455292
1733724636299966700,7.266966796875,-0.009813363663852215,-0.014709819108247757,-0.017696883529424667
1733724636309928000,7.276927978515625,-0.007864880375564098,-0.011235052719712257,-0.015645328909158707
1733724636319889000,7.286888916015625,-0.0057402104139328,-0.00770183652639389,-0.009354142472147942
1733724636329849900,7.296849853515625,-0.004740090575069189,-0.004262713715434074,-0.007820108905434608
1733724636339810800,7.306810791015625,-0.0017871775198727846,-0.004181487485766411,-0.003210976254194975
1733724636349772000,7.31677197265625,-0.0025590930599719286,-0.005635433830320835,-0.003494890406727791
1733724636359733000,7.32673291015625,-0.0021218021865934134,-0.001379968598484993,-0.005811841227114201
1733724636369693700,7.336693603515625,-0.00005084741860628128,-0.0067551215179264545,-0.0064598144963383675
1733724636379655000,7.346655029296875,-0.0004553813487291336,-0.008776195347309113,-0.00626380555331707
1733724636389615900,7.356615966796875,-0.0019456534646451473,-0.005289354361593723,-0.01166721060872078
1733724636399576800,7.366576904296875,-0.0010806587524712086,-0.006789247505366802,-0.01515302062034607
1733724636409537800,7.376537841796875,-0.004655883181840181,-0.005729894153773785,-0.009120216593146324
1733724636419499000,7.3864990234375,-0.003057187655940652,-0.002523981034755707,-0.011033963412046432
1733724636429459700,7.396459716796875,-0.002874897327274084,-0.005319650284945965,-0.011934846639633179
1733724636439421000,7.4064208984375,-0.0017824687529355288,-0.004714047536253929,-0.013081071898341179
1733724636449382000,7.4163818359375,-0.00468233460560441,-0.010809803381562233,-0.02144707925617695
1733724636459342800,7.4263427734375,0.001167032402008772,-0.017182482406497,-0.02741122618317604
1733724636469303800,7.4363037109375,-0.00444463174790144,-0.020760327577590942,-0.03232026845216751
1733724636479265000,7.44626513671875,-0.004627058282494545,-0.03218821808695793,-0.031562868505716324
1733724636489226000,7.45622607421875,-0.003511592047289014,-0.036384690552949905,-0.02772953175008297
1733724636499187000,7.46618701171875,-0.006174753420054913,-0.026491578668355942,-0.01876160502433777
1733724636509148000,7.47614794921875,-0.0077776918187737465,-0.015444793738424778,-0.013595974072813988
1733724636519108900,7.48610888671875,-0.006566752679646015,-0.003122348338365555,-0.009552229195833206
1733724636529069800,7.49606982421875,-0.006301668472588062,0.004867033567279577,-0.004756535403430462
1733724636539030800,7.50603076171875,-0.013432549312710762,0.014510073699057102,0.00174610479734838
1733724636548992000,7.515991943359375,-0.008283943869173527,0.025070378556847572,0.011164484545588493
1733724636558953700,7.52595361328125,-0.010163603350520134,0.03161776065826416,0.01704900711774826
1733724636568914000,7.535913818359375,-0.005643086973577738,0.0330030731856823,0.023915689438581467
1733724636578875000,7.545875,-0.004831089172512293,0.03652323782444,0.02339797094464302
1733724636588836900,7.5558369140625,0.002046209294348955,0.04188956320285797,0.024653825908899307
1733724636598797800,7.5657978515625,-0.0012222882360219955,0.04969688504934311,0.023702546954154968
1733724636608759000,7.575759033203125,0.0017213704995810986,0.05682424083352089,0.021420206874608994
1733724636618719700,7.5857197265625,0.004236193839460611,0.06571200489997864,0.02327216975390911
1733724636628681000,7.595680908203125,0.004244016017764807,0.06779369711875916,0.02583613246679306
1733724636638642000,7.605641845703125,0.006658438127487898,0.06211637333035469,0.023471511900424957
1733724636648603000,7.615602783203125,0.006388009525835514,0.05431821197271347,0.021554533392190933
1733724636658563800,7.625563720703125,0.007617324590682983,0.05033066123723984,0.018483107909560204
1733724636668525000,7.635525146484375,0.010461781173944473,0.046864356845617294,0.018441306427121162
1733724636678485800,7.64548583984375,0.014989687129855156,0.053796567022800446,0.007864296436309814
1733724636688446700,7.65544677734375,0.014953617937862873,0.0594247430562973,-0.004573012236505747
1733724636698408000,7.665407958984375,0.010062722489237785,0.062268201261758804,-0.007545366417616606
1733724636708369000,7.675368896484375,0.010354472324252129,0.06258419156074524,-0.011968365870416164
1733724636718329900,7.685329833984375,0.013106849044561386,0.057616330683231354,-0.008235679008066654
1733724636728290800,7.695290771484375,0.012786519713699818,0.05204387381672859,0.002454872941598296
1733724636738252000,7.705251953125,0.013085060752928257,0.04571140930056572,0.011827335692942142
1733724636748212700,7.715212646484375,0.008625979535281658,0.04377836734056473,0.017723120748996735
1733724636758174000,7.725174072265625,0.0065116966143250465,0.04348968341946602,0.02119002491235733
1733724636768135000,7.735135009765625,0.012729178182780743,0.04892299324274063,0.021466227248311043
1733724636778095900,7.745095947265625,0.01683497428894043,0.04952912777662277,0.01934821531176567
1733724636788056800,7.755056884765625,0.012911790981888771,0.04363671690225601,0.017825668677687645
1733724636798018000,7.76501806640625,0.013234565034508705,0.040170613676309586,0.019106384366750717
1733724636807978800,7.774978759765625,0.015642229467630386,0.041416265070438385,0.027163948863744736
1733724636817939700,7.784939697265625,0.020728066563606262,0.04849281534552574,0.03153286501765251
1733724636827901000,7.79490087890625,0.016076471656560898,0.055288512259721756,0.032279618084430695
1733724636837862000,7.80486181640625,0.021454989910125732,0.05801345780491829,0.031451109796762466
1733724636847822800,7.81482275390625,0.02147839590907097,0.059639621526002884,0.026793580502271652
1733724636857783800,7.82478369140625,0.020718062296509743,0.06401839107275009,0.021941304206848145
1733724636867745000,7.8347451171875,0.023786526173353195,0.05965777114033699,0.016648653894662857
1733724636877705700,7.844705810546875,0.026611071079969406,0.05152127891778946,0.011867480352520943
1733724636887667000,7.8546669921875,0.02872372604906559,0.036647818982601166,0.008051862940192223
1733724636897628000,7.8646279296875,0.03559707850217819,0.03179341182112694,0.0019811871461570263
1733724636907588900,7.8745888671875,0.02964846044778824,0.031588803976774216,-0.004831824451684952
1733724636917549800,7.8845498046875,0.026910997927188873,0.029427915811538696,-0.012667111121118069
1733724636927511000,7.894510986328125,0.02569391205906868,0.021317530423402786,-0.01877172850072384
1733724636937471700,7.9044716796875,0.024721592664718628,0.01712092012166977,-0.01949291303753853
1733724636947432700,7.9144326171875,0.015484536066651344,0.007110791280865669,-0.016858786344528198
1733724636957394000,7.924393798828125,0.014664283022284508,0.005938201677054167,-0.009493282064795494
1733724636967355000,7.93435498046875,0.012695257551968098,0.006595883052796125,-0.00891103595495224
1733724636977315800,7.94431591796875,0.011381787247955799,0.008484063670039177,-0.004783401731401682
1733724636987276800,7.95427685546875,0.012296615168452263,-0.0008551455102860928,-0.0032125199213624
1733724636997238000,7.964238037109375,0.008037687279284,-0.018744131550192833,0.0001523839309811592
1733724637007198700,7.97419873046875,0.005194814410060644,-0.022541046142578125,-0.002517120912671089
1733724637017160000,7.984159912109375,0.010200757533311844,-0.020792413502931595,-0.006138221360743046
1733724637027121000,7.994120849609375,0.006488961633294821,-0.023364603519439697,-0.008102265186607838
1733724637037081900,8.004081787109374,0.0022372249513864517,-0.030808672308921814,-0.0044252388179302216
1733724637047042800,8.014042724609375,0.005038567818701267,-0.03543376550078392,-0.0006777020171284676
1733724637057004000,8.024004150390626,0.008650346659123898,-0.028555352240800858,0.009246567264199257
1733724637066965000,8.033965087890625,0.004726346116513014,-0.015247169882059097,0.012874453328549862
1733724637076925700,8.04392578125,0.00518334424123168,-0.004054702818393707,0.016609003767371178
1733724637086887000,8.053886962890624,0.007406935095787048,-0.0017080367542803288,0.018716134130954742
1733724637096848000,8.063847900390625,0.011128702200949192,-0.004777063149958849,0.01936541311442852
1733724637106808800,8.073808837890626,0.013747473247349262,-0.014819659292697906,0.014926386997103691
1733724637116769800,8.083769775390625,0.017455127090215683,-0.028592463582754135,0.006975785829126835
1733724637126731000,8.09373095703125,0.014931612648069859,-0.03545686975121498,-0.0006710332818329334
1733724637136691700,8.103691650390624,0.015964120626449585,-0.033198241144418716,-0.002644701860845089
1733724637146653000,8.11365283203125,0.015119465067982674,-0.024958781898021698,-0.0012222123332321644
1733724637156614700,8.12361474609375,0.016147445887327194,-0.013358586467802525,0.003738724160939455
1733724637166575600,8.13357568359375,0.012735206633806229,-0.005431208293884993,0.010514285415410995
1733724637176536600,8.14353662109375,0.009352458640933037,-0.0010452480055391788,0.008651137351989746
1733724637186497800,8.153497802734375,0.004562412388622761,0.004804457537829876,0.007515411823987961
1733724637196458500,8.16345849609375,0.000532517209649086,0.011065016500651836,-0.003819800913333893
1733724637206419500,8.17341943359375,-0.00344516197219491,0.015933267772197723,-0.01506589911878109
1733724637216380700,8.183380615234375,-0.008942458778619766,0.014565999619662762,-0.029422199353575706
1733724637226341400,8.19334130859375,-0.015291286632418633,0.010703193955123425,-0.0381598025560379
1733724637236302600,8.203302490234375,-0.01611633412539959,-0.0030288640409708023,-0.04796529561281204
1733724637246263600,8.213263671875,-0.01972019113600254,-0.010201497003436089,-0.046402767300605774
1733724637256224500,8.223224609375,-0.02044723369181156,-0.0185244083404541,-0.04084474593400955
1733724637266185500,8.233185546875,-0.022046610713005066,-0.01931706815958023,-0.02876918390393257
1733724637276146700,8.243146728515624,-0.021089203655719757,-0.02220979519188404,-0.020973313599824905
1733724637286108400,8.2531083984375,-0.01575234718620777,-0.016117436811327934,-0.016128793358802795
1733724637296069600,8.263069580078126,-0.015182962641119957,-0.02132445015013218,-0.005119550973176956
1733724637306030600,8.273030517578125,-0.012829510495066643,-0.020698891952633858,0.0004802187904715538
1733724637315991600,8.282991455078125,-0.014209561049938202,-0.0213063582777977,0.007371414452791214
1733724637325952500,8.292952392578124,-0.013882158324122429,-0.022077178582549095,0.013669129461050034
1733724637335913700,8.302913818359375,-0.012946057133376598,-0.02403380163013935,0.02098403498530388
1733724637345874400,8.31287451171875,-0.014141867868602276,-0.024648411199450493,0.01954082027077675
1733724637355835600,8.322835693359375,-0.014150655828416348,-0.029283644631505013,0.0211150161921978
1733724637365796600,8.332796630859375,-0.011798236519098282,-0.03569312393665314,0.02331780456006527
1733724637375757600,8.342757568359374,-0.014710135757923126,-0.033458732068538666,0.023217936977744102
1733724637385718500,8.352718505859375,-0.01814737729728222,-0.026644065976142883,0.026670821011066437
1733724637395679500,8.362679443359376,-0.01772659830749035,-0.011697076261043549,0.02547692507505417
1733724637405640700,8.372640625,-0.008263204246759415,0.004741707816720009,0.02437095157802105
1733724637415601400,8.382601318359375,-0.007970789447426796,0.011287491768598557,0.01480780728161335
1733724637425562600,8.392562744140625,-0.004505067598074675,0.008806876838207245,0.003831508569419384
1733724637435523600,8.402523681640625,-0.0008602654561400414,0.004691760055720806,-0.006528453901410103
1733724637445484500,8.412484619140624,-0.001200251281261444,0.008260293863713741,-0.016968706622719765
1733724637455445500,8.422445556640625,0.0021023345179855824,0.012990600429475307,-0.020867308601737022
1733724637465406700,8.43240673828125,-0.0012249029241502285,0.02308998629450798,-0.016228534281253815
1733724637475367400,8.442367431640625,-0.00039346376433968544,0.03157695010304451,-0.008124267682433128
1733724637485328600,8.45232861328125,0.0028925277292728424,0.03196398913860321,-0.0021304888650774956
1733724637495289600,8.46228955078125,0.0052028195932507515,0.024875454604625702,0.00323471543379128
1733724637505250800,8.472250732421875,0.011707888916134834,0.011017920449376106,-0.0011625038459897041
1733724637515211500,8.48221142578125,0.01547226682305336,-0.0010422044433653355,-0.007761817425489426
1733724637525172500,8.49217236328125,0.015966899693012238,-0.0059416997246444225,-0.01293431967496872
1733724637535133700,8.5021337890625,0.012524496763944626,-0.0007394813001155853,-0.009702574461698532
1733724637545094400,8.512094482421874,0.010524364188313484,0.0008888756856322289,-0.008175657130777836
1733724637555055600,8.5220556640625,0.004868609365075827,0.0024385694414377213,0.0019411593675613403
1733724637565016600,8.5320166015625,0.00012828176841139793,-0.006247702054679394,0.012546048499643803
1733724637574977500,8.5419775390625,-0.0017287405207753181,-0.014589522033929825,0.018786102533340454
1733724637584938500,8.5519384765625,-0.0020196400582790375,-0.017252596095204353,0.021620530635118484
1733724637594899700,8.561899658203124,-0.00015169894322752953,-0.01885581761598587,0.0185799989849329
1733724637604860700,8.571860595703125,0.00013745343312621117,-0.011707562953233719,0.012511198408901691
1733724637614821600,8.581821533203126,0.005391071084886789,-0.0023888954892754555,0.010258430615067482
1733724637624782600,8.591782470703125,0.0042085773311555386,0.0109139084815979,0.006987487897276878
1733724637634743800,8.601743896484376,0.005786766763776541,0.009737323969602585,0.002933890325948596
1733724637644704500,8.61170458984375,0.008074123412370682,0.006248359102755785,0.0017440642695873976
1733724637654665500,8.62166552734375,0.0072016725316643715,0.0020885011181235313,0.004431992769241333
1733724637664626700,8.631626708984374,0.007456120103597641,0.0074980612844228745,0.0030725288670510054
1733724637674587400,8.64158740234375,0.009097692556679249,0.015243599191308022,0.0035143473651260138
1733724637684548600,8.651548583984376,0.007293467875570059,0.02560908906161785,0.003014994552358985
1733724637694509600,8.661509521484374,0.008484434336423874,0.023175226524472237,0.002863194327801466
1733724637704470500,8.671470458984375,0.008844176307320595,0.009806204587221146,0.0015078629367053509
1733724637714431500,8.681431396484374,0.010486548766493797,-0.0015583024360239506,-0.00498119555413723
1733724637724392700,8.691392822265625,0.009044181555509567,-0.008813276886940002,-0.003960181958973408
1733724637734353700,8.701353759765626,0.0069677140563726425,-0.01824432983994484,-0.0032544443383812904
1733724637744314600,8.711314697265625,0.004858504515141249,-0.016130076721310616,-0.0015611792914569378
1733724637754275600,8.721275634765625,0.0006536399014294147,-0.014643499627709389,0.004344380460679531
1733724637764236800,8.73123681640625,-0.0040075406432151794,-0.023463239893317223,0.005488927010446787
1733724637774197500,8.741197509765625,-0.008892577141523361,-0.028363989666104317,0.008655691519379616
1733724637784158500,8.751158447265626,-0.007224205881357193,-0.030803605914115906,0.0036466375458985567
1733724637794119700,8.76111962890625,-0.009123838506639004,-0.0327003076672554,0.004117750562727451
1733724637804080400,8.771080322265625,-0.006581984460353851,-0.026636425405740738,-0.0033071208745241165
1733724637814041600,8.78104150390625,-0.0035273388493806124,-0.02329123020172119,-0.005659225396811962
1733724637824002600,8.79100244140625,0.001635680440813303,-0.01444336213171482,-0.000432552769780159
1733724637833963500,8.800963623046876,0.0008852020837366581,-0.006557743065059185,0.0012670767027884722
1733724637843924500,8.810924560546875,-0.0011534802615642548,0.008443878963589668,0.009770400822162628
1733724637853885700,8.8208857421875,-0.0009651947766542435,0.02247500978410244,0.017271194607019424
1733724637863846700,8.8308466796875,0.004713679198175669,0.03897174447774887,0.022616643458604813
1733724637873807600,8.8408076171875,0.006841545458883047,0.04655855521559715,0.0220525860786438
1733724637883769600,8.85076953125,0.012557757087051868,0.04393535852432251,0.017799431458115578
1733724637893730600,8.86073046875,0.014869912527501583,0.035898204892873764,0.01014151144772768
1733724637903691500,8.87069140625,0.012076886370778084,0.028149088844656944,0.003876116592437029
1733724637913652700,8.88065283203125,0.012382350862026215,0.03082183748483658,0.0008334550075232983
1733724637923613400,8.890613525390625,0.008862121030688286,0.03048236295580864,-0.0029504382982850075
1733724637933574700,8.90057470703125,0.005452209617942572,0.028632264584302902,0.0017971787601709366
1733724637943535600,8.91053564453125,0.002746401820331812,0.015518877655267715,0.0023801238276064396
1733724637953496600,8.92049658203125,0.0025812857784330845,0.004779681097716093,0.004957531113177538
1733724637963457500,8.93045751953125,-0.0003685140982270241,-0.001608891412615776,0.007494751363992691
1733724637973418500,8.94041845703125,-0.0017328516114503145,-0.0022507132962346077,0.010929696261882782
1733724637983379700,8.950379638671874,-0.003551690373569727,0.00461535481736064,0.01103764958679676
1733724637993340400,8.96034033203125,-0.005867042578756809,0.013233610428869724,0.015199105255305767
1733724638003301600,8.970301513671876,-0.003469249466434121,0.009058418683707714,0.01268930546939373
1733724638013262600,8.9802626953125,-0.002945405663922429,0.0034066583029925823,0.007308122236281633
1733724638023223600,8.9902236328125,-0.0038799727335572243,-0.0005043791607022285,0.00081286346539855
1733724638033184500,9.0001845703125,-0.0036453483626246452,-0.0007025180384516716,0.0005856957286596298
1733724638043145700,9.010145751953125,-0.0032716761343181133,-0.0010328004136681557,-0.0011933273635804653
1733724638053106400,9.0201064453125,-0.005487692542374134,-0.0023888819850981236,0.004256831482052803
1733724638063067600,9.030067626953125,-0.004799648188054562,0.0023865499533712864,0.008254422806203365
1733724638073028600,9.040028564453126,-0.002902945037931204,0.006492611486464739,0.009622488170862198
1733724638082989600,9.049989501953124,-0.0027998466975986958,0.004613454453647137,0.010023667477071285
1733724638092950500,9.059950439453125,0.0023184828460216522,0.0054968250915408134,-0.00040287477895617485
1733724638102911500,9.069911376953126,0.001708485186100006,0.007167023606598377,-0.008620303124189377
1733724638112872700,9.079872802734375,0.00392769742757082,0.007930551655590534,-0.015767961740493774
1733724638122833400,9.08983349609375,0.0031780502758920193,0.010475434362888336,-0.016957977786660194
1733724638132794600,9.099794677734375,0.0003923838958144188,0.012074396014213562,-0.01151927188038826
1733724638142755600,9.109755615234375,-0.0025835135020315647,0.008913319557905197,-0.0008400119841098785
1733724638152716300,9.11971630859375,-0.001123035792261362,0.012566644698381424,0.007277835626155138
1733724638162677500,9.129677490234375,-0.003185573033988476,0.011674389243125916,0.008584665134549141
1733724638172638500,9.139638427734376,-0.005248191300779581,0.009520957246422768,0.010290153324604034
1733724638182599400,9.149599365234375,-0.002274920232594013,0.009012453258037567,0.006067706272006035
1733724638192560400,9.159560302734375,-0.0019460197072476149,0.00460731890052557,0.0025121199432760477
1733724638202521600,9.169521484375,-0.001196274533867836,0.0034341197460889816,0.0009334729984402657
1733724638212482600,9.179482666015625,0.00043224822729825974,0.0035497008357197046,0.0003268048167228699
1733724638222443300,9.189443359375,0.0011361567303538322,0.005457032471895218,0.006728841457515955
1733724638232404500,9.199404541015625,0.003490923438221216,0.006324690766632557,0.01023755595088005
1733724638242365400,9.209365478515625,0.0034294542856514454,0.0074740564450621605,0.005914803594350815
1733724638252326400,9.219326416015624,0.0015231631696224213,0.004545911215245724,-0.000008066650480031967
1733724638262287400,9.229287353515625,0.0004397719167172909,0.0062878974713385105,-0.005034681409597397
1733724638272248600,9.23924853515625,0.005398045293986797,0.004175211768597364,-0.01170403603464365
1733724638282209300,9.249209228515625,0.007391787599772215,0.0006349761970341206,-0.01041390374302864
1733724638292170500,9.25917041015625,0.006765412632375956,-0.004146995488554239,-0.01191139966249466
1733724638302131500,9.26913134765625,0.009063204750418663,-0.0013570780865848064,-0.010317599400877953
1733724638312092400,9.279092529296875,0.0036742989905178547,-0.0015861098654568195,-0.000041526276618242264
1733724638322053400,9.289053466796876,0.0018603694625198841,-0.0012403861619532108,-0.0008399900980293751
1733724638332014600,9.2990146484375,0.003960005007684231,0.0014334279112517834,0.003212808631360531
1733724638341975600,9.3089755859375,0.0008924775756895542,-0.0015121931210160255,0.0044419849291443825
1733724638351936300,9.318936279296874,0.001709268894046545,-0.00475725531578064,0.007355749607086182
1733724638361897500,9.3288974609375,-0.0014141881838440895,-0.006729499436914921,0.008048874326050282
1733724638371858400,9.3388583984375,-0.0019340370781719685,-0.002908129245042801,0.010453175753355026
1733724638381819400,9.3488193359375,-0.003329699859023094,0.0019443165510892868,0.0075502037070691586
1733724638391780400,9.3587802734375,-0.006776096299290657,0.002810642821714282,0.00019242241978645325
1733724638401741600,9.368741455078125,-0.003566320985555649,-0.00019699521362781525,-0.01607471890747547
1733724638411702300,9.378702392578125,-0.004857421386986971,-0.00460186367854476,-0.025649316608905792
1733724638421663500,9.38866357421875,-0.005836216267198324,-0.009603464975953102,-0.03859434276819229
1733724638431625500,9.39862548828125,-0.011341236531734467,-0.014335369691252708,-0.046263448894023895
1733724638441586400,9.40858642578125,-0.015301506966352463,-0.020623210817575455,-0.04669160023331642
1733724638451547400,9.41854736328125,-0.01714601367712021,-0.02480330690741539,-0.040821462869644165
1733724638461508600,9.428508544921876,-0.019407035782933235,-0.025590797886252403,-0.034848835319280624
1733724638471469300,9.43846923828125,-0.01930823177099228,-0.015773585066199303,-0.020033404231071472
1733724638481430500,9.448430419921875,-0.013685235753655434,-0.016652438789606094,-0.011935751885175705
1733724638491391500,9.4583916015625,-0.009560264647006989,-0.020605899393558502,-0.0009494139812886715
1733724638501352400,9.4683525390625,-0.003917159512639046,-0.030867725610733032,0.008167406544089317
1733724638511313400,9.4783134765625,0.0014981119893491268,-0.03422011435031891,0.013308639638125896
1733724638521274600,9.488274658203125,0.009739963337779045,-0.031463369727134705,0.015890657901763916
1733724638531235600,9.498235595703125,0.010154884308576584,-0.022257354110479355,0.0171242356300354
1733724638541196300,9.5081962890625,0.010158363729715347,-0.017943043261766434,0.009501634165644646
1733724638551157500,9.518157470703125,0.009468605741858482,-0.011673696339130402,0.007399334572255611
1733724638561118500,9.528118408203126,0.006621584761887789,-0.013293604366481304,0.007230927236378193
1733724638571079400,9.538079345703125,0.003423395100980997,-0.01848011091351509,0.007430664263665676
1733724638581040400,9.548040283203125,0.0008014296181499958,-0.014858927577733994,0.006088499911129475
1733724638591001600,9.558001708984374,0.002632885705679655,-0.004676065873354673,0.003584595862776041
1733724638600962300,9.56796240234375,0.00008505629375576973,-0.0020611253567039967,-0.00517193553969264
1733724638610923500,9.577923583984376,-0.0005804677493870258,0.0045075612142682076,-0.015814725309610367
1733724638620884500,9.587884521484375,-0.0005083130672574043,0.011268546804785728,-0.029552850872278214
1733724638630845400,9.597845458984375,0.004034507554024458,0.010538041591644287,-0.035873595625162125
1733724638640806400,9.607806396484374,0.003022504970431328,-0.0014195572584867477,-0.03464636951684952
1733724638650767600,9.617767578125,0.0036542071029543877,-0.013984616845846176,-0.03260638564825058
1733724638660728600,9.627728515625,0.003143946174532175,-0.020037444308400154,-0.029196519404649734
1733724638670689300,9.637689208984375,0.0011146175675094128,-0.021678751334547997,-0.01996946521103382
1733724638680650500,9.647650390625,0.0004117782227694988,-0.015998180955648422,-0.018550723791122437
1733724638690611500,9.657611572265624,-0.0025720272678881884,-0.01586395874619484,-0.010113032534718513
1733724638700572400,9.667572509765625,-0.005168661940842867,-0.018053574487566948,0.002207545330747962
1733724638710533400,9.677533447265626,-0.003225619439035654,-0.017973145470023155,0.011962171643972397
1733724638720494600,9.68749462890625,-0.0075521403923630714,-0.019004635512828827,0.017053384333848953
1733724638730455300,9.697455322265625,-0.0122038833796978,-0.014562747441232204,0.023989588022232056
1733724638740416500,9.70741650390625,-0.00877328310161829,-0.0028820415027439594,0.026985712349414825
1733724638750377500,9.71737744140625,-0.011697167530655861,0.004498643800616264,0.028538068756461143
1733724638760338400,9.72733837890625,-0.007948718965053558,-0.0005499646067619324,0.025819871574640274
1733724638770299400,9.73729931640625,-0.00645308755338192,-0.0034621316008269787,0.01363644190132618
1733724638780260600,9.747260498046876,-0.007658352144062519,-0.004912842530757189,0.0058266958221793175
1733724638790221600,9.7572216796875,-0.005658584646880627,0.0016174945048987865,0.004297508858144283
1733724638800182300,9.767182373046875,-0.0008751801215112209,0.006781001575291157,0.007277947850525379
1733724638810143500,9.7771435546875,-0.0010192571207880974,0.008616718463599682,0.007825760170817375
1733724638820104400,9.7871044921875,0.0024570170789957047,0.005587052553892136,0.008801143616437912
1733724638830065400,9.7970654296875,0.005259194876998663,-0.00311429426074028,-0.003201989457011223
1733724638840026400,9.8070263671875,0.004280466120690107,-0.00853806920349598,-0.018269874155521393
1733724638849987600,9.816987548828125,0.005759053397923708,0.0002269265241920948,-0.026927277445793152
1733724638859948300,9.8269482421875,0.0031556980684399605,0.007235960103571415,-0.030984193086624146
1733724638869909500,9.836909423828125,0.0005612466484308243,0.013569755479693413,-0.026774000376462936
1733724638879870500,9.846870361328126,0.0014569498598575592,0.01525624468922615,-0.022430945187807083
1733724638889831400,9.85683154296875,-0.0015601450577378273,0.009644964709877968,-0.016842834651470184
1733724638899792400,9.86679248046875,-0.005861184559762478,0.003277377225458622,-0.01209212839603424
1733724638909753600,9.876753662109374,-0.006593553815037012,0.0037852420937269926,-0.0072358534671366215
1733724638919714600,9.886714599609375,-0.008936036378145218,0.0035455271136015654,-0.007952669635415077
1733724638929675300,9.89667529296875,-0.008607668802142143,0.0004994035698473454,-0.0053417072631418705
1733724638939636500,9.906636474609375,-0.008228883147239685,0.002735310699790716,-0.00624512042850256
1733724638949597400,9.916597412109375,-0.00625628000125289,0.008347656577825546,-0.010704850777983665
1733724638959558400,9.926558349609374,-0.0061951070092618465,0.010578157380223274,-0.002390744164586067
1733724638969519400,9.936519287109375,-0.005444894544780254,0.013012552633881569,0.0038477107882499695
1733724638979480600,9.94648046875,0.0009132158011198044,0.014269994571805,0.012876110151410103
1733724638989441300,9.956441162109375,0.0032935496419668198,0.01378103718161583,0.019280746579170227
1733724638999403500,9.966403564453126,0.005426474381238222,0.0218964833766222,0.015375262126326561
1733724639009364500,9.976364501953125,0.008718673139810562,0.02682253159582615,0.011510483920574188
1733724639019325400,9.986325439453125,0.009262574836611748,0.0346396304666996,0.000284082256257534
1733724639029286400,9.996286376953124,0.008389858528971672,0.030092015862464905,-0.008488370105624199
1733724639039247600,10.00624755859375,0.006620052736252546,0.021452587097883224,-0.013686572201550007
1733724639049208300,10.016208251953126,0.006563327740877867,0.012934465892612934,-0.011408771388232708
1733724639059169500,10.02616943359375,0.0013951151631772518,0.006038566119968891,0.0001158188097178936
1733724639069130500,10.036130615234375,-0.0030004323925822973,-0.0007338523864746094,0.0076333899050951
1733724639079091500,10.046091552734374,-0.005550243426114321,-0.0024989009834825993,0.006104639731347561
1733724639089052400,10.056052490234375,-0.005473544355481863,-0.00710750138387084,0.0022531761787831783
1733724639099013600,10.066013671875,-0.008230231702327728,-0.01469319686293602,-0.004971537739038467
1733724639108974300,10.075974365234375,-0.009226520545780659,-0.02541455253958702,-0.012148757465183735
1733724639118935300,10.085935302734375,-0.010718422941863537,-0.035614725202322006,-0.017775483429431915
1733724639128896500,10.095896484375,-0.01082734577357769,-0.03918202966451645,-0.018276691436767578
1733724639138857500,10.105857421875,-0.01433572731912136,-0.038775160908699036,-0.014386623166501522
1733724639148818400,10.115818359375,-0.014421747997403145,-0.04086068272590637,-0.01538930181413889
1733724639158778600,10.125778564453125,-0.015739746391773224,-0.04138346388936043,-0.014001262374222279
1733724639168739800,10.13573974609375,-0.014117348939180374,-0.04384608939290047,-0.016259092837572098
1733724639178700800,10.14570068359375,-0.009951646439731121,-0.04599043354392052,-0.014876628294587135
1733724639188661800,10.155661865234375,-0.006981955841183662,-0.04274857044219971,-0.0161014162003994
1733724639198622700,10.165622802734376,-0.0036465153098106384,-0.04233189672231674,-0.019064001739025116
1733724639208583700,10.175583740234375,0.0009599546901881695,-0.037771765142679214,-0.020693056285381317
1733724639218544600,10.185544677734375,0.0022007375955581665,-0.03514883667230606,-0.02025822177529335
1733724639228505600,10.195505615234374,0.004716359544545412,-0.03056367114186287,-0.023072384297847748
1733724639238466800,10.205466796875,0.005935071501880884,-0.02522674947977066,-0.020226705819368362
1733724639248427500,10.215427490234376,0.006846671458333731,-0.02240060269832611,-0.017544101923704147
1733724639258388700,10.225388671875,0.0061369226314127445,-0.02042931504547596,-0.006722555961459875
1733724639268349700,10.235349609375,0.006357965525239706,-0.01850198395550251,-0.002948057372123003
1733724639278310700,10.245310546875,0.005898086819797754,-0.011321090161800385,0.00406520115211606
1733724639288271600,10.255271728515625,0.002454086672514677,-0.008696811273694038,0.003237224416807294
1733724639298232800,10.26523291015625,-0.001428153133019805,-0.005413783248513937,-0.004941263236105442
1733724639308193800,10.27519384765625,-0.0022414824925363064,-0.004492596257477999,-0.007878463715314865
1733724639318154800,10.28515478515625,-0.00612060958519578,0.0019932356663048267,-0.010997451841831207
1733724639328115700,10.29511572265625,-0.007752062287181616,0.005919534247368574,-0.003208503592759371
1733724639338076700,10.30507666015625,-0.009216533042490482,0.0059224702417850494,0.005860848352313042
1733724639348037600,10.31503759765625,-0.010982474312186241,-0.00018309243023395538,0.01668127253651619
1733724639357998600,10.32499853515625,-0.007727426942437887,-0.001541175413876772,0.018574267625808716
1733724639367959800,10.334959716796876,-0.006124470382928848,-0.0004905587993562222,0.013172311708331108
1733724639377920500,10.34492041015625,0.00011696666479110718,0.0026540663093328476,0.012526767328381538
1733724639387881700,10.3548818359375,0.0002538529224693775,0.004803769756108522,0.006141838151961565
1733724639397842700,10.3648427734375,0.005725880153477192,0.0031405736226588488,0.0019041846971958876
1733724639407803600,10.3748037109375,0.0018917270936071873,0.000285132322460413,0.003938307054340839
1733724639417764600,10.3847646484375,0.00032732030376791954,-0.007105602417141199,0.00921985600143671
1733724639427725800,10.394725830078125,0.001295379363000393,-0.016619743779301643,0.008028357289731503
1733724639437686800,10.404686767578125,0.00012841634452342987,-0.022664349526166916,0.00950998067855835
1733724639447647700,10.414647705078124,0.00019419658929109573,-0.026047896593809128,0.0009151608683168888
1733724639457608700,10.424608642578125,0.0012017185799777508,-0.02192671224474907,-0.004242183640599251
1733724639467569700,10.434569580078126,0.0008927918970584869,-0.013846416026353836,-0.009789015166461468
1733724639477530600,10.444530517578125,-0.0009396960958838463,-0.008261531591415405,-0.009558811783790588
1733724639487491600,10.45449169921875,0.0016358466818928719,-0.005818081554025412,-0.007444261107593775
1733724639497452800,10.464452880859374,0.0029226215556263924,-0.007265438791364431,-0.0010055694729089737
1733724639507413500,10.47441357421875,0.004576710984110832,-0.010677212849259377,0.00459718843922019
1733724639517374700,10.484374755859376,0.0032571135088801384,-0.009177062660455704,0.008571201004087925
1733724639527335700,10.494335693359375,0.0027638953179121017,-0.002063758671283722,0.00844896212220192
1733724639537297000,10.504296875,-0.00041188858449459076,0.006745956838130951,0.006934485398232937
1733724639547257600,10.514257568359374,-0.0009972513653337955,0.01348002627491951,0.008284973911941051
1733724639557218800,10.52421875,-0.00034913932904601097,0.015705455094575882,0.009790896438062191
1733724639567179800,10.5341796875,0.0006064032204449177,0.01124439388513565,0.01300772838294506
1733724639577140700,10.544140625,0.002464007120579481,0.006157970055937767,0.016589239239692688
1733724639587102700,10.554102783203126,0.002490905113518238,0.0073401471599936485,0.017839327454566956
1733724639597063700,10.564063720703125,0.005193198565393686,0.009224350564181805,0.017748570069670677
1733724639607024600,10.574024658203125,0.004136455710977316,0.01410006545484066,0.013185244053602219
1733724639616985900,10.58398583984375,0.004726962186396122,0.02118851989507675,0.009441303089261055
1733724639626946600,10.593946533203125,0.007204234600067139,0.019637228921055794,0.001428917283192277
1733724639636907800,10.60390771484375,0.010868193581700325,0.010247201658785343,-0.0015715654008090496
1733724639646868700,10.61386865234375,0.007567205931991339,-0.006396756041795015,-0.008401774801313877
1733724639656829700,10.62382958984375,0.00491641229018569,-0.00858625490218401,-0.010939197614789009
1733724639666790700,10.633790771484374,0.0031557963229715824,0.005125562660396099,-0.006228331942111254
1733724639676751600,10.643751708984375,0.0018945741467177868,0.015325687825679779,-0.009163619950413704
1733724639686712800,10.653712890625,0.0022037671878933907,0.012971720658242702,-0.002666039392352104
1733724639696673500,10.663673583984375,0.003359080757945776,-0.00024424493312835693,-0.0006989226676523685
1733724639706634800,10.673634765625,0.0030853073112666607,-0.011921407654881477,-0.0014866855926811695
1733724639716595700,10.683595703125,0.00550683680921793,-0.019028235226869583,-0.0023486819118261337
1733724639726556700,10.693556640625,0.005665561184287071,-0.019105466082692146,-0.0006953910924494267
1733724639736517600,10.703517578125,0.005832557566463947,-0.009820373728871346,0.0060138520784676075
1733724639746478800,10.713478759765625,0.004606971517205238,0.005040596704930067,0.009157447144389153
1733724639756439800,10.723439697265626,0.005915880668908358,0.01134299673140049,0.011869770474731922
1733724639766400800,10.73340087890625,0.004262590315192938,0.010253763757646084,0.014088982716202736
1733724639776361700,10.74336181640625,0.0035731149837374687,0.0066451700404286385,0.013440934009850025
1733724639786322700,10.75332275390625,0.00330999493598938,0.0023281858302652836,0.013134404085576534
1733724639796283600,10.76328369140625,0.0021350067108869553,0.004960180260241032,0.013652697205543518
1733724639806244600,10.77324462890625,0.001679606270045042,0.014528119005262852,0.018932681530714035
1733724639816205800,10.783205810546875,-0.00025839265435934067,0.027061767876148224,0.028708182275295258
1733724639826166500,10.79316650390625,0.003546731546521187,0.03954853117465973,0.031236587092280388
1733724639836127700,10.803127685546874,0.0035479962825775146,0.041768878698349,0.03521505370736122
1733724639846088700,10.813088623046875,0.009818942286074162,0.03541351109743118,0.030583014711737633
1733724639856049700,10.823049560546876,0.009670954197645187,0.022174587473273277,0.0216754712164402
1733724639866010600,10.8330107421875,0.011892030015587807,0.006690169684588909,0.012737635523080826
1733724639875971800,10.842971923828125,0.00883572082966566,0.003062749980017543,0.007098893169313669
1733724639885932800,10.852932861328124,0.008695106022059917,0.007372010964900255,0.005541742779314518
1733724639895893800,10.862893798828125,0.0017225174233317375,0.01857156679034233,0.007274268195033073
1733724639905854700,10.872854736328126,0.003828279208391905,0.024149823933839798,0.0050681051798164845
1733724639915815700,10.882815673828125,0.0030380859971046448,0.022587118670344353,0.0005341903306543827
1733724639925776600,10.892776611328125,0.0018809428438544273,0.012281217612326145,-0.008937874808907509
1733724639935737600,10.902737548828124,0.0025714985094964504,0.002898627193644643,-0.016046607866883278
1733724639945698800,10.91269873046875,0.004099887330085039,-0.009453912265598774,-0.018553175032138824
1733724639955659500,10.922659423828126,0.004394900053739548,-0.012372665107250214,-0.017791010439395905
1733724639965620700,10.932620849609375,0.010259446687996387,-0.010629625990986824,-0.009808450937271118
1733724639975581700,10.942581787109376,0.006054764613509178,0.0010537439957261086,-0.0029616616666316986
1733724639985542700,10.952542724609375,0.008103800937533379,0.005167528986930847,-0.000694512389600277
1733724639995503600,10.962503662109375,0.007974321953952312,-0.0004924321547150612,0.0013664169237017632
1733724640005464800,10.97246484375,0.009068083018064499,-0.011744555085897446,0.001937931403517723
1733724640015425800,10.98242578125,0.009802714921534061,-0.024221869185566902,0.0024556720163673162
1733724640025386800,10.99238671875,0.012986523099243641,-0.03177832067012787,-0.003014461137354374
1733724640035347700,11.00234765625,0.01213394571095705,-0.029951030388474464,-0.002769279293715954
1733724640045308700,11.01230859375,0.01225005928426981,-0.019532479345798492,-0.0018177316524088383
1733724640055269600,11.02226953125,0.011135278269648552,0.0030330053996294737,0.003119400469586253
1733724640065230600,11.032230712890625,0.009808224625885487,0.016876649111509323,0.0039034350775182247
1733724640075191800,11.04219189453125,0.010566342622041702,0.015613860450685024,0.005155457183718681
1733724640085152500,11.052152587890625,0.0094081349670887,0.006681086029857397,0.0026305140927433968
1733724640095113700,11.06211376953125,0.012231649830937386,0.006367063615471125,0.004505794495344162
1733724640105074700,11.07207470703125,0.012813817709684372,0.008269359357655048,-0.0004966873675584793
1733724640115035600,11.08203564453125,0.009985939599573612,0.008755256421864033,0.0027084059547632933
1733724640124996600,11.09199658203125,0.01183630432933569,0.009356598369777203,0.004520154558122158
1733724640134957800,11.101957763671875,0.007182564586400986,0.012022826820611954,0.005609365180134773
1733724640144918800,11.111918701171875,0.007449680007994175,0.01350940391421318,0.010623564943671227
1733724640154880300,11.12188037109375,0.007338658440858126,0.017666827887296677,0.009373093955218792
1733724640164841500,11.131841552734375,0.007451576646417379,0.01533523015677929,0.005974368192255497
1733724640174802200,11.14180224609375,0.004659884609282017,0.0062177968211472034,-0.0030903611332178116
1733724640184763400,11.151763427734375,-0.00020943954586982727,-0.0014960491098463535,-0.009861447848379612
1733724640194725400,11.161725341796876,-0.00012203818187117577,-0.0075079225935041904,-0.010206237435340881
1733724640204685600,11.171685546875,-0.005083241034299135,0.003978290595114231,-0.0001956806518137455
1733724640214647300,11.181647216796875,-0.006580767687410116,0.020937878638505936,0.009071129374206066
1733724640224608500,11.1916083984375,-0.007391966879367828,0.029537491500377655,0.01742866262793541
1733724640234569200,11.2015693359375,-0.0028348665218800306,0.029420670121908188,0.01900462433695793
1733724640244530400,11.211530517578124,0.001650429330766201,0.019666310399770737,0.012818632647395134
1733724640254491400,11.221491455078125,0.005044710822403431,0.004967975430190563,0.0037768660113215446
1733724640264452000,11.2314521484375,0.007878048345446587,0.006693171337246895,0.001448464347049594
1733724640274413300,11.241413330078124,0.009430622681975365,0.013013173826038837,0.00400207843631506
1733724640284374300,11.251374267578125,0.004954914096742868,0.023250631988048553,0.01092203613370657
1733724640294335500,11.26133544921875,0.00544771458953619,0.0339372456073761,0.019834119826555252
1733724640304296200,11.271296142578125,0.005763032473623753,0.033902622759342194,0.026114117354154587
1733724640314257400,11.28125732421875,0.004472912289202213,0.03021315485239029,0.026384808123111725
1733724640324218400,11.29121826171875,0.005677992478013039,0.02493343874812126,0.026141662150621414
1733724640334179300,11.301179443359375,0.004259993322193623,0.022148441523313522,0.019353508949279785
1733724640344140300,11.311140380859374,0.007247261703014374,0.02706463634967804,0.016937488690018654
1733724640354101500,11.3211015625,0.008225908502936363,0.03153029829263687,0.01545514166355133
1733724640364062200,11.331062255859376,0.005021592136472464,0.039555735886096954,0.023947961628437042
1733724640374023400,11.3410234375,0.0016558049246668816,0.05170381814241409,0.034898724406957626
1733724640383984400,11.350984375,-0.0022774178069084883,0.05897717550396919,0.047174569219350815
1733724640393945300,11.3609453125,-0.004830655641853809,0.06523594260215759,0.05620105564594269
1733724640403906300,11.37090625,0.00048634549602866173,0.059720005840063095,0.05700506269931793
1733724640413867300,11.3808671875,0.0027606338262557983,0.04963705688714981,0.04484795033931732
1733724640423828500,11.390828369140625,0.0013443650677800179,0.03661260008811951,0.02515840157866478
1733724640433789200,11.4007890625,-0.001111319288611412,0.024281349033117294,0.0033707553520798683
1733724640443750400,11.41075048828125,-0.0024594112765043974,0.016333943232893944,-0.014267893508076668
1733724640453711400,11.42071142578125,-0.004343596752732992,0.009307468309998512,-0.02047096937894821
1733724640463672300,11.43067236328125,-0.008719969540834427,0.0013086632825434208,-0.014673802070319653
1733724640473633300,11.44063330078125,-0.009397212415933609,-0.005190789233893156,-0.0016748695634305477
1733724640483594500,11.450594482421875,-0.007784401997923851,-0.017970766872167587,0.0097016217187047
1733724640493555200,11.46055517578125,-0.0014656030107289553,-0.028478186577558517,0.015520164743065834
1733724640503516400,11.470516357421875,0.0031406008638441563,-0.03955533728003502,0.010435657575726509
1733724640513477400,11.480477294921876,0.00756834028288722,-0.04461077228188515,0.005428723990917206
1733724640523438300,11.490438232421875,0.012715164572000504,-0.04003226384520531,-0.011441336944699287
1733724640533399300,11.5003994140625,0.017590980976819992,-0.03345648944377899,-0.02122165821492672
1733724640543360300,11.5103603515625,0.012795161455869675,-0.02538125216960907,-0.025026781484484673
1733724640553321500,11.520321533203125,0.01021185889840126,-0.02171778678894043,-0.01274887379258871
1733724640563282200,11.5302822265625,0.006632836069911718,-0.0252241063863039,0.0003360356204211712
1733724640573243400,11.540243408203125,0.004229651764035225,-0.02313089929521084,0.004973934963345528
1733724640583204400,11.550204345703126,-0.0009829537011682987,-0.01718778908252716,0.001524076098576188
1733724640593165300,11.560165283203125,-0.0014841442462056875,-0.012187989428639412,-0.009944086894392967
1733724640603126300,11.570126220703125,-0.002213850384578109,-0.0072757890447974205,-0.018131442368030548
1733724640613087500,11.58008740234375,-0.0018667245749384165,-0.01030259020626545,-0.02052794024348259
1733724640623048200,11.590048095703125,0.0005274573341012001,-0.011119116097688675,-0.020184658467769623
1733724640633009400,11.600009521484376,-0.00018034549430012703,-0.02276865392923355,-0.01503220945596695
1733724640642970400,11.609970458984375,0.0022569792345166206,-0.025380678474903107,-0.010330665856599808
1733724640652931300,11.619931396484375,0.002843462862074375,-0.026874206960201263,-0.011447632685303688
1733724640662892300,11.629892333984374,0.0028573106974363327,-0.021305803209543228,-0.008598050102591515
1733724640672853200,11.639853271484375,0.0010095243342220783,-0.014142362400889397,-0.008241074159741402
1733724640682814500,11.649814453125,0.003931277897208929,-0.009327633306384087,-0.009328442625701427
1733724640692775200,11.659775146484375,0.004510948434472084,-0.013420278206467628,-0.00373194832354784
1733724640702736400,11.669736328125,0.0044486308470368385,-0.023386361077427864,0.0030154362320899963
1733724640712697300,11.679697265625,0.0045312559232115746,-0.029930608347058296,0.005728653632104397
1733724640722658300,11.689658203125,0.0040199290961027145,-0.028497563675045967,0.0066482434049248695
1733724640732619300,11.699619384765626,0.004477140959352255,-0.024599723517894745,0.008540414273738861
1733724640742580500,11.70958056640625,0.00048639439046382904,-0.01567653752863407,0.007008830085396767
1733724640752541200,11.719541259765625,-0.0003622886724770069,-0.009813652373850346,0.008001379668712616
1733724640762502400,11.72950244140625,0.0014681019820272923,-0.008406704291701317,0.0028388421051204205
1733724640772463400,11.73946337890625,0.0054624793119728565,-0.007372220978140831,0.009823067113757133
1733724640782424600,11.749424560546874,0.001936987042427063,-0.004658992402255535,0.0065761408768594265
1733724640792385300,11.75938525390625,0.005325674079358578,-0.007480704691261053,0.008457105606794357
1733724640802346200,11.76934619140625,0.013052304275333881,-0.008959557861089706,0.00015177112072706223
1733724640812307500,11.779307373046874,0.011643757112324238,-0.011615796014666557,-0.004026728682219982
1733724640822268200,11.78926806640625,0.010530822910368443,-0.006492139305919409,-0.008948516100645065
1733724640832229400,11.7992294921875,0.008310912176966667,0.0062794811092317104,-0.008471937850117683
1733724640842190300,11.8091904296875,0.004504189360886812,0.015549411997199059,-0.006086278706789017
1733724640852151300,11.8191513671875,0.0015008756890892982,0.020187638700008392,0.0008597886189818382
1733724640862112300,11.8291123046875,-0.0003476245328783989,0.023397546261548996,0.001632904401049018
1733724640872073500,11.839073486328125,-0.0017472987528890371,0.022623814642429352,-0.0000026123598217964172
1733724640882034200,11.8490341796875,-0.0022844583727419376,0.02977253869175911,-0.0005304506048560143
1733724640891995400,11.858995361328125,-0.002233740873634815,0.038426902145147324,0.0018669646233320236
1733724640901957400,11.868957275390626,-0.0028856825083494186,0.0437801219522953,0.010498802177608013
1733724640911917600,11.87891748046875,0.002049138769507408,0.04339957237243652,0.013917826116085052
1733724640921879300,11.88887939453125,0.0029191928915679455,0.037700675427913666,0.018557585775852203
1733724640931840500,11.898840576171875,0.004417371936142445,0.031438373029232025,0.018382536247372627
1733724640941800400,11.908800537109375,0.005641627125442028,0.019995303824543953,0.009047890082001686
1733724640951762400,11.918762451171874,0.0030436967499554157,0.015851443633437157,0.005794098600745201
1733724640961723400,11.928723388671875,0.0020711105316877365,0.009031620807945728,0.006941122002899647
1733724640971684000,11.93868408203125,-0.00031090574339032173,0.004471561871469021,0.011987924575805664
1733724640981645300,11.948645263671875,-0.005919256713241339,0.0018829694017767906,0.012488331645727158
1733724640991606300,11.958606201171875,-0.00573534844443202,0.00322798453271389,0.021852724254131317
1733724641001567500,11.9685673828125,-0.005679155699908733,0.008912501856684685,0.024501504376530647
1733724641011528200,11.978528076171875,-0.003951513674110174,0.012225951999425888,0.025437165051698685
1733724641021489400,11.988489501953126,-0.0014396202750504017,0.010239500552415848,0.01932733878493309
1733724641031450400,11.998450439453125,0.00031079212203621864,0.0019736643880605698,0.016090070828795433
1733724641041411300,12.008411376953125,0.0033380072563886642,-0.003378756809979677,0.009712599217891693
1733724641051372300,12.018372314453124,0.003772885072976351,-0.0026413090527057648,-0.0037301797419786453
1733724641061333500,12.02833349609375,0.004850932862609625,0.0018056370317935944,-0.010004054754972458
1733724641071294200,12.038294189453126,0.003229382913559675,0.0024394155479967594,-0.015589412301778793
1733724641081255400,12.04825537109375,0.0018844869919121265,0.002009581308811903,-0.012360062450170517
1733724641091216400,12.05821630859375,-0.0014032181352376938,0.0032993857748806477,-0.010060838423669338
1733724641101177000,12.068177001953124,-0.0021233370061963797,0.003490334376692772,-0.004221858456730843
1733724641111138300,12.07813818359375,-0.0035400385968387127,-0.003104818519204855,0.0029419169295579195
1733724641121099300,12.088099365234376,-0.0033616069704294205,-0.003603894729167223,0.0044386135414242744
1733724641131060500,12.098060546875,0.0012960988096892834,-0.0020588086917996407,0.0056796991266310215
