time,seconds_elapsed,z,y,x
1733725297681667800,0.041667724609375,0.8157266005426644,0.771792620139569,-0.2733189650187269
1733725297691629800,0.0516298828125,-0.08384674246609211,0.3980795728817582,1.1939138706050811
1733725297701590800,0.0615908203125,-0.3101239337921142,-0.34535072999596594,1.8721558081269263
1733725297711552800,0.071552734375,-0.05507482149004936,-0.8598679400861263,1.7584949421554803
1733725297721514800,0.0815146484375,0.4050935432970524,-0.7738193036615848,1.4788624466083944
1733725297731475700,0.091475830078125,1.0200596710860728,-0.42952772732973094,1.3236892744228244
1733725297741437700,0.101437744140625,1.440495160421729,0.09861454187855125,1.3684749032191932
1733725297751399700,0.111399658203125,1.3363947344779967,0.538904632371664,1.4575193604588508
1733725297761361000,0.12136083984375,0.5908621986240148,0.09250438843518495,0.954237830132246
1733725297771322600,0.131322509765625,0.45314825689196586,0.015102876585721969,0.22521482279151678
1733725297781284900,0.141284912109375,0.6472171230524778,0.6839385417282581,0.007037132095173001
1733725297791246800,0.151246826171875,-0.02878653402328491,0.9344425579465925,-0.29141601845175025
1733725297801207800,0.161207763671875,-0.7229185529857873,0.8413118543066084,-0.6503120203278958
1733725297811169800,0.171169677734375,-0.9810276373803615,0.8201156292818487,-0.6522153697311878
1733725297821131800,0.1811318359375,-0.5810580129683017,0.9306308907039463,-0.642132659395039
1733725297831092700,0.1910927734375,0.17087737566530703,1.492131824156642,-1.2004068858861923
1733725297841054700,0.2010546875,0.4911532856374979,1.7423031012892722,-1.2497158373259007
1733725297851016700,0.2110166015625,0.851212924465537,1.5548887245818972,-0.6923058264486491
1733725297860978000,0.22097802734375,0.9741899003148078,1.4574644154012202,-0.10443301889896392
1733725297870939600,0.230939697265625,0.7014741984188556,0.7711123827904462,0.5794244204171002
1733725297880902000,0.24090185546875,0.8319313008904456,-0.1811708061426878,1.0249451781053096
1733725297890862600,0.250862548828125,1.177605856013298,-0.5881131921768188,0.9946997505106031
1733725297900824800,0.260824951171875,1.371793964639306,-0.7679960043355822,0.8223876658670604
1733725297910786800,0.270786865234375,1.906657212665677,-1.1248495405986905,1.2563581979498266
1733725297920747800,0.280747802734375,0.5532809482485056,-1.8095698803544042,1.8913237421944735
1733725297930709800,0.290709716796875,-0.6612275282263755,-1.312882049204409,1.2969240170940757
1733725297940671700,0.300671630859375,-1.0276917733997106,-0.2026819423355162,0.45248204806819553
1733725297950632700,0.3106328125,-1.4237918629020452,0.33688042329251766,0.05885229420214891
1733725297960595000,0.320594970703125,-1.4798977810055016,1.1420550885520875,0.30517975538820025
1733725297970556700,0.330556640625,-0.6661591394096612,1.6622142500519752,0.06296265213042497
1733725297980518000,0.340517822265625,-0.29653496890068054,1.50590871283561,-0.1405750302515924
1733725297990479600,0.350479736328125,0.25260171914994717,0.782250739659369,-0.10451382905021309
1733725298000441900,0.36044189453125,0.23421792119741439,-0.0033627544313669204,-0.256887725906074
1733725298010402600,0.370402587890625,0.38725218165814873,-0.08328428627774119,-0.7907745301157235
1733725298020364800,0.38036474609375,1.1946271334409713,-0.3222884188383818,-0.8229584514923394
1733725298030326800,0.390326904296875,1.0627671784341335,-0.6810521726369857,-0.41965164548158645
1733725298040287700,0.400287841796875,1.0717600477069615,0.0241587280921638,-0.15467822827547786
1733725298050249700,0.410249755859375,1.6898060213327406,0.4085261480942368,0.10136895515322684
1733725298060212000,0.4202119140625,1.452604700410366,0.2643240133866668,0.1706307074278593
1733725298070172700,0.430172607421875,0.9067886812150477,0.224155084605515,-0.006806465144455432
1733725298080135000,0.440135009765625,0.4673527233332395,0.18735183286517856,-0.3968826181821525
1733725298090096600,0.4500966796875,0.021634324181079863,-0.2805184846013784,-0.6355182096913456
1733725298100059000,0.460058837890625,-0.386145681720972,-0.6493472669489682,-0.8888120027586818
1733725298110019600,0.47001953125,-0.4540203635513782,-0.17208499788939952,-1.3482809871047734
1733725298119981800,0.47998193359375,-0.4259744187623262,-0.3092319533884525,-0.2363283374801278
1733725298129943800,0.48994384765625,-0.2402121931761503,-0.7122009057469666,0.4047945603504777
1733725298139904800,0.49990478515625,-0.595257803234458,-0.8375159691549837,0.1914072457358241
1733725298149866800,0.50986669921875,-0.9003051644146441,-0.8618390940286219,-0.25180676937997337
1733725298159829000,0.5198291015625,-1.563031991288066,-0.8979081862755119,-0.24788755010962485
1733725298169789700,0.529789794921875,-2.0401742872297763,-0.8151528923079371,0.2720227511957288
1733725298179752000,0.539751953125,-2.7058395056426523,-0.6080776834495365,0.7452772459186613
1733725298189713200,0.549713134765625,-2.2425842807561156,-0.4351499511256814,0.7823597529917955
1733725298199674000,0.559674072265625,-1.2349404391288756,-0.42768180720210075,0.33350174063965676
1733725298209636000,0.569635986328125,-0.5881061779141425,-0.0017654022373259067,-0.251937994544208
1733725298219598000,0.57959814453125,0.03998246629834175,0.13754369973167777,-0.195273565775156
1733725298229559300,0.589559326171875,0.24653204384744165,-0.6792759567447006,-0.04834098319038749
1733725298239521000,0.59952099609375,0.7659446247637272,-0.9470192770555614,0.19197613166496155
1733725298249483000,0.60948291015625,1.4996879386246202,-0.22822978669852018,0.7069274953886866
1733725298259444200,0.6194443359375,1.496212371468544,-0.664385992257297,0.2634282335907221
1733725298269406200,0.62940625,1.2153525260835885,-1.6159113485604524,0.18319997388273476
1733725298279368200,0.6393681640625,1.395464763084054,-1.9338288588382302,0.2056516057960689
1733725298289329200,0.6493291015625,2.0791011069953442,-1.7760230000615118,-0.42380686546489593
1733725298299291100,0.659291015625,1.701318179950118,-1.2008578445240854,-0.7374399764217436
1733725298309253000,0.669253173828125,0.37737434624433513,-0.6419494117826223,-0.7114378124199807
1733725298319214000,0.679214111328125,-0.48566345604956146,-0.4818203707553446,-0.5401978870525956
1733725298329176000,0.689176025390625,-0.8604740892857312,-0.5498447267221287,-0.32230858484357594
1733725298339138000,0.699137939453125,-1.4735633172869682,-0.3126213766310364,-0.3106035340026021
1733725298349099300,0.709099365234375,-2.5183272215187547,0.2728579599108547,-0.5796535529978573
1733725298359061000,0.71906103515625,-3.4632255608975884,0.8011903448637574,-1.0557301194041966
1733725298369023000,0.72902294921875,-3.562681960427761,0.8832706621792167,-1.1240778255738317
1733725298378984200,0.738984130859375,-3.5187475416332483,0.8283826684981584,-0.9689382633969187
1733725298388946200,0.7489462890625,-2.850639021721482,0.36658151487745344,-0.23264672635793684
1733725298398908200,0.758908203125,-1.7828952239185571,0.2313941690135747,0.24327669531330465
1733725298408869000,0.768869140625,-1.2411340330719947,0.517949887952581,0.3879930631533265
1733725298418831000,0.7788310546875,-1.0907570091217755,0.5825665178351104,0.6008505086749791
1733725298428793000,0.78879296875,-0.8606120364516973,0.5384187850834802,0.6266156490504742
1733725298438754000,0.798754150390625,-0.5645896932482719,0.5205712859647348,0.47375542998239395
1733725298448716300,0.80871630859375,-0.2843640541136265,0.38340361647121607,0.24757585381194946
1733725298458678000,0.818677978515625,0.091855276876688,0.22466139015983788,-0.005995148761570453
1733725298468639200,0.82863916015625,0.2335252627581358,0.19683931725453585,-0.07873509854078292
1733725298478601200,0.838601318359375,0.03782733409106731,0.18578100335188208,0.061881725025922055
1733725298488563000,0.84856298828125,-0.01956044051647186,0.19084471648223697,0.2456121525235474
1733725298498524200,0.858524169921875,0.1934434277385473,0.20470972183607516,0.3380727018170058
1733725298508486100,0.868486083984375,0.4590975206851959,0.2377913227047771,0.3754751615595072
1733725298518448000,0.8784482421875,0.6394178474783897,0.24024032329209147,0.43294542681872844
1733725298528409000,0.8884091796875,0.6157938107848167,0.2715350407440215,0.4022315779946744
1733725298538371000,0.89837109375,0.4911339964151382,0.3260312586285174,0.278878023917973
1733725298548333000,0.9083330078125,0.40294250274300575,0.3613927140627056,0.12569529489725828
1733725298558294000,0.9182939453125,0.4044306954741478,0.40693113398775455,0.05849624730609357
1733725298568256300,0.92825634765625,0.6944476607829332,0.5172808295845985,0.1228627748850733
1733725298578218200,0.93821826171875,1.0317980396747588,0.34559703290723265,0.4851863400571048
1733725298588179200,0.94817919921875,0.6037561669886112,0.0036257892817258834,0.6262412627801299
1733725298598141200,0.95814111328125,1.0065133762925862,-0.015995441511273384,0.18202530408017337
1733725298608103000,0.96810302734375,0.9170084619343281,0.15151728002652526,-0.15626703183688223
1733725298618065200,0.978065185546875,0.5561404293328523,0.24439473955780266,-0.2548493519462645
1733725298628026000,0.988026123046875,0.4059375929057598,0.29265228224843737,-0.22075901242643595
1733725298637988000,0.997988037109375,0.549520134410262,0.34094489625245333,-0.21538740239068865
1733725298647950000,1.0079501953125,0.7838409314602613,0.39561113694161176,-0.020316957972198724
1733725298657911000,1.0179111328125,0.9980676195085048,0.625330869936943,0.2201389077667147
1733725298667873000,1.027873046875,1.2625374711066484,0.4763730651348829,0.364443699131161
1733725298677835300,1.037835205078125,1.4546101950138806,0.06687149613723159,0.37399624811336396
1733725298687796200,1.047796142578125,1.1964525953024625,-0.08987769319340586,0.06835428204089403
1733725298697758200,1.05775830078125,0.8610293850809335,-0.07417509714886546,-0.2531691437743604
1733725298707720000,1.067719970703125,0.5936801786541939,-0.11921177809685468,-0.2122290844902396
1733725298717681200,1.07768115234375,0.4905073889493942,-0.06001578502357006,-0.25843933926224705
1733725298727643100,1.08764306640625,0.5127729967713356,0.14028583804666994,-0.2572343473866582
1733725298737605000,1.097605224609375,0.644853901052475,0.2944777441099286,-0.12850231514200566
1733725298747566300,1.10756640625,0.7554033570051193,0.35282661883458494,-0.04469005946740508
1733725298757528000,1.117528076171875,0.8475859661400318,0.5214136916056276,0.07266016254127025
1733725298767490000,1.127489990234375,1.2362357396364212,1.0984501939728855,-0.1260540452070534
1733725298777451000,1.137450927734375,1.2654518972486257,0.6756202107161283,0.1138975973367691
1733725298787413200,1.147413330078125,1.483595466479659,0.17850933184847234,-0.22755948622152208
1733725298797375200,1.157375244140625,1.2312649654865264,0.3445404365263879,-0.7654330219797789
1733725298807336200,1.167336181640625,0.9068559012323617,0.7399320854984224,-0.9333055167406797
1733725298817298200,1.177298095703125,0.9860562791973352,0.9417259929530322,-0.6169533560834825
1733725298827260000,1.187260009765625,0.8704436946362256,1.0296183575481175,-0.691277506314218
1733725298837221000,1.19722119140625,0.8215297338634729,1.4118489116519688,-0.6574214139416813
1733725298847183000,1.20718310546875,1.8668506874561308,1.7186086297079919,-0.24764000508934259
1733725298857145000,1.21714501953125,5.171935020142794,0.7152804593227803,2.1671321494087574
1733725298867106300,1.227106201171875,7.145883561792969,-2.3441544575698674,7.2556725547671315
1733725298877068000,1.237068115234375,5.816867247128486,0.40792292150408027,5.647896581867337
1733725298887030000,1.247030029296875,6.244668296796083,2.6343419571399687,4.065979272845388
1733725298896991000,1.256990966796875,5.739710357689857,2.705386501178145,3.8291269114911555
1733725298906953200,1.266953125,4.544956382998824,2.008451261363178,2.2253765408456325
1733725298916915200,1.276915283203125,3.162189188924432,0.811409906387329,1.0166121609807013
1733725298926876200,1.286876220703125,2.3345874416708945,0.728910633007437,0.7932160780489445
1733725298936838100,1.296838134765625,0.3817161748409271,1.2809332517579197,0.9864116685062646
1733725298946800000,1.306800048828125,-3.4758687693715093,1.5495182835899293,1.5033137279063462
1733725298956761000,1.316760986328125,-6.320014337420464,1.9296996500790118,3.2549867150872944
1733725298966723300,1.326723388671875,-7.042714863741398,2.465144497385621,4.801735095572472
1733725298976685000,1.33668505859375,-6.665927377474308,2.629846983808279,6.151616503611207
1733725298986646300,1.346646240234375,-5.291863129815459,3.584946399205923,6.394709220659732
1733725298996608000,1.35660791015625,-3.6240082435280083,4.596537809415161,3.9539275956362485
1733725299006570000,1.366570068359375,-2.068948546293378,3.8323511342346666,-0.7067126835942268
1733725299016531200,1.37653125,-0.7290481417819857,0.9902242125317454,-3.845379542633891
1733725299026493200,1.3864931640625,-1.4663959098756312,-2.616538004902005,-5.742417278560996
1733725299036455200,1.396455078125,-1.4217112572357058,-5.604468359029292,-8.411930502325296
1733725299046416100,1.406416015625,-1.6645017764672636,-6.419508146351576,-13.121216446781158
1733725299056378000,1.416378173828125,-1.7390896922007202,-6.89386402644515,-17.42872425609827
1733725299066340000,1.426340087890625,-0.943418914476037,-5.085929053816199,-14.413092825096845
1733725299076301000,1.436301025390625,0.009060673812031746,0.09160743959546089,-8.552508016794919
1733725299086263300,1.44626318359375,2.3950540392018853,1.8087983114600181,-4.621170438629388
1733725299096225000,1.45622509765625,2.9989123513907194,-0.059663902845978736,-4.201268033257127
1733725299106186200,1.466186279296875,0.36462124765515325,-1.0086258384019136,-4.606178621202707
1733725299116148200,1.476148193359375,-2.475239774942398,-4.347252959728241,-5.9589896529525515
1733725299126110000,1.48610986328125,-4.581577263909578,-5.675202521944046,-6.601240678030252
1733725299136071200,1.4960712890625,-4.781816927659511,-2.1437980355724693,1.5122265176802874
1733725299146033200,1.506033203125,-0.9795561035230755,2.934875640287995,12.166493463480473
1733725299155995100,1.5159951171875,-3.065772887742519,2.5139842238783836,3.3641105221509933
1733725299165956000,1.5259560546875,0.2638213245615363,-0.7831510494999587,-1.7959055121392011
1733725299175918000,1.53591796875,1.3821245122566819,1.6350282830931244,0.5391115531206131
1733725299185880000,1.545880126953125,1.1021863117612898,5.798182420402765,5.107670930024981
1733725299195841000,1.555841064453125,4.189748860377073,3.9147777807697652,3.114216892915964
1733725299205803300,1.56580322265625,6.204598152214288,1.138051332803443,1.8867805458068847
1733725299215765200,1.57576513671875,5.662887814772128,-5.817600237578153,3.005579992586374
1733725299225726200,1.585726318359375,-1.5632453417778014,-6.17255407769978,-2.0928023000895974
1733725299235688200,1.595688232421875,-10.901168407481908,-1.74747319740355,-5.127601957419515
1733725299245650200,1.605650146484375,-5.916452241474389,-0.5766971143450588,-0.6199082603663205
1733725299255612200,1.615612060546875,-2.2272771137699485,1.8967627183780074,2.469648823067546
1733725299265573000,1.625572998046875,-3.6199531229183077,0.31868469525799153,5.085553206241131
1733725299275535000,1.63553515625,-0.8526292210042477,1.0617181077726185,5.013272398406267
1733725299285497000,1.6454970703125,2.0637813727885486,1.1020653157301246,3.5503210760265587
1733725299295458000,1.6554580078125,3.225124660786986,-1.6575094333618878,2.382483749833703
1733725299305420300,1.665420166015625,-0.2991764233201742,-3.5866216389417644,1.9986475140988826
1733725299315382000,1.675382080078125,-2.8805647889077663,-3.3746742940023537,0.9935784913957119
1733725299325343200,1.68534326171875,-3.3314608829587695,-1.980091574449837,-1.329346569532156
1733725299335305200,1.69530517578125,-3.4752006608515975,-1.7281350213356315,-2.568309103783965
1733725299345267000,1.705266845703125,-3.8813019198864698,-1.6990097568772733,-2.3456258452966807
1733725299355228200,1.715228271484375,-4.681669623255729,-0.9181614313617348,-0.704507867026329
1733725299365190100,1.725190185546875,-3.88258845256567,-0.38755554851889606,0.0861298849672079
1733725299375152000,1.735152099609375,-2.6377403674066064,-1.6761790625184774,0.0713946726500988
1733725299385113300,1.74511328125,-0.7923521546959876,-0.922230580496788,0.8575114400878548
1733725299395075000,1.755074951171875,1.7555577196598051,-0.8284710774339735,0.32515352594591673
1733725299405037000,1.765037109375,-3.6186084303110837,-4.620338663980364,0.17744192181266843
1733725299414998000,1.774998046875,-4.346623429653048,-4.892057171532511,2.936524576538801
1733725299424960300,1.784960205078125,-0.6368652403861284,-3.076002897594869,1.026554147671908
1733725299434922200,1.794922119140625,2.3515561121284962,1.003830786145106,2.0533187232241032
1733725299444883200,1.80488330078125,2.6537586052715776,4.543552945941687,1.3693071162596344
1733725299454845200,1.81484521484375,2.5371394740164277,6.220363292101025,2.0060905235812068
1733725299464807000,1.824806884765625,2.726390710762143,6.544851266810298,0.28258396576382216
1733725299474768100,1.83476806640625,1.006332759028673,5.775947792240977,-0.37289252465516326
1733725299484730000,1.844730224609375,-1.8198568810909985,6.114791040039062,-0.4882304569933563
1733725299494692000,1.854692138671875,-3.815133457452059,8.71470816500783,-1.5639527593947946
1733725299504653300,1.8646533203125,-4.802415479052066,8.006890150520205,-3.4065760374367233
1733725299514615000,1.874614990234375,-0.9974585476994514,3.7000083641469477,-2.8666753797650335
1733725299524577000,1.884576904296875,3.550252102443576,1.4089983445264398,-3.2428137544736266
1733725299534538000,1.8945380859375,6.154821437132358,1.9737536035999654,-4.5180219065830105
1733725299544500200,1.904500244140625,7.977153768426179,5.526541654261947,-6.061515376925468
1733725299554462200,1.914462158203125,7.909387223145365,6.961547569617629,-7.419321148222685
1733725299564423200,1.924423095703125,7.725084548717737,5.939305878317356,-7.154122397828102
1733725299574385200,1.93438525390625,7.127080661645532,4.895301268020272,-4.881353406688571
1733725299584347100,1.94434716796875,5.000520468860865,5.304737808957696,-2.63051684589386
1733725299594308000,1.95430810546875,1.7777286349356174,4.644354330340027,-0.5740579249478877
1733725299604270300,1.964270263671875,0.09440963753461837,3.8660596348300573,0.42925154073685406
1733725299614232000,1.974232177734375,-0.953831002897024,3.5705768053308127,1.2861536167547105
1733725299624193300,1.984193359375,-1.6360229932188988,3.037434389747679,2.2675611933633686
1733725299634155000,1.994155029296875,-1.874948069193959,1.9959090290457009,2.7910458460241556
1733725299644117000,2.004116943359375,-1.7989011868238447,0.6365671342223882,2.8913693837776777
1733725299654078000,2.014077880859375,-1.6858382867455481,-1.0540791373267768,3.051432812222838
1733725299664040200,2.024040283203125,-1.4555050980269908,-2.578782859264314,2.8573505020588637
1733725299674002200,2.034002197265625,-1.3056588199526071,-2.9587954450577496,1.9877181238055228
1733725299683963100,2.043963134765625,-1.943744542044401,-2.850711502435803,0.5865193471141159
1733725299693925000,2.053925048828125,0.3925263226687908,-3.174758747640252,0.07452025732472539
1733725299703887000,2.06388720703125,-0.04415069189369678,-2.9817949201121925,-0.9030113546334206
1733725299713848000,2.07384814453125,0.6527431929975748,-2.4821853562965988,-1.6076744122214615
1733725299723810300,2.083810302734375,1.0475883140027522,-1.9683748331710695,-1.9238145375631748
1733725299733772000,2.09377197265625,1.3389011643409727,-1.4706161579191683,-1.8324926369108259
1733725299743733200,2.103733154296875,1.125182425814867,-1.1307499968141317,-1.7353281477101146
1733725299753695000,2.113695068359375,0.5960661970078944,-0.7086348838284612,-1.6712436519429086
1733725299763657200,2.1236572265625,0.2104185279369354,-0.14055179550647734,-1.4893151593007146
1733725299773619200,2.133619140625,0.06930909854769707,0.0028431144714355467,-1.2502031824514268
1733725299783580200,2.143580078125,-0.3794073133766651,0.0740653531640768,-1.2446638146333395
1733725299793542100,2.153542236328125,-1.1942127074211835,0.18419278431236744,-1.2650479926228522
1733725299803504000,2.163504150390625,-1.7487480396449564,0.057956806667149065,-1.1790553241692483
1733725299813465000,2.173465087890625,-1.6293103438377379,-0.6081283907234668,-0.7921405577719212
1733725299823427300,2.18342724609375,-0.8261725912332535,-1.2137947752475737,-0.4012269309967756
1733725299833389000,2.19338916015625,0.3211374952375889,-1.432969733352959,-0.08012655289918184
1733725299843350300,2.203350341796875,1.238622927033901,-1.561882528991997,0.09400690195262432
1733725299853312000,2.21331201171875,1.5016700523525475,-1.9129335164561867,0.20513255035802722
1733725299863274000,2.22327392578125,1.2965560605645179,-2.2774004503324625,0.24154431856274602
1733725299873235200,2.233235107421875,1.3798182811409234,-1.7914944176986813,-0.07318009476214647
1733725299883197200,2.243197265625,1.3587655562400818,-0.6685983492553234,-0.7291711836397647
1733725299893159200,2.2531591796875,0.9743366153091192,0.026077275064587593,-1.3195032209098339
1733725299903120100,2.2631201171875,0.7616121485173701,0.3871460909351706,-1.500248933508247
1733725299913082000,2.27308203125,0.39094343739151954,0.4441685393616557,-1.464317788427323
1733725299923044000,2.283044189453125,0.2473544661462307,0.2448796004652977,-1.219293518794328
1733725299933005000,2.293005126953125,0.1626011302292347,-0.41929800973832604,-0.6913890038646757
1733725299942967300,2.30296728515625,0.01890051530301571,-0.8963564267888665,-0.13342910401970148
1733725299952929000,2.312928955078125,-0.10157353781461716,-1.057626016153395,0.2842556253030896
1733725299962890200,2.32289013671875,-0.27858196358084675,-1.1735592109709978,0.40233986067473887
1733725299972852200,2.332852294921875,-0.3041214785069227,-0.9376385775089263,0.02023760912567377
1733725299982814000,2.34281396484375,-0.15385843632519244,-0.39736236452311274,-0.516729625442624
1733725299992775200,2.352775146484375,0.14237199667096137,0.2515206459149718,-0.9555328383788466
1733725300002737200,2.362737060546875,0.3840624457061291,0.4274371847912669,-1.0567613621480763
1733725300012699100,2.37269921875,0.5667220291018485,0.24364245988577604,-0.9612215515397489
1733725300022660000,2.38266015625,0.6410434028536081,-0.029120880544185636,-0.7778573270060122
1733725300032622000,2.3926220703125,0.6144751294016838,-0.22041063738018274,-0.6197580382406711
1733725300042584000,2.402583984375,0.3949105874568224,-0.307729732131958,-0.5215801342137157
1733725300052545000,2.412544921875,0.12879355317354202,-0.2812345239162445,-0.47453971222788094
1733725300062507300,2.42250732421875,-0.04811667291522026,-0.1376525669336319,-0.44429245800226924
1733725300072469200,2.43246923828125,-0.09961305139660835,0.025815701518952846,-0.4403530727267265
1733725300082430200,2.44243017578125,-0.02106499986052513,0.1216051029741764,-0.48903819317966696
1733725300092392200,2.45239208984375,0.09205635240674018,0.18090543320477007,-0.6512085307762027
1733725300102354200,2.462354248046875,0.17433190003335475,0.13768471563756465,-0.7587346933849155
1733725300112315100,2.472315185546875,0.21771920633912084,0.07005027230381965,-0.8124260976925491
1733725300122277000,2.482277099609375,0.23399814096689223,-0.012568681932985782,-0.8321513733819127
1733725300132239000,2.492239013671875,0.2948363482892513,-0.11214140131920576,-0.8028625889249146
1733725300142200300,2.502200439453125,0.3102501905202865,-0.1623547542527318,-0.7172679798781871
1733725300152162000,2.512162109375,0.2446481297969818,-0.17013152573406695,-0.6092962654590607
1733725300162124000,2.5221240234375,0.14608429519236088,-0.14091975203603505,-0.5057537656590342
1733725300172085000,2.5320849609375,0.06680325320661068,-0.11618190888166427,-0.4225819998450577
1733725300182047200,2.542047119140625,0.07420154676437378,-0.06012596739977598,-0.3134443103864789
1733725300192009000,2.552009033203125,0.18119886319339273,0.07585340562462806,-0.19615458639338612
1733725300201970000,2.561969970703125,0.2691045256614685,0.19847703799158334,-0.05607274648621678
1733725300211932000,2.571931884765625,0.27916297833919523,0.11716419791728258,0.07769742605611682
1733725300221894000,2.581893798828125,0.3403285179197788,0.035412381903827186,0.15859101780503987
1733725300231855900,2.59185595703125,0.26923078238964077,-0.13864742318987847,0.17414631433337927
1733725300241816800,2.60181689453125,0.11279168192148208,-0.40811464468389747,0.06010258652418851
1733725300251778800,2.61177880859375,0.011504559832811356,-0.38604660526067014,-0.15644553020894528
1733725300261740800,2.62174072265625,0.004245967006683349,-0.3404878001347184,-0.3268454976208508
1733725300271701800,2.63170166015625,0.10370353558063507,-0.32239246373474595,-0.47223158141598104
1733725300281664000,2.6416640625,0.2334808390945196,-0.28175620970278975,-0.5949105972319841
1733725300291626000,2.6516259765625,0.35940965048670764,-0.21249825682044027,-0.657191842969507
1733725300301587000,2.6615869140625,0.4143862722992897,-0.15024462974220512,-0.6610425270482897
1733725300311549000,2.671548828125,0.3845966987133026,-0.13614420819729567,-0.6354753934629261
1733725300321511000,2.681510986328125,0.3140121734023094,-0.1669306838661432,-0.6057265902787446
1733725300331472000,2.691471923828125,0.2245674647986889,-0.20498481245040892,-0.5691451645955443
1733725300341433900,2.701433837890625,0.14800678768754005,-0.24286124638020992,-0.5560176797360181
1733725300351395800,2.711395751953125,0.13775076661109922,-0.26538521287739275,-0.5525567256271838
1733725300361357000,2.721357177734375,0.15886837344169616,-0.2677390825271606,-0.5748975906424224
1733725300371318800,2.73131884765625,0.165759886521101,-0.26793226701170203,-0.6206402279026806
1733725300381281000,2.741281005859375,0.17081015564799307,-0.28132687837481496,-0.6509118859171867
1733725300391241700,2.75124169921875,0.19641338346004486,-0.326704189454019,-0.6664454090051353
1733725300401204000,2.761203857421875,0.2169417922258377,-0.3885919058293104,-0.6566277793459594
1733725300411166000,2.771166015625,0.2105588131904602,-0.43561610733270645,-0.6194964646950364
1733725300421127000,2.781126953125,0.189139593064785,-0.4592877825602889,-0.6058373571768403
1733725300431089000,2.7910888671875,0.1850304041802883,-0.42439504061639305,-0.6025809857293963
1733725300441051000,2.80105078125,0.16340893948078156,-0.38170506892502304,-0.6028669630639255
1733725300451011800,2.81101171875,0.1716933682233095,-0.3269789147421717,-0.5944421029374003
1733725300460974000,2.82097412109375,0.16425766526460647,-0.2852919826135039,-0.5808391095206141
1733725300470935800,2.830935791015625,0.17448504476845264,-0.22895956227779388,-0.5555661365762352
1733725300480897000,2.84089697265625,0.17158289358615875,-0.1942439304664731,-0.5226275974400342
1733725300490858800,2.850858642578125,0.16603870346248148,-0.1687310112863779,-0.4883632165275514
1733725300500821000,2.860821044921875,0.16807108607292173,-0.13340192375183105,-0.4687285417310893
1733725300510781700,2.87078173828125,0.17234043395519255,-0.07000906351059674,-0.4337563048101961
1733725300520744000,2.880743896484375,0.163842654722929,-0.019370470902323723,-0.40542043716385956
1733725300530706000,2.890705810546875,0.15971651470363138,0.013553309056162833,-0.4127347056999802
1733725300540667000,2.9006669921875,0.15206220055818556,0.019262334352731704,-0.411516415951401
1733725300550628900,2.91062890625,0.1366588797211647,-0.0033536943420767783,-0.42404958817958827
1733725300560591000,2.920591064453125,0.13129998303651808,-0.04770867663621902,-0.4315890437737107
1733725300570552800,2.930552734375,0.12557634469270706,-0.09070055388361214,-0.443420059081912
1733725300580514000,2.94051416015625,0.11531915457248687,-0.1016886886268854,-0.46662046353593467
1733725300590475800,2.950475830078125,0.1196095452427864,-0.11530424926429986,-0.5006307235568761
1733725300600437800,2.960437744140625,0.11217676489353179,-0.10552052187472581,-0.5291705893427133
1733725300610398700,2.970398681640625,0.12456044564843177,-0.08315963698476553,-0.5500035340130329
1733725300620361000,2.98036083984375,0.12482464954257011,-0.0614648147881031,-0.5460477821245789
1733725300630323000,2.990322998046875,0.13831541475653647,-0.04043868563324213,-0.5279594599872828
1733725300640284000,3.000283935546875,0.1755927137494087,-0.0705623134791851,-0.49646293635293837
1733725300650246000,3.010245849609375,0.23406594550609588,-0.10340689072161913,-0.47911637249365446
1733725300660207900,3.020207763671875,0.2568395028501749,-0.15497896478772163,-0.4911252285867929
1733725300670168800,3.0301689453125,0.2505722591489553,-0.20686405032575128,-0.5267250958867371
1733725300680131000,3.040131103515625,0.19958499923348424,-0.2757379723265767,-0.5910812482021749
1733725300690092800,3.0500927734375,0.1604617801129818,-0.3552878943815827,-0.6708889444105327
1733725300700054000,3.060053955078125,0.1537818639576435,-0.44533816766291856,-0.7335688340768217
1733725300710015700,3.070015625,0.16833236735761165,-0.49488487338125703,-0.7403206464245915
1733725300719977700,3.079977783203125,0.20111586206257343,-0.4724298804670572,-0.6792630972631275
1733725300729939000,3.08993896484375,0.23006664673686025,-0.4051598865315318,-0.5837018054753541
1733725300739901000,3.09990087890625,0.22916239137351513,-0.2913075896412134,-0.4938011697977781
1733725300749863000,3.10986279296875,0.20060849706232547,-0.1679486287370324,-0.4504626710698008
1733725300759824000,3.119823974609375,0.19755553923249244,-0.05132452904582023,-0.44209173308759925
1733725300769785900,3.129785888671875,0.17291268088519574,0.04492810600697994,-0.4858789984963834
1733725300779747800,3.139747802734375,0.17145079163908958,0.11106237391084432,-0.5049214064881206
1733725300789708800,3.149708740234375,0.16408347774147986,0.1407210145935416,-0.5133905441477894
1733725300799671000,3.159671142578125,0.15153145468235016,0.14987638095170258,-0.4906863987781107
1733725300809632800,3.1696328125,0.15046937840878963,0.09756284086853265,-0.4417281604722142
1733725300819594000,3.179593994140625,0.12183072842359542,-0.006859948897361755,-0.3752934483170509
1733725300829556000,3.189555908203125,0.07584288423061371,-0.12044365797936915,-0.33541415013223885
1733725300839518000,3.19951806640625,0.057357963991165155,-0.19902619630694388,-0.31828765876442194
1733725300849479000,3.20947900390625,0.05214987395405769,-0.21878040582984684,-0.3557562425456941
1733725300859441000,3.21944091796875,0.06439443849921227,-0.1885045100316405,-0.42944443296045065
1733725300869403000,3.22940283203125,0.0942471404492855,-0.1625087757706642,-0.4679837147131562
1733725300879364900,3.23936474609375,0.13253332422375677,-0.17370061639249323,-0.4820850130409002
1733725300889325800,3.249325927734375,0.17906477377414703,-0.20380378597229717,-0.4751226266823709
1733725300899288000,3.2592880859375,0.23200258323550224,-0.2194537750467658,-0.46183659026026724
1733725300909249800,3.269249755859375,0.23683657926321028,-0.204091370742023,-0.4551404536224901
1733725300919211000,3.2792109375,0.21216040316820142,-0.1982154644459486,-0.4782932195425033
1733725300929172700,3.2891728515625,0.18382044386863708,-0.18123685711622237,-0.5241302570879459
1733725300939134700,3.299134765625,0.16363865658342838,-0.17008038006871937,-0.5484916681453585
1733725300949096000,3.309095947265625,0.17140286084413528,-0.1613604825183749,-0.545166469245404
1733725300959058000,3.319057861328125,0.18079846569895744,-0.1807800532594323,-0.4852855626478791
1733725300969020000,3.32902001953125,0.1897743838369846,-0.21177987941801546,-0.43379678295105695
1733725300978980900,3.33898095703125,0.20875731672644615,-0.2108335384786129,-0.4391248461060226
1733725300988942800,3.34894287109375,0.19530629900097846,-0.10241320350915192,-0.48733431187123055
1733725300998904800,3.35890478515625,0.09132453100085258,0.026529695007205006,-0.5173617858663201
1733725301008865800,3.36886572265625,0.01776245118379593,0.07295096218138933,-0.5295303625658154
1733725301018828000,3.378828125,0.045353637942671776,0.01404664553105831,-0.531770104316622
1733725301028789800,3.388789794921875,0.09873276143074035,-0.044049861867725845,-0.5367059532836079
1733725301038751000,3.3987509765625,0.13359481597542763,-0.08475830435305834,-0.5357813857845962
1733725301048713000,3.408712890625,0.17287527148425577,-0.07410393160879611,-0.5404593144677579
1733725301058674700,3.4186748046875,0.1915484077721834,-0.08348375437259674,-0.5158480203025043
1733725301068636000,3.428635986328125,0.1983931591004133,-0.12565525514781475,-0.4738144666932523
1733725301078598000,3.438597900390625,0.20049451529383658,-0.20766455305367706,-0.4270211513362825
1733725301088559900,3.448559814453125,0.19495441682338713,-0.2495473000153899,-0.4128960337415337
1733725301098520800,3.458520751953125,0.18084931910336016,-0.22124387333393095,-0.425708169041574
1733725301108482800,3.46848291015625,0.16336217772960662,-0.1842228871896863,-0.43080972996428607
1733725301118444800,3.47844482421875,0.1495294672101736,-0.19819237583130597,-0.4377344146609306
1733725301128405800,3.48840576171875,0.14175357251167298,-0.2616612239181995,-0.41624549029991026
1733725301138368000,3.498367919921875,0.16821838558912275,-0.32776626572757955,-0.4102446424499154
1733725301148330000,3.508330078125,0.1886684684216976,-0.3403893081963062,-0.4445264128886163
1733725301158291000,3.518291015625,0.18714988055229187,-0.30654578304439783,-0.5205005222834647
1733725301168253000,3.5282529296875,0.17884207093417642,-0.26209143202900886,-0.5831495784200728
1733725301178215000,3.53821484375,0.16674071425199508,-0.2301891040727496,-0.617873685798794
1733725301188176400,3.54817626953125,0.1806219400882721,-0.21264409503191709,-0.6034488546051084
1733725301198138400,3.558138427734375,0.1774836420625448,-0.188939978839457,-0.5532663352012634
1733725301208100400,3.568100341796875,0.15863047303259373,-0.16806085693985223,-0.49265243815407156
1733725301218062300,3.578062255859375,0.12547580692768096,-0.14017916280180215,-0.44101314407065506
1733725301228023600,3.5880234375,0.12530161940455437,-0.13787234716415406,-0.38477337045446036
1733725301237985300,3.5979853515625,0.11908055293262004,-0.12680617874860764,-0.35129151822179555
1733725301247947500,3.607947509765625,0.13188918110132217,-0.09901859263479709,-0.3490203584194183
1733725301257908200,3.617908203125,0.1523527079373598,-0.0856263193592429,-0.38683117976710196
1733725301267870500,3.627870361328125,0.17329963437616824,-0.07077537170797586,-0.4331101158611476
1733725301277832400,3.63783251953125,0.21725743404626846,-0.05259644867777824,-0.47184462792500853
1733725301287793400,3.64779345703125,0.234666249486804,-0.050077451594173907,-0.4563438380628824
1733725301297755400,3.65775537109375,0.2608089910030365,-0.07056611287146806,-0.4118602609530091
1733725301307717400,3.66771728515625,0.25828385643959045,-0.1126230473563075,-0.3748617789015174
1733725301317678300,3.67767822265625,0.205887314248085,-0.17463146750181913,-0.3541768643997609
1733725301327640300,3.687640380859375,0.13948445853590966,-0.2522413614049554,-0.36487478402480483
1733725301337602300,3.697602294921875,0.07904372609853744,-0.28157091626375913,-0.3932083135835826
1733725301347563500,3.7075634765625,0.048295536613464356,-0.2432195582985878,-0.42340193792581554
1733725301357525200,3.717525146484375,0.0677776511967182,-0.18138357211053371,-0.44774595945701
1733725301367487500,3.727487548828125,0.10117021771073341,-0.13768003946244717,-0.4259257573150098
1733725301377448400,3.737448486328125,0.15786650292277335,-0.11317921993434428,-0.3884082198254764
1733725301387410400,3.747410400390625,0.20486206285357475,-0.1320940560236573,-0.3523962645933032
1733725301397372400,3.757372314453125,0.2088672068417072,-0.1294584468230605,-0.360791898625344
1733725301407333400,3.76733349609375,0.18523206423223018,-0.07991846310645341,-0.407220326192677
1733725301417295400,3.77729541015625,0.14097849648594857,-0.03260112387537956,-0.44911388680934905
1733725301427257300,3.78725732421875,0.11968319500088691,-0.011327741961181163,-0.46814124336242674
1733725301437218300,3.79721826171875,0.08387421499490737,-0.017567805394530296,-0.4534999929390847
1733725301447180500,3.8071806640625,0.07453238615393638,-0.00003682487905025482,-0.4407322813026607
1733725301457142300,3.817142333984375,0.08889876515865325,-0.04860562547594308,-0.4407489401765167
1733725301467103500,3.827103515625,0.08435819911956786,-0.1091807979479432,-0.4711161675199866
1733725301477065200,3.837065185546875,0.05151975935697555,-0.06669131726473569,-0.5432997985906899
1733725301487027500,3.84702734375,0.005476970106363296,-0.008216331942379473,-0.5411082798957825
1733725301496988400,3.856988525390625,0.002304185289144516,0.062250119946897026,-0.4660233744256198
1733725301506950400,3.866950439453125,0.06757482210099697,0.11882014843076467,-0.3807439688079059
1733725301516912400,3.876912353515625,0.17335516395568848,0.1279421970412135,-0.30862507353648544
1733725301526873300,3.886873291015625,0.26573417244553565,0.06324468394219875,-0.2356578908726573
1733725301536835300,3.89683544921875,0.2881049942076206,-0.05419453152418136,-0.18717691468968986
1733725301546797600,3.906797607421875,0.2688566883802414,-0.15182722275853155,-0.1599218280173838
1733725301556758500,3.916758544921875,0.19286708915531633,-0.2153203285038471,-0.20924524637386202
1733725301566720500,3.926720458984375,0.10955576874017715,-0.2810626744806766,-0.2911437773816287
1733725301576682200,3.93668212890625,0.06372106928229332,-0.37681992723196744,-0.4143830574288964
1733725301586644500,3.94664453125,0.07190671382546425,-0.48272184963971376,-0.5025972013242542
1733725301596605200,3.956605224609375,0.12907003202736378,-0.5665189077451824,-0.5398794687531888
1733725301606567400,3.9665673828125,0.1900146223336458,-0.5573004130229353,-0.5235184087999165
1733725301616529400,3.976529296875,0.22276830642223358,-0.48563949065208434,-0.4646779511660337
1733725301626490400,3.986490478515625,0.24266250893771646,-0.40817543496042485,-0.4168905102051794
1733725301636452400,3.996452392578125,0.2188672073304653,-0.3232455734327435,-0.40460692882388827
1733725301646414600,4.00641455078125,0.16549918975830077,-0.24130612589269876,-0.4263223554171622
1733725301656375300,4.016375244140625,0.11313187366127968,-0.15142361039370297,-0.4756263384208083
1733725301666337500,4.026337646484375,0.08353168516755104,-0.08577858731150627,-0.5274946189545094
1733725301676299300,4.03629931640625,0.10668810434937477,-0.0791547852575779,-0.5501395814828575
1733725301686260500,4.046260498046875,0.1917407154738903,-0.12495499792397022,-0.5164544617630541
1733725301696222200,4.05622216796875,0.2894166613280773,-0.14458704237192868,-0.4738771566659212
1733725301706184400,4.066184326171875,0.31144846039414403,-0.12598930940777062,-0.45225978361964225
1733725301716145400,4.0761455078125,0.25706279021203515,-0.1014516650006175,-0.4580452351532876
1733725301726107400,4.086107421875,0.186508075517416,-0.08578063313812016,-0.4564924527533352
1733725301736069400,4.0960693359375,0.13119009292125702,-0.09532616785764694,-0.43961262962296604
1733725301746030300,4.1060302734375,0.11453589524030684,-0.07878741324990987,-0.4191315671302378
1733725301755992300,4.115992431640625,0.08845335947871208,-0.058792088447511194,-0.3842041191991418
1733725301765954600,4.12595458984375,0.07968728469908237,-0.003477320721745491,-0.3530916264463216
1733725301775915300,4.135915283203125,0.07389175016283989,0.07037848134487867,-0.34311296100653704
1733725301785877500,4.14587744140625,0.06283493409752845,0.11707184345871209,-0.3051164808936417
1733725301795839200,4.155839111328125,0.07249941902160643,0.1104573937550187,-0.2524036392945796
1733725301805800400,4.165800537109375,0.0967570774435997,0.0505439000621438,-0.19252485158890484
1733725301815762400,4.175762451171875,0.11772913832366466,-0.04468903655409813,-0.1531600057322532
1733725301825724400,4.185724365234375,0.10517419265508651,-0.09819675485789775,-0.18493015867620705
1733725301835685400,4.195685302734375,0.06320201384425163,-0.10021072502881288,-0.27432942070290445
1733725301845647400,4.2056474609375,0.011315174740552901,-0.042139352071285247,-0.37956820302680133
1733725301855609300,4.215609375,-0.005107552272081375,0.004544073170423508,-0.43845461869426067
1733725301865570300,4.2255703125,0.015790274327993393,0.014696633872389793,-0.4440789613820612
1733725301875532300,4.2355322265625,0.04799976853728294,-0.002809212201833725,-0.3886925897248089
1733725301885494500,4.24549462890625,0.09563947159051894,-0.05122311449795961,-0.2975940494995564
1733725301895455500,4.25545556640625,0.13283610656261444,-0.1577890537723899,-0.20970789544954896
1733725301905417500,4.26541748046875,0.13048749760985373,-0.23564298556447028,-0.19959917388930914
1733725301915379500,4.27537939453125,0.10963292562961578,-0.21105068836063146,-0.2559551212310791
1733725301925340400,4.28534033203125,0.10635492687225341,-0.17250760721564293,-0.36498657383620736
1733725301935302400,4.295302490234375,0.1317173316657543,-0.14561083246171475,-0.4900478816788643
1733725301945264400,4.305264404296875,0.1543091027021408,-0.15448358248621225,-0.5929695461668074
1733725301955225300,4.315225341796875,0.18982582176327703,-0.17672873204201459,-0.6213895119000226
1733725301965187300,4.325187255859375,0.21588965282440184,-0.1701364941701293,-0.5851457937385887
1733725301975149300,4.3351494140625,0.23308161064386365,-0.12636778733134268,-0.5290583611398935
1733725301985110500,4.345110595703125,0.23388532824218272,-0.07727087120711804,-0.46192799487076697
1733725301995072300,4.355072265625,0.22422727305889129,-0.09700549924671649,-0.38362230072319503
1733725302005034500,4.365034423828125,0.2251554938197136,-0.16210691697150467,-0.3314054990127682
1733725302014995500,4.374995361328125,0.19780922173261642,-0.25906185507476326,-0.3195087249919772
1733725302024957400,4.38495751953125,0.17605214795470236,-0.2932639844059944,-0.3401367947399616
1733725302034919400,4.39491943359375,0.1597515860170126,-0.2987991144403815,-0.35880386661328373
1733725302044880400,4.40488037109375,0.15088672703802586,-0.2668038475036621,-0.41115569288022813
1733725302054842400,4.41484228515625,0.15115560710728168,-0.22008067477345467,-0.47715851642414925
1733725302064804400,4.424804443359375,0.1480138019502163,-0.18976093983352182,-0.5138047509718686
1733725302074766300,4.434766357421875,0.1751134057998657,-0.18721242439448832,-0.515603251761198
1733725302084727600,4.4447275390625,0.19541385102868078,-0.18857669848501682,-0.4735563272137195
1733725302094689300,4.454689208984375,0.20569383750259876,-0.18062632400244474,-0.4152905276626348
1733725302104651500,4.464651611328125,0.18169161514639853,-0.15784429109096526,-0.38883594371825453
1733725302114612200,4.4746123046875,0.13580197063088417,-0.1542760772153735,-0.38360491119697687
1733725302124574500,4.484574462890625,0.10107318707704543,-0.16144962210655212,-0.38824601500108835
1733725302134536400,4.494536376953125,0.06985854912400245,-0.17573212222009896,-0.42279900359660383
1733725302144497400,4.504497314453125,0.0834767401099205,-0.17519348529875278,-0.413397626588121
1733725302154459400,4.51445947265625,0.12221359026134014,-0.15687632284164427,-0.35481297034621234
1733725302164421400,4.52442138671875,0.14973463439345358,-0.14650427417010067,-0.2728560602147132
1733725302174382300,4.53438232421875,0.17779051605463028,-0.14871902761012315,-0.2746842985551804
1733725302184344600,4.544344482421875,0.13672726878225802,-0.10095569817721843,-0.36499497633837164
1733725302194306300,4.554306396484375,0.09373451475203037,-0.010789689561724661,-0.508980618751049
1733725302204267300,4.564267333984375,0.04919803841114044,0.056531157778203486,-0.6288147665299475
1733725302214229200,4.574229248046875,0.05045066882073879,0.07156447625905275,-0.6495491461966186
1733725302224191500,4.58419140625,0.03855038766860962,0.07749182048141956,-0.5609576203562319
1733725302234152200,4.594152099609375,0.05977379296123981,0.04762392096221447,-0.4182734159309417
1733725302244114400,4.604114501953125,0.11710194633603095,0.04458645296245813,-0.24508754412755368
1733725302254076400,4.614076416015625,0.146449621373415,0.09880787249356508,-0.12201193020939827
1733725302264037400,4.624037353515625,0.1430114636182785,0.18983546637445686,-0.07528335065171123
1733725302273999400,4.633999267578125,0.11468553284406661,0.2502846743792295,-0.11367533288821577
1733725302283961300,4.64396142578125,0.07855974197387695,0.22990298060774803,-0.172795630376786
1733725302293922300,4.65392236328125,0.049529462322592734,0.13164835808277128,-0.2043191881485283
1733725302303884300,4.66388427734375,0.027353286349773406,-0.014517770174145697,-0.21178718594163656
1733725302313846300,4.67384619140625,0.028534020566940307,-0.1454991887807846,-0.2026514010667801
1733725302323807500,4.683807373046875,0.06021510698795318,-0.2563616562053561,-0.17864596384018658
1733725302333769200,4.693769287109375,0.12503975359797476,-0.31799744364619253,-0.17777824109494686
1733725302343731500,4.7037314453125,0.17696517114639282,-0.2991273234814405,-0.20665632585920393
1733725302353692400,4.7136923828125,0.19288520933389663,-0.23147885162234305,-0.25841201286390425
1733725302363654400,4.723654296875,0.15295885713696478,-0.13678689001500605,-0.31280732765719294
1733725302373616400,4.733616455078125,0.08514496558308601,-0.06024316403865814,-0.3473562976647168
1733725302383577300,4.743577392578125,0.025869769793748856,-0.018573475305736064,-0.34904899999201294
1733725302393539300,4.753539306640625,-0.0020434885263442993,-0.017070085005462168,-0.32759719277098776
1733725302403501300,4.763501220703125,0.01844283466339111,-0.0638546325340867,-0.3010996464677155
1733725302413462500,4.773462646484375,0.06413841791152954,-0.09906973830014466,-0.3051664575152099
1733725302423424500,4.783424560546875,0.09651157824993133,-0.13059417285472155,-0.3564655598588288
1733725302433386200,4.79338623046875,0.13954992498755453,-0.1429533036902547,-0.4159541792031377
1733725302443347500,4.803347412109375,0.18800562059879303,-0.14764029246270655,-0.45518012804575264
1733725302453309200,4.81330908203125,0.19346856217980385,-0.14761778836995362,-0.4838251347064972
1733725302463271400,4.823271484375,0.17204817301034928,-0.1544143166422844,-0.4739141276754439
1733725302473232400,4.833232421875,0.1420142692744732,-0.18333645974397658,-0.46540137006975707
1733725302483194400,4.8431943359375,0.1232914486259222,-0.20162761097699403,-0.4575326825212687
1733725302493156400,4.85315625,0.11314707123041153,-0.21434388468712567,-0.43316637609302994
1733725302503117300,4.863117431640625,0.14486673609614373,-0.2128650443062186,-0.40798758423812687
1733725302513079300,4.873079345703125,0.17554712104201317,-0.21343319958299398,-0.38843700752854343
1733725302523041500,4.88304150390625,0.2219125663757324,-0.18165332896262407,-0.3911138255223632
1733725302533002500,4.89300244140625,0.2565530871242285,-0.15716858378648757,-0.4032048069410026
1733725302542964500,4.902964599609375,0.26471476626992224,-0.1526867621973157,-0.395329105129838
1733725302552926200,4.91292626953125,0.25418869608044625,-0.1607698231488466,-0.3888280526727438
1733725302562887400,4.922887451171875,0.18954992743134497,-0.15662234808057546,-0.37898755359463393
1733725302572849200,4.93284912109375,0.12711831343770028,-0.16573679790645837,-0.362054465907067
1733725302582811400,4.942811279296875,0.10389292067289352,-0.15839228036254643,-0.3421135747056454
1733725302592772600,4.952772705078125,0.06842647049427032,-0.14714286433458326,-0.3278323167011142
1733725302602734300,4.962734375,0.08291209196448325,-0.12678513596057892,-0.32371494451016186
1733725302612696300,4.9726962890625,0.10696750581264496,-0.1196595218643546,-0.31965339415967464
1733725302622657300,4.9826572265625,0.1264332537829876,-0.11338438711762427,-0.3184288208007812
1733725302632619300,4.992619384765625,0.12222002000212669,-0.08535597798526287,-0.3282707811836153
1733725302642581500,5.00258154296875,0.10369242966473102,-0.06503975066542625,-0.32615685776956377
1733725302652542500,5.01254248046875,0.07213409284055232,-0.06238982067853212,-0.3425475822087377
1733725302662504400,5.02250439453125,0.058655602586269374,-0.0582493598729372,-0.33304742100089785
1733725302672466200,5.032466064453125,0.05016483761668205,-0.057763329921662804,-0.3224414174430072
1733725302682427400,5.042427490234375,0.05915010810494423,-0.05060644390434026,-0.3119756991386413
1733725302692389400,5.052389404296875,0.06985036581754685,-0.020021628287434576,-0.30192718333303925
1733725302702351400,5.062351318359375,0.09191548263132572,0.013014672134816645,-0.2981201192002743
1733725302712312600,5.0723125,0.08693769421875476,0.028287936851382253,-0.2931654924675822
1733725302722274300,5.0822744140625,0.07997194685935974,0.018209318168461323,-0.2707276698838919
1733725302732236300,5.092236328125,0.08168985669314861,0.0009308511093258857,-0.23226276854164898
1733725302742197200,5.102197265625,0.06805939074754715,-0.03128887223303318,-0.19473237157054243
1733725302752159200,5.1121591796875,0.06802431943416595,-0.05279460159838199,-0.17148016386404633
1733725302762121500,5.12212158203125,0.09488660739660262,-0.0795855778902769,-0.1898363431572914
1733725302772083200,5.132083251953125,0.10236965662837028,-0.07751198648661374,-0.21898630366548893
1733725302782044400,5.14204443359375,0.11164251188635825,-0.06894435688853263,-0.26504626324661074
1733725302792006100,5.152006103515625,0.12835983793139458,-0.06571750379651785,-0.29146701798662544
1733725302801968400,5.161968505859375,0.13557751422524453,-0.0793891785353422,-0.30816432415693995
1733725302811929300,5.171929443359375,0.149599609836936,-0.11947364390343428,-0.30656850633285937
1733725302821891300,5.181891357421875,0.13504092313051222,-0.18259587050974369,-0.2922770191952586
1733725302831853300,5.191853271484375,0.13572832087278366,-0.20215777233093976,-0.3015102730952203
1733725302841814300,5.201814208984375,0.1417173321545124,-0.2019581581056118,-0.32209859535470603
1733725302851776300,5.2117763671875,0.14922142417430878,-0.19101999998390673,-0.35036958107128735
1733725302861738500,5.221738525390625,0.1722597699344158,-0.1654062507778406,-0.36706031137034295
1733725302871699500,5.231699462890625,0.21017185969948768,-0.15831483121216297,-0.3720609692018479
1733725302881661400,5.241661376953125,0.2432920390129089,-0.20180355206578968,-0.3519977667950094
1733725302891623200,5.251623046875,0.20402619655132292,-0.24295447762161493,-0.34982188406065107
1733725302901584400,5.26158447265625,0.11175415556728839,-0.25730507453531026,-0.3342993938233703
1733725302911546400,5.27154638671875,0.030745851397514342,-0.2062260446831584,-0.3278811973441392
1733725302921508400,5.28150830078125,-0.01033142440021038,-0.11228197883367538,-0.3251620015133172
1733725302931469600,5.291469482421875,0.018342881420254708,-0.04516337606757879,-0.3354644920799881
1733725302941431300,5.301431396484375,0.07865618808567523,0.014401450318098067,-0.3392224563740194
1733725302951393300,5.311393310546875,0.14732581968605518,0.08416706046164035,-0.32383564828038214
1733725302961354200,5.321354248046875,0.17832009288668632,0.11385142010748386,-0.28172712973877784
1733725302971316200,5.331316162109375,0.13836509911715983,0.10505787279903889,-0.23336240034662187
1733725302981278500,5.341278564453125,0.09250643426179886,0.05261836824864149,-0.18556494944840668
1733725302991239400,5.351239501953125,0.07259294252395629,-0.022225860333442687,-0.13782755817435682
1733725303001201400,5.361201416015625,0.0591512771487236,-0.08819412402063607,-0.11963767535872756
1733725303011163400,5.371163330078125,0.05338438418507575,-0.10040011012107133,-0.14073051307424903
1733725303021124400,5.381124267578125,0.0467816249191761,-0.08601677998155355,-0.14127097662650048
1733725303031086300,5.39108642578125,0.04982581492066383,-0.06557955663055182,-0.11658398687653243
1733725303041048300,5.40104833984375,0.08770634050369262,-0.04782090483903884,-0.08851984884366393
1733725303051009500,5.411009521484375,0.14845453145503998,-0.010911854636669159,-0.08624372060522437
1733725303060971300,5.42097119140625,0.21480478019714355,0.030034195996820924,-0.13675919829048216
1733725303070933200,5.430933349609375,0.24412790531516074,0.011701835970580577,-0.2597408503148705
1733725303080894500,5.44089453125,0.19923779323101043,-0.07237988429516554,-0.4338608611632138
1733725303090856200,5.450856201171875,0.127090840908885,-0.21474954287856815,-0.6487257740497588
1733725303100818400,5.460818359375,0.06680734485983848,-0.4001543333292007,-0.8674378638837486
1733725303110779400,5.470779296875,0.09241524884700775,-0.5495066904067993,-1.0297050129182637
1733725303120741400,5.480741455078125,0.1962719291627407,-0.5890116023212671,-1.1375759703766555
1733725303130703400,5.490703369140625,0.23083120136857033,-0.5184516269296408,-1.104147236570716
1733725303140664300,5.500664306640625,0.14368424831330776,-0.40735505848824977,-0.8652893806129693
1733725303150626300,5.510626220703125,-0.009278700476884841,-0.2634662275135517,-0.5739112099535763
1733725303160588300,5.52058837890625,-0.07406944481730461,-0.04970861828178167,-0.3287009162291884
1733725303170549500,5.530549560546875,0.031713819646835326,0.16615648462325333,-0.1435867062229663
1733725303180511500,5.540511474609375,0.21398118885457515,0.2700128726780414,-0.04750979306325316
1733725303190473500,5.550473388671875,0.3666208970397711,0.20164660793840883,0.01579093191511929
1733725303200434700,5.5604345703125,0.4025058648914098,-0.01489887844622135,0.056312911917641754
1733725303210396400,5.570396484375,0.2977040126800537,-0.22041531355530022,0.049547436370700595
1733725303220358700,5.580358642578125,0.11152911463975906,-0.2904740614265203,-0.03054046501852572
1733725303230319600,5.590319580078125,-0.07260229487419129,-0.24857202524244784,-0.12930500982701779
1733725303240281600,5.600281494140625,-0.16040741957724095,-0.14380992051959038,-0.16960881703421474
1733725303250243600,5.61024365234375,-0.12496142766475676,-0.03809679868221283,-0.1796573328398168
1733725303260204500,5.62020458984375,0.0010673369705677031,0.031867548903822894,-0.15962006859183311
1733725303270166500,5.63016650390625,0.1260007075846195,0.06036649815738201,-0.11850750228501855
1733725303280128800,5.640128662109375,0.20212299327850342,0.08690320742726325,-0.06544906211867928
1733725303290089700,5.65008984375,0.1729389843702316,0.1300762864604592,-0.0010869915191084145
1733725303300051700,5.6600517578125,0.0632376696795225,0.18560148206651209,0.029539617412909863
1733725303310013400,5.670013427734375,-0.07692424972653389,0.22498364438414573,0.0329720030143857
1733725303319974700,5.679974609375,-0.17086743879318236,0.2611693487480283,0.001522095000743866
1733725303329936400,5.689936279296875,-0.18498130434155463,0.27809154971539973,-0.03922361075505614
1733725303339898600,5.699898681640625,-0.08758008377552032,0.23088147025108335,-0.08330211419537663
1733725303349859800,5.70985986328125,0.05674889218211174,0.14697949046641587,-0.12056436174958944
1733725303359821600,5.719821533203125,0.20077683936655522,0.058794718796014785,-0.1674240934062749
1733725303369783600,5.729783447265625,0.2853215009689331,-0.010979366914927959,-0.23591537276506422
1733725303379744500,5.73974462890625,0.2738490898400545,-0.07700462148636579,-0.3399663335438817
1733725303389706500,5.74970654296875,0.22615853338241576,-0.1297013156682253,-0.45856399833038447
1733725303399668700,5.759668701171875,0.136501643332839,-0.18287907136529682,-0.5617193985089659
1733725303409629700,5.769629638671875,0.08305588434934616,-0.24596242726594209,-0.6343083955101668
1733725303419591700,5.779591796875,0.07362403913736343,-0.3113379857569933,-0.6652963851004838
1733725303429553400,5.789553466796875,0.11668810483813286,-0.3716626905992627,-0.6529894228436053
1733725303439514600,5.7995146484375,0.18436989444494245,-0.3937757382079959,-0.6144687727261334
1733725303449476600,5.8094765625,0.2467652680814266,-0.3655155661463737,-0.5674171717591583
1733725303459438600,5.8194384765625,0.27863106341958044,-0.290918590323627,-0.5204763376902789
1733725303469399800,5.82939990234375,0.2852911058306694,-0.2183019746631384,-0.4919824299380183
1733725303479361500,5.839361572265625,0.26139351289272306,-0.18961217901259658,-0.4541552419774234
1733725303489323500,5.849323486328125,0.2264402729332447,-0.2059606717452407,-0.4164956656686961
1733725303499284500,5.859284423828125,0.2220136886626482,-0.21922873411923646,-0.3985720325738191
1733725303509246500,5.86924658203125,0.21330022085309028,-0.21988281411379573,-0.37213637252561743
1733725303519208700,5.879208740234375,0.19200784197747706,-0.2063172300979495,-0.3465351905401796
1733725303529169700,5.889169677734375,0.13960779265463352,-0.1809872662693262,-0.3130634213101119
1733725303539131600,5.899131591796875,0.07233692193627357,-0.15117343502491712,-0.2734709772426635
1733725303549093600,5.90909375,0.018972411495447157,-0.11132044032514095,-0.23660876185670493
1733725303559054600,5.9190546875,-0.030171850901842115,-0.058247314046323294,-0.1902601945925504
1733725303569016600,5.9290166015625,-0.03895604586005211,0.005964169101417064,-0.16047347055077552
1733725303578978600,5.938978515625,-0.03809095346331596,0.07381547005623579,-0.13687581040747462
1733725303588939800,5.948939697265625,-0.024743396112322805,0.12475392239391803,-0.14272629000134765
1733725303598901500,5.958901611328125,0.013836802172660827,0.1515183029398322,-0.16685118888914585
1733725303608863500,5.968863525390625,0.05167582670152187,0.1680430290222168,-0.20986936962157487
1733725303618824700,5.97882470703125,0.08768003701865673,0.16485913828909396,-0.2529618576992303
1733725303628786700,5.98878662109375,0.08620178115963935,0.12316314607113599,-0.29267785508111116
1733725303638748700,5.998748779296875,0.0931581761687994,0.0522106642305851,-0.30932394252084194
1733725303648709600,6.008709716796875,0.06478373007774353,-0.020999241147935388,-0.27938378148302434
1733725303658671600,6.018671630859375,0.05052373405694961,-0.07309095517396927,-0.23587058377526698
1733725303668633600,6.028633544921875,0.053685997480154034,-0.0783636348798871,-0.21083521897904572
1733725303678594600,6.038594482421875,0.0654997693926096,-0.08667261354178189,-0.2047267460361123
1733725303688556500,6.048556640625,0.08277180671095848,-0.115792617303133,-0.1825765082221478
1733725303698518500,6.0585185546875,0.1077887590676546,-0.12876958777606487,-0.14716851023249328
1733725303708479700,6.068479736328125,0.12393383818268776,-0.12858195624947547,-0.10623663425482809
1733725303718441700,6.078441650390625,0.11634323692321777,-0.10766191781759261,-0.07608531468436122
1733725303728403500,6.088403564453125,0.09236030378937721,-0.07051993564218283,-0.08998203035071492
1733725303738364700,6.09836474609375,0.09695698392987251,-0.04498948080539703,-0.1535853915374726
1733725303748326700,6.10832666015625,0.1201367839872837,-0.05030687643587589,-0.22981296423673628
1733725303758288600,6.11828857421875,0.16261925040781497,-0.07468465410619973,-0.2946648641798645
1733725303768249600,6.12824951171875,0.19186346507072446,-0.11092501126676797,-0.33602307581081986
1733725303778211600,6.138211669921875,0.21237433817982673,-0.14653846870064735,-0.3548247338492423
1733725303788173600,6.148173583984375,0.2114811887323856,-0.18746698367744682,-0.36871640801429745
1733725303798134500,6.158134521484375,0.19075287348031997,-0.22404870162159204,-0.41405872084535655
1733725303808096800,6.1680966796875,0.14488368723094464,-0.19702567013949154,-0.4769092178381979
1733725303818058800,6.178058837890625,0.08688625629246234,-0.14790888027101753,-0.5275486141640693
1733725303828019700,6.188019775390625,0.022679449319839475,-0.08955781358927488,-0.508544638486579
1733725303837981700,6.197981689453125,0.00941430955529213,-0.0394204485014081,-0.4132764844264835
1733725303847943400,6.207943359375,0.043510055902600285,-0.0008712298765778541,-0.30967816278599203
1733725303857904600,6.217904541015625,0.0840343739926815,0.04049743008315563,-0.2475788494866341
1733725303867866600,6.22786669921875,0.11078794088363647,0.06858224557787179,-0.2069565509147942
1733725303877828600,6.23782861328125,0.09810849205255508,0.04109773406386375,-0.18251381824947893
1733725303887789800,6.247789794921875,0.06393266620635986,-0.03012771949917078,-0.16271014356166125
1733725303897751600,6.25775146484375,0.05916121402084827,-0.09402648343592881,-0.18454327825047076
1733725303907713500,6.267713623046875,0.06311082842946052,-0.1674538309574127,-0.1993948834888637
1733725303917674500,6.277674560546875,0.09433364968895912,-0.21542203531265258,-0.21554887656271457
1733725303927636700,6.28763671875,0.12748480866253376,-0.23502514592707155,-0.23629297390580176
1733725303937598700,6.2975986328125,0.13338847974836826,-0.20263708028048275,-0.2478486063387245
1733725303947559700,6.3075595703125,0.13685177194476128,-0.15420885719805955,-0.23482670074552295
1733725303957521700,6.317521728515625,0.1400876851260662,-0.1023772554129362,-0.2118569632422179
1733725303967483600,6.327483642578125,0.1459644682049751,-0.031071430090069768,-0.2061168121550232
1733725303977444600,6.337444580078125,0.15290508112311363,0.039426585981249804,-0.22445530966110527
1733725303987406800,6.34740673828125,0.11778934407830238,0.09342208780199289,-0.24457564908266066
1733725303997368600,6.35736865234375,0.07143091300725936,0.10626344919651746,-0.25631591736748816
1733725304007329800,6.367329833984375,0.0664057783216238,0.07898556617051362,-0.25517829163968564
1733725304017291500,6.37729150390625,0.06800970638692379,0.03823006967306137,-0.24169834008067845
1733725304027253500,6.38725341796875,0.08586158941984176,-0.011645721869170665,-0.24083105572685598
1733725304037214500,6.39721435546875,0.09729425306022167,-0.017713351345062255,-0.23682488882541655
1733725304047176700,6.4071767578125,0.10412556038498878,-0.007078852345049381,-0.26811792577691373
1733725304057138700,6.417138671875,0.11129998205900192,0.0029106267496943473,-0.30744623901546
1733725304067099600,6.427099609375,0.09725742818117142,0.0173868958696723,-0.345556627831608
1733725304077061600,6.4370615234375,0.09455342991948128,0.013611176723241806,-0.37397045608498153
1733725304087023600,6.447023681640625,0.082679452252388,-0.01806084960848093,-0.3737028911899775
1733725304096984600,6.456984619140625,0.06271978328526019,-0.10231968000680208,-0.3534513266041875
1733725304106946800,6.46694677734375,0.03982464538812637,-0.17510463797152043,-0.3133620389305055
1733725304116908500,6.476908447265625,0.04466097950339317,-0.22663345741778612,-0.2832894106194377
1733725304126869800,6.486869873046875,0.07218611528873443,-0.23150252475887537,-0.2680162920333445
1733725304136831500,6.49683154296875,0.10913725106716156,-0.22740327274650335,-0.272294553874433
1733725304146793700,6.506793701171875,0.14034604380130766,-0.20566461140811443,-0.26704525504410265
1733725304156754700,6.516754638671875,0.17302315552234648,-0.19265870710164307,-0.2476131901476532
1733725304166716700,6.526716552734375,0.19729016629457471,-0.16133534807711838,-0.2044634919900447
1733725304176678700,6.5366787109375,0.16556933238506316,-0.12427256861776113,-0.17098463543206452
1733725304186639600,6.5466396484375,0.13115268352031706,-0.06452069522738456,-0.1531581060361117
1733725304196600600,6.5566005859375,0.10206570524573326,-0.02734568756520748,-0.13949205732047557
1733725304206562800,6.566562744140625,0.08481997141242027,-0.028236791186034678,-0.17282661003693936
1733725304216523500,6.5765234375,0.08877543103992938,-0.022082067948579788,-0.21790091958157717
1733725304226485800,6.58648583984375,0.10195698417425154,-0.013422960674762724,-0.26915559826157986
1733725304236447500,6.596447509765625,0.11762743151485919,0.0077472531259059904,-0.30163682208433745
1733725304246408700,6.60640869140625,0.11560381673276424,0.0010202829584479332,-0.2951334315396845
1733725304256370400,6.616370361328125,0.08756371716260909,-0.03125350865870714,-0.28684827214479447
1733725304266332700,6.626332763671875,0.07952420309185981,-0.06301116744726896,-0.27753749602921307
1733725304276293600,6.636293701171875,0.06466507213413715,-0.09629530515074729,-0.2704937149975449
1733725304286255600,6.646255615234375,0.0859293939590454,-0.12905191184878348,-0.28458069253899154
1733725304296217600,6.656217529296875,0.0913888284087181,-0.12667933749854565,-0.29398206954747436
1733725304306178600,6.666178466796875,0.08849310696721076,-0.11022533856481313,-0.30590397800952196
1733725304316140500,6.676140625,0.10246668726205825,-0.07400164027810097,-0.30450280597470697
1733725304326102800,6.686102783203125,0.11557751324772834,-0.05050999779254198,-0.2884167635705322
1733725304336063700,6.696063720703125,0.1169300969004631,-0.07303951724767685,-0.2769827847559005
1733725304346025700,6.706025634765625,0.12312719797492026,-0.08496113344877958,-0.25641857402436435
1733725304355987500,6.715987548828125,0.10439210236668586,-0.06978373032212257,-0.23553148801401255
1733725304365948700,6.72594873046875,0.10452654240131377,-0.0363441097959876,-0.2058312732119113
1733725304375910700,6.73591064453125,0.09509119005799294,0.007877309246361255,-0.18579897739998996
1733725304385871600,6.74587158203125,0.10210895986557006,0.008043021202087402,-0.15070340636037288
1733725304395833900,6.755833740234375,0.10883213064074515,-0.014698971959948539,-0.13729250144958496
1733725304405795600,6.765795654296875,0.11134557476639748,-0.037703415450453755,-0.1239516661003232
1733725304415756800,6.7757568359375,0.0978548095524311,-0.04633972637057304,-0.12772658152915536
1733725304425718500,6.785718505859375,0.07186813538074494,-0.05467179364711046,-0.15686989310085772
1733725304435680500,6.795680419921875,0.046291795575618744,-0.05769727894812822,-0.1771871433340013
1733725304445641700,6.805641845703125,0.041534956437349314,-0.07862374712079763,-0.22120273760594425
1733725304455603700,6.815603759765625,0.055819502377510065,-0.07284867085069417,-0.2606668791186064
1733725304465565700,6.825565673828125,0.06906593744158744,-0.050184711360931396,-0.2829395742684603
1733725304475526700,6.835526611328125,0.09331248994767666,-0.021987667663395404,-0.30485702623985705
1733725304485488600,6.845488525390625,0.10770984861254691,0.00604191051274538,-0.30139168821685014
1733725304495450600,6.85545068359375,0.09677928927540778,0.005738251391053199,-0.30221593714654443
1733725304505411600,6.86541162109375,0.07664952443838119,-0.034898879423737525,-0.2773158891677856
1733725304515373800,6.875373779296875,0.06687047322392463,-0.061223699508607385,-0.2614640208456665
1733725304525335600,6.88533544921875,0.08138415174484252,-0.07009557275027037,-0.2767611048292368
1733725304535296800,6.895296875,0.10241174220442771,-0.09724135382920503,-0.2840424940090626
1733725304545258800,6.9052587890625,0.13903671476840973,-0.13695844718962907,-0.29536921305693686
1733725304555220500,6.915220458984375,0.15406301898658276,-0.16735913841128347,-0.27925891299434
1733725304565181700,6.925181640625,0.14925766453146933,-0.16813333765417338,-0.23966018531657754
1733725304575143700,6.935143798828125,0.1351204181075096,-0.13296733172684908,-0.19605704430304466
1733725304585105700,6.945105712890625,0.10501637174487113,-0.09798486567288636,-0.1792247135762125
1733725304595066600,6.955066650390625,0.08088672361671924,-0.058034255817532535,-0.18302914736047385
1733725304605028600,6.965028564453125,0.07563713252544403,-0.03991115462779998,-0.18951149511709808
1733725304614990600,6.974990478515625,0.07661679121255874,-0.03895750716477632,-0.19293679339066147
1733725304624951600,6.98495166015625,0.07947451873123645,-0.03107318365573883,-0.21145349700786173
1733725304634913800,6.994913818359375,0.08018763543665408,-0.031943829010427,-0.24980631627775726
1733725304644875800,7.004875732421875,0.08103343861103057,-0.04860971712917089,-0.29031974764764307
1733725304654836700,7.014836669921875,0.0713461573332548,-0.0770829474195838,-0.29158925612680614
1733725304664798700,7.024798828125,0.07713233951926231,-0.09097586369365453,-0.2906207764208317
1733725304674760700,7.0347607421875,0.07004559612870216,-0.07240005030035972,-0.26267734215818345
1733725304684721700,7.0447216796875,0.0757125358492136,-0.027269991980493066,-0.2334450371287763
1733725304694683600,7.05468359375,0.08471300390660762,0.00029606033712625503,-0.2091965849265456
1733725304704645600,7.064645751953125,0.09571545943617821,0.015261282017827033,-0.17816373328119514
1733725304714606800,7.07460693359375,0.09790157130360602,0.03151888159662485,-0.16308745244145392
1733725304724568600,7.084568603515625,0.09052081340253353,0.013779519027471541,-0.17030374049581587
1733725304734530600,7.094530517578125,0.09415478599071501,0.0063923313856124875,-0.18742453277520835
1733725304744491500,7.104491455078125,0.10873393096327781,-0.027388649924099444,-0.19409129718802867
1733725304754453800,7.114453857421875,0.11068798764050006,-0.07746522473543882,-0.18892690016217528
1733725304764415700,7.124415771484375,0.10183423457741737,-0.10543050550371408,-0.19516513696461915
1733725304774376700,7.134376708984375,0.09956628964543342,-0.10342325733453035,-0.1947879742152989
1733725304784338700,7.144338623046875,0.10811199967265128,-0.07810118455141782,-0.19976415519267318
1733725304794300700,7.15430078125,0.10364566791355609,-0.06182517253309488,-0.23377770314924418
1733725304804261600,7.16426171875,0.09856734173595905,-0.054823769338428974,-0.24974282258749006
1733725304814224000,7.174223876953125,0.09614800563454627,-0.0611576485350728,-0.24933416872136294
1733725304824185600,7.184185546875,0.08903788136839866,-0.07506956177055835,-0.2568659524656832
1733725304834146800,7.194146728515625,0.07577858682274818,-0.0785702633678913,-0.2675086347721517
1733725304844108500,7.204108642578125,0.09360475089251995,-0.05754501099586486,-0.2834823028430343
1733725304854069800,7.21406982421875,0.11007131704688071,-0.03450432714819908,-0.2941794187504798
1733725304864031500,7.224031494140625,0.14295359595119952,-0.034383915638923644,-0.27954825132973493
1733725304873993700,7.23399365234375,0.12314824076294899,-0.06656739862412214,-0.2428355274170637
1733725304883954700,7.24395458984375,0.0905132146179676,-0.09401333169341086,-0.20614757261946795
1733725304893916700,7.253916748046875,0.06163081900477409,-0.11199527084678411,-0.1811784049272537
1733725304903878700,7.263878662109375,0.07194529227018356,-0.11886661792099475,-0.1938153297908604
1733725304913839600,7.273839599609375,0.08817512705922126,-0.10101035097390412,-0.21924765801541507
1733725304923801600,7.283801513671875,0.09389058209657669,-0.0683230101197958,-0.2488768534079194
1733725304933763800,7.293763916015625,0.09400865551829338,-0.03649900809675455,-0.2451260495070368
1733725304943724500,7.303724609375,0.09754735103845595,-0.015868308000266552,-0.23321049772053956
1733725304953686800,7.313686767578125,0.10015782579779624,-2.922609448432922e-7,-0.2109383140273392
1733725304963648500,7.3236484375,0.10472235723435878,0.005010813899338245,-0.19359080031998455
1733725304973609700,7.333609619140625,0.11151625515818596,-0.009934241776168347,-0.17937559328898786
1733725304983571700,7.34357177734375,0.11092354996204376,-0.011874562188982963,-0.18003033087067305
1733725304993533700,7.35353369140625,0.08989245237112045,-0.04467997646480799,-0.18681706840135157
1733725305003494700,7.36349462890625,0.07356091077327728,-0.06333996101021766,-0.20499518771395087
1733725305013456600,7.37345654296875,0.06543138033151626,-0.08072451879233121,-0.2105777370866388
1733725305023418600,7.383418701171875,0.06978373032212257,-0.07692746459692716,-0.21502572947144508
1733725305033379600,7.393379638671875,0.08283961125016212,-0.06984422833770514,-0.21758330499976872
1733725305043341600,7.403341552734375,0.09312544294297695,-0.05507131435871124,-0.22097331276424229
1733725305053303800,7.4133037109375,0.10290390963554381,-0.03112052992880344,-0.21291260977499185
1733725305063264500,7.423264404296875,0.10312368986606597,-0.0187114224717021,-0.21559578444436192
1733725305073226800,7.433226806640625,0.09215981278121471,-0.016521803472936154,-0.21073117408268152
1733725305083188700,7.443188720703125,0.07685001544654368,-0.02985094838440418,-0.188428083794564
1733725305093149700,7.453149658203125,0.08342647122740746,-0.04317892425209283,-0.19236717680916188
1733725305103111700,7.463111572265625,0.08486439507603645,-0.06164309396445751,-0.1980826318465173
1733725305113073700,7.47307373046875,0.09558335748910904,-0.06489537375867366,-0.20396964405849574
1733725305123034600,7.48303466796875,0.09876841726601124,-0.061302025441825385,-0.2193018724206835
1733725305132996600,7.49299658203125,0.1001683471918106,-0.055009939560294145,-0.22143135873004793
1733725305142958600,7.50295849609375,0.10216741205453872,-0.047129123182594775,-0.22443112506791948
1733725305152919800,7.512919921875,0.09037059127688407,-0.045008185505867,-0.2139301162544638
1733725305162881500,7.522881591796875,0.09193068020045757,-0.03770283092856407,-0.21649441378451884
1733725305172843800,7.53284375,0.08147942881286144,-0.03544423834681511,-0.20788462554514406
1733725305182804500,7.542804443359375,0.09323124140501021,-0.037251287768781186,-0.20719167484492063
1733725305192767200,7.552767333984375,0.08653320507109165,-0.04693447739332914,-0.21062033411934972
1733725305202728000,7.56272802734375,0.09457797983884811,-0.05250058708786964,-0.2179712814040482
1733725305212690200,7.572690185546875,0.09904314255416392,-0.055713119393587106,-0.21004392247088252
1733725305222652200,7.582652099609375,0.09205810597240924,-0.06258738907724619,-0.21063049018718302
1733725305232613000,7.592613037109375,0.1070353103518486,-0.07226093409061432,-0.20863464019484818
1733725305242575000,7.6025751953125,0.09820318459868431,-0.05945990470647811,-0.21613559040948746
1733725305252537000,7.612537109375,0.08849486053287982,-0.048074879600107666,-0.2197347108799964
1733725305262498000,7.622498046875,0.07856909432411194,-0.02825841849595308,-0.21345679965429007
1733725305272460300,7.632460205078125,0.08039397166371345,-0.006699205377697944,-0.21491934648752212
1733725305282422000,7.642422119140625,0.07940963680148125,-0.0005880290210247039,-0.21016477237157521
1733725305292383200,7.65238330078125,0.06266483822762965,-0.008943477173149585,-0.19479981078356504
1733725305302345000,7.662344970703125,0.05812953288555145,-0.03285392959266901,-0.16976649181395767
1733725305312307200,7.67230712890625,0.08826105177700519,-0.04093611376136541,-0.1578080507338047
1733725305322268000,7.682267822265625,0.08882628444433212,-0.04379208771437406,-0.18422741723433136
1733725305332230100,7.692230224609375,0.08611644096374511,-0.036762627469003197,-0.1981244251616299
1733725305342192000,7.702192138671875,0.09195873725116252,-0.0535068415209651,-0.2050884920205921
1733725305352153000,7.712153076171875,0.08270166408419609,-0.06089022977054119,-0.195962205626443
1733725305362115000,7.722114990234375,0.07332184132039546,-0.043187107558548446,-0.18932101404629648
1733725305372077300,7.732077392578125,0.07187164251208306,-0.03370733155161142,-0.18687793174311518
1733725305382038000,7.7420380859375,0.10102174915075302,-0.016773147885501383,-0.19443463073298334
1733725305392000300,7.752000244140625,0.11895955690145492,-0.011527940708398817,-0.22088431930653749
1733725305401962000,7.7619619140625,0.11120178238153457,-0.05280132360011339,-0.22442469532713294
1733725305411923200,7.771923095703125,0.08631634745001793,-0.07569412340968847,-0.219957413719967
1733725305421885000,7.781885009765625,0.06927168914675712,-0.08981412643790244,-0.2194416462175548
1733725305431846100,7.79184619140625,0.05989245090484619,-0.07048515658974647,-0.220971486133337
1733725305441808100,7.80180810546875,0.08699205475449562,-0.04577215561568737,-0.2112839125946164
1733725305451770000,7.81177001953125,0.102586514249444,-0.028286183285713196,-0.20820574725829064
1733725305461731000,7.82173095703125,0.117631523168087,-0.03117255237698555,-0.1948696611493826
1733725305471693000,7.831693115234375,0.11107786374092102,-0.035491876880824565,-0.19950302003845571
1733725305481655000,7.841655029296875,0.09648819737434387,-0.039732583190500735,-0.1977626061119139
1733725305491616000,7.851615966796875,0.07921206840276718,-0.0417252183124423,-0.19832718119211493
1733725305501578000,7.861577880859375,0.06732640029788017,-0.04549392319619655,-0.20977204672694205
1733725305511540200,7.871540283203125,0.05956804125607013,-0.02822919240146875,-0.21882241834066807
1733725305521501200,7.881501220703125,0.06039864686131477,-0.032763328699767585,-0.21466230298653244
1733725305531463200,7.891463134765625,0.07781506108641624,-0.039514264264702795,-0.19807532532289623
1733725305541425200,7.901425048828125,0.09302665874361991,-0.04033785560727119,-0.16070304152294992
1733725305551386000,7.91138623046875,0.09564648585319518,-0.0470583960339427,-0.1573442326143384
1733725305561348000,7.92134814453125,0.07230769584178924,-0.04229103550165891,-0.1522008053112775
1733725305571310000,7.93131005859375,0.055068391749262806,-0.031547815430164335,-0.16002959924079477
1733725305581271300,7.941271240234375,0.050307460957765573,-0.05222527727782726,-0.15194909557253122
1733725305591233000,7.95123291015625,0.056361938691139216,-0.04621756129562855,-0.16803338441103696
1733725305601195000,7.961195068359375,0.0856944161593914,-0.03682107965797186,-0.18157807176932692
1733725305611156200,7.97115625,0.09312544294297695,-0.01698123767822981,-0.18885434638261794
1733725305621118000,7.981117919921875,0.10476736541986464,-0.014639350727200507,-0.18465828293226658
1733725305631079200,7.9910791015625,0.09979542222619056,-0.027582418930530546,-0.1899221217446029
1733725305641041200,8.001041259765625,0.09615151276588439,-0.04384557146728039,-0.19614260369464753
1733725305651003100,8.011003173828126,0.08576572782993316,-0.06051204410791397,-0.20843480677381157
1733725305660964000,8.020964111328125,0.08333879294395447,-0.053578737713396545,-0.20977394642308353
1733725305670926000,8.030926025390626,0.08265022615790367,-0.051831601785123346,-0.20746479269787668
1733725305680888000,8.04088818359375,0.10187047493457793,-0.04090104244798422,-0.2101492094762623
1733725305690849000,8.05084912109375,0.09722235686779021,-0.0336342663154006,-0.2022235310435295
1733725305700811300,8.060811279296875,0.10762684650421142,-0.04624269573688507,-0.19515702672339974
1733725305710773200,8.070773193359376,0.09431494498848915,-0.0471779307603836,-0.19760690409354864
1733725305720734200,8.080734130859375,0.0732850164413452,-0.044382454822957516,-0.19835048900246618
1733725305730696200,8.0906962890625,0.06394552568793296,-0.04978139125704765,-0.19744141133353113
1733725305740658000,8.100657958984375,0.0541360793352127,-0.04943973821252584,-0.19382015209645032
1733725305750619100,8.110619140625,0.07330255209803581,-0.040972938640415665,-0.19583836005106567
1733725305760581000,8.1205810546875,0.0828314279437065,-0.035026012934744354,-0.1918439566526562
1733725305770543000,8.130543212890625,0.09831482827961445,-0.00870060832798481,-0.1859855860132724
1733725305780504300,8.14050439453125,0.09313537981510162,-0.01398527073264122,-0.1785783784966916
1733725305790466000,8.150466064453125,0.09360007471740245,-0.025059622454643247,-0.17001279472522438
1733725305800428000,8.160427978515624,0.07828150955438613,-0.03693447690457105,-0.16350129393935203
1733725305810389000,8.170388916015625,0.06956161200404166,-0.05438303983360528,-0.16643749352172016
1733725305820351200,8.180351318359374,0.06655716949105263,-0.052472822298109525,-0.1699420675765723
1733725305830313200,8.190313232421875,0.08041501445174216,-0.046507484152913094,-0.17009228970222173
1733725305840274200,8.200274169921874,0.09586918869316577,-0.038195875142514706,-0.1765261952072382
1733725305850236200,8.210236083984375,0.09515841007530688,-0.022716566459834574,-0.1740427078284323
1733725305860197000,8.220197021484376,0.09413023607134818,-0.02118219649940729,-0.15796309516504406
1733725305870159000,8.2301591796875,0.09206979641020298,-0.03380260861963034,-0.1682355559196323
1733725305880121300,8.240121337890624,0.08461655779480934,-0.02163403192013502,-0.1760759672217071
1733725305890082000,8.25008203125,0.07493219912648201,-0.01938742203712463,-0.18898922480866312
1733725305900044300,8.260044189453126,0.06730944916307925,-0.02067892315238714,-0.19115144434385
1733725305910006000,8.270006103515625,0.07620353423655032,-0.04504793299436569,-0.19238661216199396
1733725305919967200,8.27996728515625,0.0874415520876646,-0.05510433984547853,-0.19269421680644153
1733725305929929000,8.289928955078125,0.09014379678368568,-0.040456513550877565,-0.2110882438920438
1733725305939891200,8.29989111328125,0.08236147234439849,-0.0379170582011342,-0.22617489999532697
1733725305949852200,8.30985205078125,0.08226561075448989,-0.05287234300971031,-0.20693886912763118
1733725305959814100,8.319814208984376,0.08851531879901886,-0.07704904514998197,-0.18255794965215028
1733725305969776000,8.329776123046875,0.08255611813366413,-0.05794950014352798,-0.17063428762443364
1733725305979737000,8.339737060546875,0.08947861087322234,-0.040027474483847615,-0.18687983143925666
1733725305989699000,8.349698974609375,0.09650514850914478,-0.03083645229041576,-0.19296769998557864
1733725305999661300,8.359661376953126,0.09445990641713142,-0.026667934434115886,-0.1792360386878252
1733725306009622000,8.3696220703125,0.07229016018509864,-0.01872574325799942,-0.1677798480413854
1733725306019584300,8.379584228515625,0.06087444767951965,-0.00825403360426426,-0.1662580453015864
1733725306029546000,8.3895458984375,0.06838555396199227,0.00013327099084854124,-0.16783391631618141
1733725306039507200,8.399507080078125,0.08720131359100342,-0.012941899159550666,-0.17579393540993332
1733725306049469200,8.40946923828125,0.09763386027812958,-0.029814708027243612,-0.18552490969896315
1733725306059430100,8.41943017578125,0.08502280050814151,-0.04926993460357189,-0.18256079919636248
1733725306069392100,8.42939208984375,0.0737736767411232,-0.04427753314375877,-0.17958331775553524
1733725306079354000,8.43935400390625,0.06810965963006019,-0.031929215963184834,-0.19120500116199254
1733725306089315000,8.449315185546874,0.06118833593428134,-0.013838555738329886,-0.1807537497743964
1733725306099277000,8.459277099609375,0.07474982829689979,-0.02174509107917547,-0.17220336357206106
1733725306109239000,8.469239013671874,0.09066460578739642,-0.03738485102057457,-0.16239968937300145
1733725306119200300,8.4792001953125,0.09111293407678604,-0.04533551776409149,-0.1603309933401644
1733725306129162000,8.489161865234376,0.08397007658481598,-0.042055180919170376,-0.16837832539118824
1733725306139124200,8.499124267578125,0.08135024947524071,-0.029233985529839992,-0.1826318186059594
1733725306149085000,8.5090849609375,0.09344926806986331,-0.01197451543211937,-0.19285919810980556
1733725306159047200,8.519047119140625,0.08583587045669555,-0.008716098158061503,-0.19616678828783332
1733725306169009200,8.529009033203126,0.06815759042501449,-0.011424480333924293,-0.19322174781188367
1733725306178970000,8.53897021484375,0.057227031087875364,-0.02601326991766691,-0.16281645348034798
1733725306188932000,8.54893212890625,0.06534370204806328,-0.0498924504160881,-0.156261405813694
1733725306198894000,8.55889404296875,0.07157002921700477,-0.05330488920807838,-0.16640892501436172
1733725306208855000,8.56885498046875,0.08154898691773414,-0.03753624219000339,-0.18094430391043423
1733725306218817300,8.5788173828125,0.09362637820243835,-0.024465748214721677,-0.1899586543627083
1733725306228778200,8.5887783203125,0.10943185009956359,-0.0194324302226305,-0.18777414993047714
1733725306238740200,8.598740234375,0.10247603961229323,-0.047178223021328444,-0.17012743408083913
1733725306248702000,8.608701904296876,0.08761398604512215,-0.05440905105769634,-0.16066533986106513
1733725306258663200,8.6186630859375,0.08127075449824332,-0.036011224579811096,-0.15900865869522093
1733725306268625000,8.628625,0.07648001309037208,-0.042836102163791655,-0.16916881818175314
1733725306278587100,8.638587158203125,0.07345803492069244,-0.039651334647834297,-0.18053455406576394
1733725306288548400,8.64854833984375,0.08257832996547222,-0.03548369357436895,-0.18577384295873342
1733725306298510000,8.658510009765624,0.09526303949356078,-0.03574672842472792,-0.1791165039613843
1733725306308472000,8.66847216796875,0.08970832797586917,-0.02489829441308975,-0.16581556223109364
1733725306318433000,8.67843310546875,0.08739888198971747,-0.015246668970584869,-0.1684110586170107
1733725306328395000,8.68839501953125,0.08201075921058654,-0.017940438099205494,-0.1800125029530376
1733725306338357200,8.698357177734374,0.07546002239286899,-0.016548399218916893,-0.1783084755141288
1733725306348318200,8.708318115234375,0.07053776355981826,-0.01970774003267288,-0.17850129467248915
1733725306358280200,8.7182802734375,0.0653904637992382,-0.029878128652274606,-0.1767754207279533
1733725306368242000,8.728241943359375,0.074941551476717,-0.03659516194760799,-0.18105908939652143
1733725306378203100,8.738203125,0.06600888795852661,-0.03450315810441971,-0.17502068601511417
1733725306388165000,8.7481650390625,0.06315700565874577,-0.03784837687909603,-0.1705746663916856
1733725306398127000,8.758127197265624,0.06635141778588295,-0.02777794150263071,-0.17099712958745658
1733725306408088300,8.76808837890625,0.07056348252296447,-0.01895692166537046,-0.16381737415120004
1733725306418050000,8.778050048828124,0.08124737362265587,-0.014246259756386279,-0.16035956184752284
1733725306428011300,8.78801123046875,0.09016542409360408,-0.007720657379925251,-0.1638041493434459
1733725306437973000,8.797972900390626,0.08181903603076934,-0.015696166303753853,-0.15405542020201682
1733725306447935200,8.807935302734375,0.08966916500926017,-0.016962825238704682,-0.14333864974603056
1733725306457896200,8.817896240234376,0.08405658582448959,-0.03372925112247467,-0.14435396426841615
1733725306467858200,8.827858154296875,0.0868359874099493,-0.042187867388129234,-0.15661957160159945
1733725306477820200,8.837820068359376,0.07327975574433804,-0.04395020088553429,-0.17244827824383974
1733725306487781000,8.847781005859375,0.07108136891722679,-0.025678923396766185,-0.1794385755226016
1733725306497743000,8.8577431640625,0.07671499089002609,-0.030518180121481418,-0.1667719861730933
1733725306507705000,8.867705078125,0.0748018507450819,-0.021635200963914393,-0.17176175728440285
1733725306517666000,8.877666015625,0.06445990495085716,-0.012987199606001377,-0.1709978602398187
1733725306527628300,8.887628173828125,0.07204290742576122,-0.003065232789516449,-0.17375344255827366
1733725306537590000,8.897590087890626,0.07532850496768952,0.020919161649048328,-0.18066015320681034
1733725306547551200,8.90755126953125,0.089380411195755,0.04333996003270149,-0.17279139259308576
1733725306557513200,8.91751318359375,0.11078209566473961,0.05261749146580696,-0.15649324180819094
1733725306567474200,8.92747412109375,0.1381657771527767,0.047804830487072465,-0.1151194672819227
1733725306577436200,8.937436279296875,0.13498773163855074,0.015598551148176192,-0.08621617501117289
1733725306587398100,8.947398193359374,0.17392682636380194,-0.02344838786572218,-0.09508666001334785
1733725306597359000,8.957359130859375,0.09611059623360634,-0.04741261629909277,-0.10485877003036438
1733725306607321000,8.967321044921874,-0.026520342656970022,-0.054770870107412335,-0.1556363327179104
1733725306617283000,8.977282958984375,-0.04142623536586761,-0.0574082328736782,-0.2459172729499638
1733725306627244300,8.987244384765624,-0.051388826453685754,-0.03880407016873359,-0.3301117328751832
1733725306637206000,8.9972060546875,-0.014513093999028205,-0.035355975541472434,-0.3633106765132397
1733725306647168300,9.007168212890624,0.052961190336942666,-0.031173136898875235,-0.3351644131548703
1733725306657129000,9.01712890625,0.09723054017424583,-0.019737258388102055,-0.28068521947041153
1733725306667091200,9.02709130859375,0.08869885867238045,0.014677929171919821,-0.20944033055454492
1733725306677053200,9.03705322265625,0.03451017236709594,0.04925122990310192,-0.14139628350660205
1733725306687014100,9.04701416015625,0.030519056904315948,0.06571633475273847,-0.11005283154211938
1733725306696976100,9.05697607421875,0.08624269769191742,0.04376315388083458,-0.09622750061154366
1733725306706938000,9.066938232421874,0.1284358257770538,-0.0049880175456404685,-0.10210274932049214
1733725306716899000,9.076899169921875,0.14832476759552954,-0.05778057331740856,-0.09992087523676454
1733725306726861300,9.086861328125,0.1551893926680088,-0.11424947951436042,-0.08662782455198466
1733725306736822000,9.096822021484375,0.12507950108647345,-0.14527356333136557,-0.07347988142631948
1733725306746784300,9.1067841796875,0.09445756832957267,-0.17462416097819805,-0.06603073446415364
1733725306756746000,9.11674609375,0.06343582260012626,-0.19961802472025156,-0.053286184507608414
1733725306766707200,9.126707275390626,0.034115035569667815,-0.16672347085624933,-0.08467479078806936
1733725306776669000,9.1366689453125,0.04445756588578224,-0.08906389259248972,-0.15014599167332052
1733725306786631200,9.146631103515626,0.04790273790359497,-0.029859131690859794,-0.20232107313387096
1733725306796592000,9.156592041015625,0.06368599796891213,0.014815584076941012,-0.22708120118528602
1733725306806554000,9.16655419921875,0.08616086462736129,0.044561026260256764,-0.21398710713870822
1733725306816516000,9.17651611328125,0.08585223706960678,0.07154109538346529,-0.19812457129210231
1733725306826477000,9.18647705078125,0.0891582928776741,0.06769494134932756,-0.17997253626883028
1733725306836439000,9.19643896484375,0.07582301048636436,0.03537380345910787,-0.1689146972902119
1733725306846401300,9.2064013671875,0.07405074011683464,0.001527355697751045,-0.1894163641795516
1733725306856362000,9.216362060546874,0.0811713857769966,-0.00682400080114603,-0.20928060994818806
1733725306866324200,9.22632421875,0.0569336010992527,-0.013354863874614238,-0.21737543440274892
1733725306876285200,9.23628515625,0.0411000721514225,-0.033823066885769366,-0.20468487965576349
1733725306886247200,9.2462470703125,0.02573532975912094,-0.07227116322368383,-0.16849113811589778
1733725306896209200,9.256209228515624,0.026435586982965466,-0.10138765985369681,-0.13660948762148617
1733725306906170000,9.266170166015625,0.0621311697423458,-0.09537497543543577,-0.10850859777480364
1733725306916132000,9.276132080078124,0.10460194572508334,-0.05876257009208202,-0.11478175976015627
1733725306926094000,9.286093994140625,0.13542787662148476,-0.034904140120744706,-0.136528677470237
1733725306936055300,9.29605517578125,0.1440875684171915,-0.01777414162158966,-0.1469649504844099
1733725306946017000,9.30601708984375,0.10574468601942062,-0.012053425887227057,-0.15561039455905556
1733725306955979000,9.31597900390625,0.04774140986204147,-0.018471768496930597,-0.13917188545539974
1733725306965940200,9.325940185546875,0.016989713245630263,-0.008582534906268119,-0.11954312894307076
1733725306975902200,9.335902099609376,0.012750760501623153,0.004368716603517532,-0.1154968492269516
1733725306985864200,9.3458642578125,0.0512128853648901,0.012258008548617362,-0.12833433816395698
1733725306995825200,9.3558251953125,0.09873626856207847,0.006390577819943428,-0.14730923387743533
1733725307005787100,9.365787109375,0.11019055951237677,0.0028407763838768003,-0.15875431860797107
1733725307015749000,9.3757490234375,0.09078151016533374,-0.005343699115514755,-0.15411175349913536
1733725307025710000,9.3857099609375,0.0547895748078823,-0.031357845816016194,-0.14408267304636538
1733725307035672000,9.395672119140626,0.03073416095972061,-0.041647184640169144,-0.14579283796511588
1733725307045633000,9.405633056640625,0.027013094609975814,-0.04840338090211153,-0.1530501156169921
1733725307055595300,9.41559521484375,0.043488428592681885,-0.0518204958692193,-0.152047441380471
1733725307065557000,9.425556884765625,0.07630231843590736,-0.04053045556992292,-0.1587370752122253
1733725307075518200,9.435518310546875,0.09612579380273818,-0.018164602243900298,-0.16415186680257318
1733725307085480200,9.445480224609375,0.1016717374920845,0.0021454875960946083,-0.15580416356548665
1733725307095442200,9.455442138671875,0.08629764274954796,-0.006475918015837669,-0.1534287396710366
1733725307105403100,9.465403076171874,0.07993921363353729,-0.017710428735613824,-0.16256722795963285
1733725307115365000,9.475365234375,0.06490764871835708,-0.042105742062628265,-0.16175700755529104
1733725307125327000,9.4853271484375,0.04651625198125839,-0.05548749394416809,-0.16811879767216742
1733725307135288300,9.495288330078125,0.04873977324962616,-0.06484335131049156,-0.17383710225373505
1733725307145250000,9.50525,0.0511211154282093,-0.0635974429026246,-0.1759605972137302
1733725307155212300,9.51521240234375,0.07380991709828376,-0.050097325338423246,-0.16447130801528692
1733725307165173000,9.525173095703124,0.08634908067584038,-0.03907996450066566,-0.15175364606566727
1733725307175135200,9.53513525390625,0.0881342105269432,-0.02096446209549904,-0.1326725134987384
1733725307185097200,9.54509716796875,0.09351356547772884,-0.01327507663667202,-0.12062208328619599
1733725307195058700,9.55505859375,0.0941290670275688,-0.013486673560738563,-0.11185739674605429
1733725307205020700,9.565020751953124,0.0855985545694828,-0.009637889178097247,-0.11614281898029148
1733725307214981600,9.574981689453125,0.06648702686429023,-0.015788813023269177,-0.12927381097115576
1733725307224943600,9.584943603515624,0.057310033196210856,-0.011956979775428771,-0.1510181713979691
1733725307234905600,9.594905517578125,0.04358078305125236,0.00755991386026144,-0.1634578931890428
1733725307244866600,9.604866455078126,0.04090893349349498,0.02023468651622534,-0.18115991942249238
1733725307254828800,9.614828857421875,0.039190439137816425,0.027139643599092957,-0.1707224773645401
1733725307264790500,9.62479052734375,0.056411623051762574,0.022698738542199132,-0.15231325270980595
1733725307274751700,9.634751708984375,0.07974515236616134,0.013631927250325679,-0.12009579438976943
1733725307284713500,9.64471337890625,0.08244330540895461,-0.0044815293282270425,-0.11787950657978653
1733725307294675700,9.65467578125,0.07295768418312072,-0.03128711866736412,-0.12024813540726899
1733725307304636700,9.66463671875,0.05765022493600845,-0.05785539211928844,-0.12468363363668322
1733725307314598700,9.6745986328125,0.05581541072428226,-0.0682730334982276,-0.15325857073590157
1733725307324560600,9.684560546875,0.03955225818753242,-0.06370674849599599,-0.1653136771235615
1733725307334521600,9.694521484375,0.06520224775075913,-0.04825257425457239,-0.1618134139176458
1733725307344483600,9.704483642578126,0.11720540671050547,-0.04266279142349958,-0.1626917311221361
1733725307354445600,9.714445556640625,0.12134674429893492,-0.03955079688280821,-0.14583733469396828
1733725307364406500,9.724406494140625,0.10716975038647651,-0.0368801163688302,-0.1293397158142179
1733725307374368800,9.73436865234375,0.0923433526545763,-0.04217266981899738,-0.10914864924401044
1733725307384330500,9.74433056640625,0.07723989154696465,-0.024906477719545364,-0.12477818005234002
1733725307394291700,9.754291748046874,0.07584522231817245,0.016872516606748104,-0.1479638983938843
1733725307404253700,9.764253662109375,0.08225918101370334,0.014300912553071974,-0.16955474875941873
1733725307414214700,9.774214599609374,0.0716477706283331,0.004327507810294628,-0.16399010036960243
1733725307424176600,9.7841767578125,0.0528770191848278,-0.012046411624550819,-0.17223032464422283
1733725307434138600,9.794138671875,0.055332011121511454,-0.015746142925322056,-0.16657361405678092
1733725307444099600,9.804099609375,0.046131636577844616,-0.02825841849595308,-0.1590752941906452
1733725307454061600,9.8140615234375,0.051226329368352884,-0.01356821436434984,-0.14952698299214243
1733725307464023600,9.8240234375,0.0566156211912632,-0.006707388684153557,-0.15201668091602621
1733725307473984800,9.83398486328125,0.061463645744323725,-0.0012310030996799469,-0.15279847894348203
1733725307483946500,9.843946533203125,0.036782793474197384,-0.008108487653732298,-0.1494545753430575
1733725307493908700,9.85390869140625,0.03642623512148857,-0.0111801501840353,-0.135383599088341
1733725307503869400,9.863869384765625,0.04049275390803814,-0.028301965376734732,-0.12497187599353492
1733725307513831700,9.873831787109374,0.06842997762560844,-0.017935761924088,-0.13415128081440925
1733725307523793700,9.883793701171875,0.09040566259026526,0.0061275429695844645,-0.1485850259669125
1733725307533754600,9.893754638671876,0.0991442648410797,-0.002449146717786789,-0.15376739704087375
1733725307543716600,9.903716552734375,0.10925649353265762,-0.02900134581774473,-0.13814290773384272
1733725307553678600,9.9136787109375,0.08963234013020992,-0.04483575154840946,-0.12072050215937197
1733725307563639600,9.9236396484375,0.06106967799067497,-0.046100656917691225,-0.11101210502833127
1733725307573601800,9.933601806640626,0.045022798553109165,-0.02667553321868181,-0.11908595976009964
1733725307583562500,9.9435625,0.06436755049228668,-0.00646627340465784,-0.13938304398804902
1733725307593524700,9.953524658203126,0.08324760752916335,-0.0018450433447957037,-0.15619900810196996
1733725307603486500,9.963486572265625,0.11040917069911955,-0.004906769002974033,-0.15713519297353923
1733725307613447700,9.97344775390625,0.10977321088314056,-0.020191724157333373,-0.14736951269730925
1733725307623409400,9.983409423828125,0.07724339867830277,-0.026747721672058102,-0.13905037796758116
1733725307633371600,9.99337158203125,0.052285483032464976,-0.024824060133099554,-0.13562646793350577
1733725307643332600,10.00333251953125,0.03774608554840088,-0.017016016730666158,-0.12768303464837372
1733725307653294600,10.013294677734375,0.04228255993425846,-0.02059796687066555,-0.12066694534122943
1733725307663256600,10.023256591796875,0.05017243640124797,-0.018285306014120577,-0.12227123873271048
1733725307673217500,10.033217529296875,0.07267068393528461,0.003003273469209671,-0.13163571779690683
1733725307683179500,10.043179443359374,0.07375263395309448,0.010872691670060157,-0.13618921638280151
1733725307693141800,10.053141845703125,0.05700841990113258,0.010288462041318416,-0.1306235450796783
1733725307703102500,10.0631025390625,0.05072831671833992,-0.005190846641361713,-0.1259614715527743
1733725307713064700,10.073064697265625,0.04495324044823646,-0.0077735566109418865,-0.12204999719746411
1733725307723026400,10.0830263671875,0.06134148066937923,-0.001585223364830017,-0.12636479165665804
1733725307732987600,10.092987548828125,0.06794599350094795,-0.007969663704931736,-0.1385053113054484
1733725307742949600,10.10294970703125,0.08327683362364768,-0.008428513388335704,-0.14097900794260204
1733725307752911600,10.11291162109375,0.08042027514874935,-0.016314882723987102,-0.13865904056243597
1733725307762872600,10.12287255859375,0.08538812668919563,-0.01632978803217411,-0.138085478458181
1733725307772834600,10.13283447265625,0.07265022566914558,-0.03218728237748146,-0.143139181651175
1733725307782795800,10.142795654296876,0.07982464734315872,-0.042832887293398375,-0.15240779912546276
1733725307792757500,10.152757568359375,0.07789455606341361,-0.029881635783612727,-0.14620353765785693
1733725307802719500,10.162719482421876,0.0799041423201561,-0.03652414253801107,-0.14867569992505014
1733725307812680700,10.1726806640625,0.0769628281712532,-0.03093143709748983,-0.13804039720743894
1733725307822642700,10.182642578125,0.07293897948265075,-0.035876200023293496,-0.13076974861733615
1733725307832604700,10.192604736328125,0.06645429363846779,-0.042271746279299256,-0.12558752367384732
1733725307842565600,10.202565673828126,0.06585925035476684,-0.029691666169464587,-0.13052929092496632
1733725307852527600,10.212527587890625,0.06781856772899628,-0.018653554804623124,-0.13812953679561615
1733725307862489600,10.222489501953126,0.06844692876040935,-0.010341653533279895,-0.1384466399207711
1733725307872450600,10.232450439453125,0.06531447595357895,-0.013188859657943247,-0.12306012408807873
1733725307882412800,10.242412841796876,0.07260930913686751,-0.011157353830337524,-0.12963504549898205
1733725307892374500,10.25237451171875,0.06382979035377502,-0.00864040257334709,-0.13589644398130477
1733725307902335700,10.262335693359375,0.06480711095333098,0.008109072175621986,-0.1504515504911542
1733725307912297700,10.272297607421875,0.0631073212981224,0.005420856004953384,-0.15790581201985476
1733725307922258700,10.2822587890625,0.05987725333571434,-0.01664484533071518,-0.13212547407522796
1733725307932220700,10.292220703125,0.0795464149236679,-0.028638942246139047,-0.10485102511532604
1733725307942182700,10.3021826171875,0.07530044791698455,-0.009833996272087097,-0.10328187610246241
1733725307952143600,10.3121435546875,0.0811801536053419,0.00999590883553028,-0.12138619952648877
1733725307962105600,10.322105712890625,0.07635492540597916,0.016060031180083752,-0.12883965733759103
1733725307972067600,10.332067626953124,0.059631169620156285,0.028500995080173015,-0.12389109501950442
1733725307982028800,10.34202880859375,0.04017418947815895,0.02181435692310333,-0.11329605124704539
1733725307991990500,10.351990478515624,0.03901625161468982,0.01694149018973112,-0.110788817666471
1733725308001952800,10.361952880859375,0.053449850636720656,0.009668868838250636,-0.10167210281826555
1733725308011913500,10.37191357421875,0.08378536766767501,-0.006738952866196632,-0.10740743159987032
1733725308021875700,10.381875732421875,0.09097264882326125,-0.03483575105965137,-0.11694704803526401
1733725308031837700,10.391837646484374,0.0921335092961788,-0.04301642716675996,-0.12549261193200945
1733725308041798700,10.401798583984375,0.07701309705376624,-0.045913902173936365,-0.13623882767818868
1733725308051760600,10.4117607421875,0.0599094020396471,-0.025437515856325626,-0.14765855877175926
1733725308061722600,10.42172265625,0.042671266990900035,-0.029651334159076212,-0.14142200246974826
1733725308071683600,10.43168359375,0.06226619429886341,-0.042676235426962375,-0.1268079323142767
1733725308081645800,10.441645751953125,0.08175006244778632,-0.0511953497081995,-0.12456512182354926
1733725308091606500,10.4516064453125,0.08633154501914977,-0.05664104789346456,-0.131333227718994
1733725308101568800,10.46156884765625,0.07690086885094642,-0.03985416374355554,-0.14862404280304908
1733725308111530500,10.471530517578126,0.08164952468276024,-0.018649170890450477,-0.15833002878129482
1733725308121491700,10.48149169921875,0.07046119119226932,-0.013672259260714054,-0.17132314667142926
1733725308131453400,10.491453369140626,0.057392450782656666,-0.0047439796566963194,-0.16545206268094478
1733725308141415700,10.501415771484375,0.057440381577610965,-0.0023597148686647414,-0.15356054935716093
1733725308151376600,10.511376708984375,0.050908349460363385,-0.024596096596121785,-0.12997297221645712
1733725308161338600,10.521338623046875,0.06658522654175758,-0.03850245687365532,-0.11758585739545524
1733725308171300600,10.531300537109376,0.06716741034388542,-0.011974223171174525,-0.11007548176534473
1733725308181261600,10.541261474609374,0.07380056474804877,0.0009507248535752296,-0.12613814329393208
1733725308191223600,10.5512236328125,0.09098433926105498,0.008818389488756656,-0.13769355653114615
1733725308201185800,10.561185791015625,0.08209259227514266,0.0020952187135815617,-0.12486812335811555
1733725308211146500,10.571146484375,0.0665320350497961,-0.002192249347269535,-0.10943272688239812
1733725308221108700,10.581108642578124,0.050342532271146774,-0.02168400854170322,-0.09493526884391904
1733725308231070500,10.591070556640625,0.04332826959490776,-0.022345687320828436,-0.09440284246765077
1733725308241031700,10.60103173828125,0.059793082183599466,-0.0055360068172216415,-0.10697152440063655
1733725308250993700,10.61099365234375,0.07224690556526184,0.007362345461547374,-0.1184443739209324
1733725308260954600,10.62095458984375,0.07995908737778663,0.007942775698006152,-0.11412132309004663
1733725308270916600,10.63091650390625,0.07679331682324408,0.007779401829838752,-0.11173837347626686
1733725308280878600,10.640878662109374,0.07039630926251411,0.016764380057156084,-0.11372910890206694
1733725308290839600,10.650839599609375,0.05158171867728233,0.026991759561002252,-0.10393376413993537
1733725308300801500,10.660801513671874,0.04856675477027893,0.006842120979726314,-0.10882139005102216
1733725308310763500,10.670763427734375,0.06004501111805439,-0.020142916579544545,-0.10840214172564447
1733725308320724700,10.680724853515626,0.06926467488408088,-0.03801467335671186,-0.12454057190418243
1733725308330686500,10.6906865234375,0.06640519379973411,-0.04896978261321783,-0.12710486943423746
1733725308340648700,10.700648681640626,0.07315525258183479,-0.03518617193251848,-0.13279920861832797
1733725308350609700,10.710609619140625,0.07189736147522927,-0.029076456880569455,-0.1339611650697887
1733725308360571600,10.720571533203126,0.08455810560584068,-0.02733955008536577,-0.1333840958341956
1733725308370533600,10.73053369140625,0.07787234423160552,-0.01511281345784664,-0.12798771668337286
1733725308380494600,10.74049462890625,0.06607084727883339,-0.012115385207533835,-0.12799516933746635
1733725308390456600,10.75045654296875,0.06408288833200931,-0.0057607554838061325,-0.12269662453792989
1733725308400417500,10.76041748046875,0.07361059513390064,-0.01015840592086315,-0.12728702106811104
1733725308410379800,10.7703798828125,0.06044833122193813,-0.0024526538491249084,-0.137410355675593
1733725308420341800,10.780341796875,0.05475684158205986,0.003208440652489662,-0.13621727343350648
1733725308430302700,10.790302734375,0.0613122545748949,-0.01051525653451681,-0.1360640556331724
1733725308440264700,10.8002646484375,0.06403086588382721,-0.025418811155855654,-0.1363233641564846
1733725308450226400,10.810226318359375,0.06362286960482597,-0.025087094983458517,-0.13275405430234968
1733725308460187600,10.820187744140625,0.06097498544454574,-0.020280571484565732,-0.11437171765454113
1733725308470149600,10.830149658203124,0.07182488076090812,-0.013082768934965133,-0.10612250635586679
1733725308480111600,10.840111572265625,0.07770867810249328,-0.007685586066544055,-0.1086885574515909
1733725308490072800,10.85007275390625,0.07466156549155711,-0.016117022064328194,-0.10156367400772869
1733725308500034600,10.86003466796875,0.07687631893157959,-0.007734978166222572,-0.1020045496430248
1733725308509996500,10.86999658203125,0.07270867785811423,0.000351005394756794,-0.10997077928185463
1733725308519957500,10.87995751953125,0.0613689531981945,-0.0029591420665383335,-0.11721892377920448
1733725308529919700,10.889919677734374,0.0546896215647459,-0.015596505321562289,-0.11508885294795036
1733725308539880400,10.89988037109375,0.06813654763698578,-0.00665887336730957,-0.12012443596236407
1733725308549842700,10.9098427734375,0.062197805237770076,0.005517009855806827,-0.13336371063329278
1733725308559804700,10.9198046875,0.057042322170734405,0.01387801096588373,-0.14715842722989617
1733725308569765600,10.929765625,0.04916296709775925,0.012513736875355242,-0.1381312903612852
1733725308579727600,10.9397275390625,0.05132803617715835,-0.01699117455035448,-0.11730923241116106
1733725308589689900,10.94968994140625,0.057148120632767675,-0.008014087368547916,-0.0910492211908102
1733725308599650600,10.959650634765625,0.06787234374284744,0.002450608022511005,-0.09611943712718785
1733725308609612800,10.96961279296875,0.07032032141685485,0.01885112320333719,-0.11301431169621645
1733725308619574500,10.979574462890625,0.07263269001245498,0.01586275504231453,-0.10987089910395442
1733725308629535700,10.98953564453125,0.046727264383435246,-0.004658347199857235,-0.10379304049499333
1733725308639497500,10.99949755859375,0.020761632999777794,0.011295885518193244,-0.11971804711855948
1733725308649459700,11.009459716796876,0.042754269099235534,0.028558570486307142,-0.11210019252598286
1733725308659420700,11.019420654296875,0.08472118721306324,0.02898614824861288,-0.09098558137007057
1733725308669382700,11.029382568359376,0.10690788457989692,-0.015272387933731079,-0.06961443816982209
1733725308679344600,11.0393447265625,0.1024339540362358,-0.07455167537629603,-0.07994820065759121
1733725308689305600,11.0493056640625,0.0860860458254814,-0.07775865472406149,-0.09222082225345074
1733725308699267600,11.059267578125,0.08051204508543014,-0.06949322294294834,-0.092747695671767
1733725308709228500,11.069228515625,0.0793283882588148,-0.07164660158455372,-0.07461801861077547
1733725308719190500,11.0791904296875,0.09022913697957992,-0.06334200683683157,-0.04796783902905881
1733725308729152800,11.08915283203125,0.11235855120122432,-0.03729278882294893,-0.055362113998830315
1733725308739113500,11.099113525390624,0.12540098812580108,-0.013299334295094013,-0.09383008408099412
1733725308749075700,11.10907568359375,0.11619009218811988,0.019318156193196774,-0.15442235381826758
1733725308759037700,11.11903759765625,0.07513327465653419,0.03421294298619032,-0.21032449297793207
1733725308768998700,11.12899853515625,0.006046878948807716,0.021011223846673963,-0.24109138716347514
1733725308778960600,11.138960693359374,-0.049911155116558074,0.011850889052450657,-0.2506746235448867
1733725308788922600,11.148922607421875,-0.05900514667630195,0.0227916775226593,-0.24179230197444557
1733725308798883600,11.158883544921874,-0.021623802787065504,0.023849077621102333,-0.2033618143584579
1733725308808845600,11.168845458984375,0.05994798048436641,0.01792319470345974,-0.16436675166226922
1733725308818807600,11.1788076171875,0.14443477441966532,0.0017027122646570204,-0.14436726214140652
1733725308828768800,11.188768798828125,0.16177929245233535,-0.009442074345052242,-0.12828874545656144
1733725308838730500,11.19873046875,0.10756839431524276,0.00971972224265337,-0.10398512900099158
1733725308848691700,11.208691650390625,0.045805473363399504,-0.006934183177351951,-0.06936455506198108
1733725308858653400,11.2186533203125,0.011234510719776153,-0.03497136013805866,-0.0313842223662883
1733725308868615700,11.22861572265625,0.021529694762825964,-0.0383963661506772,-0.006698620855808257
1733725308878576600,11.23857666015625,0.05537877287268638,-0.03035422173142433,-0.02621376092582941
1733725308888538600,11.24853857421875,0.08366729424595833,0.0004278700232505798,-0.03466565518975258
1733725308898500600,11.25850048828125,0.10122983894348143,0.016772271102666853,-0.0453781147968024
1733725308908461600,11.268461669921875,0.0983259341955185,0.022010756278038023,-0.07643303214348852
1733725308918423600,11.278423583984376,0.07699965305030346,0.02444908934086561,-0.1043235671751201
1733725308928385800,11.2883857421875,0.058876551860570905,0.031176644030213353,-0.11966463643088936
1733725308938346800,11.2983466796875,0.055989598247408866,0.058332654242217535,-0.13393851484656333
1733725308948308700,11.308308837890625,0.07045476145148277,0.0650090632662177,-0.13832878569476306
1733725308958270500,11.3182705078125,0.08836977284848689,0.059546706207096574,-0.149742744634673
1733725308968231700,11.328231689453125,0.07888707423210144,0.03810585877150297,-0.13464089096225798
1733725308978193400,11.338193359375,0.03286649681329727,0.0017228782698512077,-0.10686579900383948
1733725308988154600,11.348154541015624,0.005395137041807174,-0.018587503831088543,-0.09454992278814316
1733725308998116600,11.35811669921875,0.0009317278921604156,-0.02717792978286743,-0.08594992529042064
1733725309008078600,11.36807861328125,0.022612813824415205,-0.038870705664157866,-0.09305683468617498
1733725309018039800,11.378039794921875,0.05745265653729439,-0.052963528424501416,-0.11288747044615446
1733725309028001500,11.38800146484375,0.08205167574286461,-0.056386488610506054,-0.12283091844208538
1733725309037963500,11.397963623046875,0.07354395963847636,-0.04182283346801996,-0.1125109652839601
1733725309047924500,11.407924560546874,0.07525017903447151,-0.023611469472944735,-0.1058924239270389
1733725309057886700,11.41788671875,0.10102058010697364,-0.015336685341596603,-0.09587064999789
1733725309067848700,11.4278486328125,0.1390074886739254,-0.023120471085608003,-0.10179923632927239
1733725309077809700,11.4378095703125,0.1480962195366621,-0.04117576773613691,-0.11270400363802908
1733725309087771600,11.447771728515624,0.12007599371075629,-0.04906798229068517,-0.1262470835611224
1733725309097733600,11.457733642578125,0.06201894153952598,-0.05510317080169916,-0.1382657303959131
1733725309107694600,11.467694580078126,0.006551321339607239,-0.052039983838796613,-0.14859898142702876
1733725309117656800,11.47765673828125,0.008902268379926682,-0.059629123793542384,-0.15623466393724084
1733725309127617500,11.487617431640626,0.042319384813308714,-0.04740414073169231,-0.15247706496939062
1733725309137579800,11.497579833984375,0.0776946495771408,-0.0026958149552345273,-0.1494734992392361
1733725309147541500,11.50754150390625,0.11088789412677287,0.051562429454922676,-0.1385538996875286
1733725309157502700,11.517502685546875,0.10850012220740318,0.07680909891426563,-0.12753076669611035
1733725309167464700,11.527464599609376,0.07342413265109062,0.059903849081695076,-0.1042189377568662
1733725309177426700,11.5374267578125,0.05707271730899811,0.016931261056661605,-0.07114975797832011
1733725309187387600,11.5473876953125,0.038033670318126676,-0.019814707538485524,-0.03957110901847481
1733725309197348900,11.557348876953125,0.004469254368543624,-0.01568272230029106,-0.043741380440443754
1733725309207310800,11.567310791015625,0.008071662774682044,0.004274316318333149,-0.07779547960311174
1733725309217271800,11.577271728515624,0.02067103210687637,0.01571107161194086,-0.09210654822401702
1733725309227233800,11.58723388671875,0.05398994886279106,0.0037245734810829162,-0.08268105968758463
1733725309237196000,11.597196044921875,0.09606032735109328,-0.0023214286848902703,-0.08903386278040706
1733725309247156700,11.60715673828125,0.10685995378494262,0.025494799001514912,-0.10217376873008906
1733725309257119000,11.617118896484374,0.08166238416433334,0.04230447950512171,-0.10763641805015503
1733725309267080000,11.627079833984375,0.0565150834262371,0.046698915071785446,-0.08636099030934273
1733725309277042000,11.6370419921875,0.04833236149251461,0.023139175786077975,-0.08314787348173558
1733725309287003600,11.647003662109375,0.04406593621969223,-0.004388298086822033,-0.09643222940340637
1733725309296964900,11.65696484375,0.06318915436267852,-0.028026947827637195,-0.11247494412250816
1733725309306926800,11.6669267578125,0.05588379978537559,-0.03248275819271803,-0.12210771873407066
1733725309316888800,11.676888916015624,0.03499415649175644,-0.027005203564465043,-0.13096351762376726
1733725309326850000,11.68685009765625,0.04057458697259426,-0.00374444722533226,-0.12966814405098556
1733725309336811800,11.696811767578126,0.06506897675991058,0.0012073299631476402,-0.11246128092333674
1733725309346773800,11.706773681640625,0.0991618004977703,-0.0182625096604228,-0.10754990881048142
1733725309356734700,11.716734619140626,0.12385668129324913,-0.011610066033899783,-0.09208974321968853
1733725309366697000,11.726697021484375,0.11029811154007911,0.004774374794960022,-0.09251600580774247
1733725309376658000,11.736657958984376,0.061308162921667096,0.013487550343573093,-0.10303279671221971
1733725309386620000,11.746619873046875,0.02613222012221813,-0.00023439327776432036,-0.10304368343241513
1733725309396582000,11.756581787109376,0.045213352689146995,-0.039488837562501426,-0.10661218956895172
1733725309406542800,11.76654296875,0.07747486934661865,-0.07386720024347306,-0.11608122498616576
1733725309416504800,11.7765048828125,0.09733984576761721,-0.06516717643737793,-0.12753931532874702
1733725309426466800,11.786466796875,0.07752163109779357,-0.021566811902821063,-0.13850560356639324
1733725309436427800,11.796427734375,0.05016016144156456,0.0167266783952713,-0.14205664711147545
1733725309446390000,11.80639013671875,0.03415244497060776,0.027105449068546294,-0.11825433124154805
1733725309456351700,11.816351806640625,0.014421324062347411,0.02211597021818161,-0.09451054062582552
1733725309466313000,11.82631298828125,0.022665420794487,0.012881108883023261,-0.08463701606094837
1733725309476275000,11.83627490234375,0.054420156973600385,0.017778817796707154,-0.08393084055297076
1733725309486237000,11.84623681640625,0.06392448289990425,0.031787469404935834,-0.10648271797038614
1733725309496198000,11.856197998046875,0.0753857881128788,0.04142155919075012,-0.121093427124992
1733725309506159900,11.866159912109374,0.07837386401295661,0.03729045073539018,-0.11782141971699893
1733725309516120800,11.876120849609375,0.07505728681087494,-0.0012134674429893494,-0.0897537745527923
1733725309526082800,11.886082763671874,0.05651859055757522,-0.02727554493844509,-0.053155909191444514
1733725309536044800,11.896044921875,0.0379237802028656,-0.022231997813284395,-0.04367985951155424
1733725309546006000,11.906006103515624,0.032520459854602814,0.009692834235727787,-0.04939662972316146
1733725309555967700,11.9159677734375,0.06919628582298755,0.01616115346699953,-0.06652670128755271
1733725309565930000,11.925929931640624,0.10484452230930327,0.00180208098590374,-0.08426577159576118
1733725309575890700,11.935890625,0.12055354809463023,-0.01500350786447525,-0.10012494644150137
1733725309585853000,11.94585302734375,0.08682137436270713,-0.0243842074111104,-0.11454005995877087
1733725309595815000,11.95581494140625,0.039569209322333335,-0.005827683240175247,-0.13215499243065715
1733725309605776000,11.96577587890625,0.015748188751935958,0.01643997040838003,-0.12628851155005394
1733725309615737900,11.97573779296875,0.04476210179030895,0.007743161472678184,-0.1078833054833114
1733725309625699800,11.985699951171876,0.08823241020441054,-0.007140227143466472,-0.0999631069432944
1733725309635660800,11.995660888671875,0.10840542966127395,0.00007920271605253219,-0.10186426438950001
1733725309645623000,12.005623046875,0.0917068083167076,-0.008642448399960994,-0.10604103861749171
1733725309655583700,12.015583740234375,0.054201545786857604,-0.0019289222359657287,-0.10500680019892751
1733725309665546000,12.0255458984375,0.021781623697280882,-0.001606266152858734,-0.11431085431277752
1733725309675507700,12.0355078125,0.01590367157459259,-0.01637771882712841,-0.11942622456513345
1733725309685469000,12.045468994140625,0.04063011655211449,-0.010390461111068726,-0.13544818875715137
1733725309695430700,12.0554306640625,0.07881167090833187,0.0009469254612922668,-0.14139847546368836
1733725309705393000,12.065392822265625,0.08116670960187912,0.012208031927049159,-0.13053842407949268
1733725309715353900,12.075353759765624,0.08244564349651336,0.010089432337880134,-0.09831073662638663
1733725309725315800,12.08531591796875,0.08124094388186931,-0.011565642370283603,-0.06546294451355934
1733725309735277800,12.09527783203125,0.06491641654670238,-0.010312135177850722,-0.04953041217066347
1733725309745238800,12.10523876953125,0.050664603832364076,-0.0084352353900671,-0.06037227031104266
1733725309755200800,12.11520068359375,0.06504968753755093,-0.021651275315880774,-0.05892316748127341
1733725309765161700,12.12516162109375,0.05119593423008918,-0.03354220411777496,-0.05642740514278412
1733725309775123700,12.135123779296874,0.029178163689374922,-0.01189823532551527,-0.0632112931292504
1733725309785086000,12.1450859375,0.027735563665628432,0.026608313201367854,-0.05455920011810958
1733725309795047000,12.155046875,0.040946927416324615,0.05305763644874096,-0.054236397904530165
1733725309805009000,12.1650087890625,0.061469490963220595,0.0473325368002057,-0.04153999793864786
1733725309814971000,12.174970947265624,0.09577858780026435,0.045352761159837246,-0.04123568122982978
1733725309824931800,12.184931884765625,0.09300620047748089,0.05043956290483474,-0.08523403210602701
1733725309834893800,12.194893798828126,0.07033668802976607,0.07161708322912454,-0.13630560930408536
1733725309844855800,12.204855712890625,0.04984510414302349,0.0672705784574151,-0.16253836719132958
