time,seconds_elapsed,z,y,x
1733725297681667800,0.041667724609375,2.3137404918670654,-0.18873371183872223,0.7125780582427979
1733725297691629800,0.0516298828125,1.920554757118225,-0.5066152811050415,0.5342024564743042
1733725297701590800,0.0615908203125,1.4345391988754272,-0.7267939448356628,0.4963095784187317
1733725297711552800,0.071552734375,0.9241126179695129,-0.8353912830352783,0.5098118185997009
1733725297721514800,0.0815146484375,0.47393572330474854,-0.7443100214004517,0.5081669092178345
1733725297731475700,0.091475830078125,0.06550483405590057,-0.5218839049339294,0.49315574765205383
1733725297741437700,0.101437744140625,-0.2703976035118103,-0.3121541142463684,0.4598691165447235
1733725297751399700,0.111399658203125,-0.3060637414455414,-0.4350243806838989,0.4334723949432373
1733725297761361000,0.12136083984375,-0.1300411820411682,-0.6484113335609436,0.4390125274658203
1733725297771322600,0.131322509765625,0.056261852383613586,-0.6424911022186279,0.5055888891220093
1733725297781284900,0.141284912109375,0.17159117758274078,-0.6346781253814697,0.6192343235015869
1733725297791246800,0.151246826171875,0.18229734897613525,-0.6762537956237793,0.8403770923614502
1733725297801207800,0.161207763671875,0.12159112095832825,-0.695846676826477,1.0801228284835815
1733725297811169800,0.171169677734375,0.04423268884420395,-0.6029609441757202,1.107291340827942
1733725297821131800,0.1811318359375,-0.09563423693180084,-0.45662423968315125,0.9766833186149597
1733725297831092700,0.1910927734375,-0.17382784187793732,-0.2209547460079193,0.7893445491790771
1733725297841054700,0.2010546875,-0.12246234714984894,0.14227180182933807,0.5630532503128052
1733725297851016700,0.2110166015625,-0.01084447093307972,0.3905276656150818,0.35786017775535583
1733725297860978000,0.22097802734375,0.11922505497932434,0.41479799151420593,0.21464622020721436
1733725297870939600,0.230939697265625,0.22195196151733398,0.3848153352737427,0.09282311052083969
1733725297880902000,0.24090185546875,0.2713482081890106,0.3201991021633148,-0.032215651124715805
1733725297890862600,0.250862548828125,0.2357766181230545,0.23232676088809967,-0.1834171563386917
1733725297900824800,0.260824951171875,0.23284727334976196,0.22983022034168243,-0.4074833393096924
1733725297910786800,0.270786865234375,0.35541391372680664,-0.12418830394744873,-0.5748432874679565
1733725297920747800,0.280747802734375,0.41964590549468994,-0.5913679003715515,-0.5876728892326355
1733725297930709800,0.290709716796875,0.3950910270214081,-0.8874099850654602,-0.45183539390563965
1733725297940671700,0.300671630859375,0.37593165040016174,-1.0025702714920044,-0.21174022555351257
1733725297950632700,0.3106328125,0.5940301418304443,-1.1348859071731567,0.11953170597553253
1733725297960595000,0.320594970703125,0.8225439190864563,-1.0356178283691406,0.3324100375175476
1733725297970556700,0.330556640625,0.9732010364532471,-0.9697743654251099,0.421479195356369
1733725297980518000,0.340517822265625,1.0426234006881714,-0.9768247008323669,0.321652352809906
1733725297990479600,0.350479736328125,0.9220143556594849,-0.9114773869514465,0.15593372285366058
1733725298000441900,0.36044189453125,0.6269869208335876,-0.6728098392486572,0.007470816373825073
1733725298010402600,0.370402587890625,0.33005428314208984,-0.22560571134090424,-0.10340216755867004
1733725298020364800,0.38036474609375,0.16516925394535065,-0.02578861452639103,-0.21153868734836578
1733725298030326800,0.390326904296875,0.15220710635185242,-0.053916387259960175,-0.3911113739013672
1733725298040287700,0.400287841796875,0.2851298153400421,-0.06663453578948975,-0.556728184223175
1733725298050249700,0.410249755859375,0.44207894802093506,-0.2052597850561142,-0.6662381887435913
1733725298060212000,0.4202119140625,0.49745720624923706,-0.43184858560562134,-0.730069637298584
1733725298070172700,0.430172607421875,0.39924779534339905,-0.6142886877059937,-0.7248948812484741
1733725298080135000,0.440135009765625,0.2837708294391632,-0.7225795388221741,-0.6617839932441711
1733725298090096600,0.4500966796875,0.19984422624111176,-0.7281827926635742,-0.560567319393158
1733725298100059000,0.460058837890625,0.14157335460186005,-0.54253089427948,-0.48473089933395386
1733725298110019600,0.47001953125,0.20045265555381775,-0.49482402205467224,-0.4196152985095978
1733725298119981800,0.47998193359375,0.2519800662994385,-0.26457837224006653,-0.4779745936393738
1733725298129943800,0.48994384765625,0.23242953419685364,-0.02304643765091896,-0.5882435441017151
1733725298139904800,0.49990478515625,0.1817319542169571,0.2336234301328659,-0.642624020576477
1733725298149866800,0.50986669921875,0.15435704588890076,0.37002307176589966,-0.6583755612373352
1733725298159829000,0.5198291015625,0.17325015366077423,0.39334410429000854,-0.6521639823913574
1733725298169789700,0.529789794921875,0.2019747495651245,0.33577480912208557,-0.5032743811607361
1733725298179752000,0.539751953125,0.24875672161579132,0.48648005723953247,-0.280453085899353
1733725298189713200,0.549713134765625,0.28108325600624084,0.7258617877960205,-0.11025872081518173
1733725298199674000,0.559674072265625,0.16288530826568604,0.8868924379348755,-0.021980641409754753
1733725298209636000,0.569635986328125,-0.03229936584830284,0.9338498115539551,0.05684439837932587
1733725298219598000,0.57959814453125,-0.14760927855968475,0.8022623658180237,0.08563374727964401
1733725298229559300,0.589559326171875,-0.17543186247348785,0.6985503435134888,0.04732577130198479
1733725298239521000,0.59952099609375,-0.17940594255924225,0.6814484596252441,-0.12421458214521408
1733725298249483000,0.60948291015625,-0.09735768288373947,0.5058034062385559,-0.27697086334228516
1733725298259444200,0.6194443359375,-0.028461409732699394,0.42192184925079346,-0.5265890955924988
1733725298269406200,0.62940625,-0.012042490765452385,0.49891942739486694,-0.8464525938034058
1733725298279368200,0.6393681640625,-0.07018578052520752,0.8221950531005859,-1.2079893350601196
1733725298289329200,0.6493291015625,-0.19429227709770203,1.0812181234359741,-1.6349382400512695
1733725298299291100,0.659291015625,-0.3104485273361206,1.114243507385254,-1.9624252319335938
1733725298309253000,0.669253173828125,-0.39179691672325134,1.0363162755966187,-2.074713945388794
1733725298319214000,0.679214111328125,-0.4420633018016815,0.9576889276504517,-1.98335599899292
1733725298329176000,0.689176025390625,-0.47124728560447693,0.8084757328033447,-1.8153080940246582
1733725298339138000,0.699137939453125,-0.5073265433311462,0.5066652894020081,-1.5074671506881714
1733725298349099300,0.709099365234375,-0.602837860584259,0.09361673146486282,-1.066601037979126
1733725298359061000,0.71906103515625,-0.7035370469093323,-0.2748683989048004,-0.5588729977607727
1733725298369023000,0.72902294921875,-0.7661101818084717,-0.6491701602935791,-0.030740192160010338
1733725298378984200,0.738984130859375,-0.6699788570404053,-0.8294177651405334,0.4305975139141083
1733725298388946200,0.7489462890625,-0.5133042931556702,-0.7567818760871887,0.7292225956916809
1733725298398908200,0.758908203125,-0.3472824990749359,-0.6138607859611511,0.8376902341842651
1733725298408869000,0.768869140625,-0.22275495529174805,-0.43773287534713745,0.8234438896179199
1733725298418831000,0.7788310546875,-0.10677674412727356,-0.20358262956142426,0.7899940609931946
1733725298428793000,0.78879296875,0.01237175427377224,0.04918091371655464,0.7308279275894165
1733725298438754000,0.798754150390625,0.11879924684762955,0.2906397879123688,0.6193086504936218
1733725298448716300,0.80871630859375,0.18264667689800262,0.5181166529655457,0.4885202646255493
1733725298458678000,0.818677978515625,0.18569128215312958,0.6465361714363098,0.3751322031021118
1733725298468639200,0.82863916015625,0.133113294839859,0.6372030973434448,0.3253510594367981
1733725298478601200,0.838601318359375,0.09019572287797928,0.5480825304985046,0.3338931202888489
1733725298488563000,0.84856298828125,0.06971041858196259,0.4567052125930786,0.35877954959869385
1733725298498524200,0.858524169921875,0.07224228233098984,0.38853681087493896,0.38325801491737366
1733725298508486100,0.868486083984375,0.11309731006622314,0.31700563430786133,0.3825882077217102
1733725298518448000,0.8784482421875,0.16120193898677826,0.24952471256256104,0.3844461441040039
1733725298528409000,0.8884091796875,0.18684285879135132,0.19950522482395172,0.38581207394599915
1733725298538371000,0.89837109375,0.19607704877853394,0.20075377821922302,0.3902829587459564
1733725298548333000,0.9083330078125,0.2172209471464157,0.23989905416965485,0.4187276363372803
1733725298558294000,0.9182939453125,0.25156763195991516,0.28223082423210144,0.4927752614021301
1733725298568256300,0.92825634765625,0.2848249077796936,0.11613130569458008,0.5203387141227722
1733725298578218200,0.93821826171875,0.29659798741340637,-0.2494141161441803,0.453695684671402
1733725298588179200,0.94817919921875,0.2707520127296448,-0.413470983505249,0.3433588147163391
1733725298598141200,0.95814111328125,0.21180462837219238,-0.4172515571117401,0.26508113741874695
1733725298608103000,0.96810302734375,0.1491878479719162,-0.3341236412525177,0.24822281301021576
1733725298618065200,0.978065185546875,0.10764189809560776,-0.19112306833267212,0.2783708870410919
1733725298628026000,0.988026123046875,0.08998008072376251,0.018600333482027054,0.3540475368499756
1733725298637988000,0.997988037109375,0.11378639936447144,0.15484066307544708,0.4555230736732483
1733725298647950000,1.0079501953125,0.19816012680530548,0.1291283816099167,0.5488125085830688
1733725298657911000,1.0179111328125,0.3577156364917755,0.006833048537373543,0.5596072673797607
1733725298667873000,1.027873046875,0.4736369252204895,-0.08276154845952988,0.49268683791160583
1733725298677835300,1.037835205078125,0.47355589270591736,-0.18763871490955353,0.4362048804759979
1733725298687796200,1.047796142578125,0.3798259496688843,-0.301604688167572,0.40925660729408264
1733725298697758200,1.05775830078125,0.2754722833633423,-0.392172634601593,0.4297329783439636
1733725298707720000,1.067719970703125,0.21606968343257904,-0.4248586595058441,0.4532628059387207
1733725298717681200,1.07768115234375,0.1830710768699646,-0.3929385244846344,0.4401993155479431
1733725298727643100,1.08764306640625,0.18806903064250946,-0.30156493186950684,0.40208521485328674
1733725298737605000,1.097605224609375,0.23639605939388275,-0.22110889852046967,0.3538154065608978
1733725298747566300,1.10756640625,0.32498639822006226,-0.20290087163448334,0.27520978450775146
1733725298757528000,1.117528076171875,0.38818293809890747,-0.18863819539546967,0.15069511532783508
1733725298767490000,1.127489990234375,0.5223079919815063,-0.18474172055721283,0.10526292026042938
1733725298777451000,1.137450927734375,0.6629376411437988,-0.25812196731567383,0.13902424275875092
1733725298787413200,1.147413330078125,0.691612958908081,-0.4733964502811432,0.2935299277305603
1733725298797375200,1.157375244140625,0.5823741555213928,-0.8988615870475769,0.5131539702415466
1733725298807336200,1.167336181640625,0.390419065952301,-1.5084589719772339,0.7020325064659119
1733725298817298200,1.177298095703125,0.24364712834358215,-2.4484972953796387,0.7904466390609741
1733725298827260000,1.187260009765625,0.1471264362335205,-3.473695755004883,0.6643882989883423
1733725298837221000,1.19722119140625,0.17446503043174744,-4.246644496917725,0.40302783250808716
1733725298847183000,1.20718310546875,0.6819421052932739,-4.04686975479126,-0.052150316536426544
1733725298857145000,1.21714501953125,2.0440242290496826,-3.8792145252227783,-0.6271019577980042
1733725298867106300,1.227106201171875,2.8029890060424805,-3.610689878463745,-1.2926985025405884
1733725298877068000,1.237068115234375,2.992201089859009,-3.302190065383911,-2.037276268005371
1733725298887030000,1.247030029296875,2.9428014755249023,-2.9796721935272217,-2.543992519378662
1733725298896991000,1.256990966796875,2.740642547607422,-2.75600004196167,-2.837132215499878
1733725298906953200,1.266953125,2.6224722862243652,-2.9010438919067383,-2.9652552604675293
1733725298916915200,1.276915283203125,2.615529775619507,-3.3404366970062256,-3.0569634437561035
1733725298926876200,1.286876220703125,2.7195823192596436,-4.259457588195801,-3.058615207672119
1733725298936838100,1.296838134765625,3.0679712295532227,-5.387846946716309,-2.3513057231903076
1733725298946800000,1.306800048828125,3.6768407821655273,-6.0411787033081055,-0.9197755455970764
1733725298956761000,1.316760986328125,4.253406524658203,-6.653879165649414,0.6662430763244629
1733725298966723300,1.326723388671875,5.031146049499512,-7.482968330383301,1.9900280237197876
1733725298976685000,1.33668505859375,6.023303031921387,-8.045607566833496,3.0235369205474854
1733725298986646300,1.346646240234375,6.724465370178223,-8.06175422668457,3.8791966438293457
1733725298996608000,1.35660791015625,6.736509799957275,-7.471044540405273,4.41340970993042
1733725299006570000,1.366570068359375,6.182620048522949,-6.7859601974487305,4.250738620758057
1733725299016531200,1.37653125,5.280675411224365,-6.129830360412598,3.6845476627349854
1733725299026493200,1.3864931640625,4.092073440551758,-5.2356367111206055,3.307950735092163
1733725299036455200,1.396455078125,2.380023241043091,-4.545041084289551,3.2935473918914795
1733725299046416100,1.406416015625,0.7029240131378174,-4.557896614074707,3.198103189468384
1733725299056378000,1.416378173828125,0.4827216565608978,-5.190545082092285,2.9062340259552
1733725299066340000,1.426340087890625,0.8831993341445923,-5.632629871368408,2.6884889602661133
1733725299076301000,1.436301025390625,0.853066623210907,-5.4243621826171875,2.439244031906128
1733725299086263300,1.44626318359375,0.4798123836517334,-5.555149555206299,2.242835521697998
1733725299096225000,1.45622509765625,-0.29688331484794617,-6.5957183837890625,1.9948102235794067
1733725299106186200,1.466186279296875,-1.5987019538879395,-7.852729797363281,1.6353657245635986
1733725299116148200,1.476148193359375,-3.1619982719421387,-8.439172744750977,1.6094337701797485
1733725299126110000,1.48610986328125,-3.4685821533203125,-8.158809661865234,1.4780069589614868
1733725299136071200,1.4960712890625,-1.9975966215133667,-6.281338691711426,1.0285378694534302
1733725299146033200,1.506033203125,-2.4136362075805664,-4.192602634429932,1.2916802167892456
1733725299155995100,1.5159951171875,-3.593167304992676,-0.9224275946617126,1.3418633937835693
1733725299165956000,1.5259560546875,-3.636735677719116,1.4479286670684814,1.0004239082336426
1733725299175918000,1.53591796875,-3.175299644470215,3.1364901065826416,0.8564618825912476
1733725299185880000,1.545880126953125,-3.189265012741089,3.9737699031829834,0.5682095885276794
1733725299195841000,1.555841064453125,-3.5954465866088867,3.319875478744507,-0.1493191123008728
1733725299205803300,1.56580322265625,-3.0357794761657715,0.7479074001312256,-1.26852285861969
1733725299215765200,1.57576513671875,-2.9791667461395264,-2.6629583835601807,-1.637742519378662
1733725299225726200,1.585726318359375,-3.862912178039551,-6.165177345275879,-0.5705931186676025
1733725299235688200,1.595688232421875,-4.196763038635254,-6.206409454345703,0.27018848061561584
1733725299245650200,1.605650146484375,-2.6943647861480713,-4.955851078033447,0.5207090973854065
1733725299255612200,1.615612060546875,-1.4812400341033936,-3.748267889022827,0.5858579874038696
1733725299265573000,1.625572998046875,-0.717654287815094,-3.7367026805877686,0.33297404646873474
1733725299275535000,1.63553515625,-0.5080982446670532,-4.462273597717285,-0.11416026949882507
1733725299285497000,1.6454970703125,-0.7603188157081604,-5.533535480499268,-0.4660930037498474
1733725299295458000,1.6554580078125,-1.3636642694473267,-7.183436870574951,-0.6570630073547363
1733725299305420300,1.665420166015625,-1.6611169576644897,-8.682527542114258,-0.67269366979599
1733725299315382000,1.675382080078125,-2.057499885559082,-10.187848091125488,-0.6341291666030884
1733725299325343200,1.68534326171875,-2.776449203491211,-11.3693208694458,-0.8422006368637085
1733725299335305200,1.69530517578125,-3.1888058185577393,-12.09591007232666,-1.0911436080932617
1733725299345267000,1.705266845703125,-3.2615034580230713,-12.288836479187012,-1.1578449010849
1733725299355228200,1.715228271484375,-2.4630024433135986,-12.120201110839844,-0.9528611898422241
1733725299365190100,1.725190185546875,-1.9677128791809082,-10.79373550415039,-0.6865637302398682
1733725299375152000,1.735152099609375,-1.51834237575531,-8.499837875366211,0.7817642688751221
1733725299385113300,1.74511328125,-1.0319931507110596,-3.8086013793945312,4.035552978515625
1733725299395075000,1.755074951171875,-0.6171818971633911,-2.4846887588500977,5.677145957946777
1733725299405037000,1.765037109375,0.04844269901514053,-2.4725840091705322,6.26738166809082
1733725299414998000,1.774998046875,0.20094113051891327,-2.825852870941162,5.549424171447754
1733725299424960300,1.784960205078125,0.4890458881855011,-3.188643217086792,3.9737324714660645
1733725299434922200,1.794922119140625,0.5494787693023682,-3.122955560684204,2.953432083129883
1733725299444883200,1.80488330078125,0.43287914991378784,-2.0516927242279053,2.87666654586792
1733725299454845200,1.81484521484375,0.5616275668144226,-0.9034035801887512,2.9054107666015625
1733725299464807000,1.824806884765625,1.1993812322616577,-0.4809247553348541,2.552506923675537
1733725299474768100,1.83476806640625,1.9495781660079956,-0.5316085815429688,2.3096752166748047
1733725299484730000,1.844730224609375,2.2798476219177246,-1.1415425539016724,2.36384916305542
1733725299494692000,1.854692138671875,2.0579941272735596,-2.6317567825317383,2.361314535140991
1733725299504653300,1.8646533203125,1.9356915950775146,-3.002898693084717,2.688039541244507
1733725299514615000,1.874614990234375,1.8261798620224,-2.2013492584228516,2.8163979053497314
1733725299524577000,1.884576904296875,1.5714043378829956,-1.210041880607605,2.6882455348968506
1733725299534538000,1.8945380859375,1.1149762868881226,-0.2743956446647644,2.3848226070404053
1733725299544500200,1.904500244140625,0.49987339973449707,0.1919664591550827,1.9844472408294678
1733725299554462200,1.914462158203125,-0.13143424689769745,0.1367780715227127,1.3458101749420166
1733725299564423200,1.924423095703125,-0.4780934154987335,0.00206180103123188,0.5502222180366516
1733725299574385200,1.93438525390625,-0.6802414059638977,-0.043155089020729065,-0.1319061666727066
1733725299584347100,1.94434716796875,-0.7351714968681335,0.031037382781505585,-0.4406815767288208
1733725299594308000,1.95430810546875,-0.8170275092124939,0.31450116634368896,-0.526676595211029
1733725299604270300,1.964270263671875,-0.8886069059371948,0.491842657327652,-0.5696514844894409
1733725299614232000,1.974232177734375,-0.8658130764961243,0.6026676297187805,-0.5820159316062927
1733725299624193300,1.984193359375,-0.7300896048545837,0.6095330119132996,-0.5475764870643616
1733725299634155000,1.994155029296875,-0.5476165413856506,0.6044116616249084,-0.46285703778266907
1733725299644117000,2.004116943359375,-0.2853148877620697,0.7144150733947754,-0.3320654630661011
1733725299654078000,2.014077880859375,-0.012185859493911266,0.6879658699035645,-0.21499650180339813
1733725299664040200,2.024040283203125,0.18976964056491852,0.5941347479820251,-0.09056323766708374
1733725299674002200,2.034002197265625,0.24849221110343933,0.3058604300022125,0.1350986212491989
1733725299683963100,2.043963134765625,0.2861860692501068,0.31546005606651306,0.1824783831834793
1733725299693925000,2.053925048828125,0.2961600422859192,0.1150428056716919,0.22421732544898987
1733725299703887000,2.06388720703125,0.2708190083503723,0.010278042405843735,0.15969957411289215
1733725299713848000,2.07384814453125,0.19563893973827362,0.02954098768532276,0.05306779220700264
1733725299723810300,2.083810302734375,0.09394798427820206,0.11130562424659729,-0.08808267116546631
1733725299733772000,2.09377197265625,0.0041669136844575405,0.17999660968780518,-0.14988110959529877
1733725299743733200,2.103733154296875,-0.060305554419755936,0.20026619732379913,-0.16774293780326843
1733725299753695000,2.113695068359375,-0.09280369430780411,0.16447845101356506,-0.18408945202827454
1733725299763657200,2.1236572265625,-0.05133587867021561,0.2338505983352661,-0.10535787791013718
1733725299773619200,2.133619140625,0.004008335992693901,0.36711251735687256,0.11746321618556976
1733725299783580200,2.143580078125,0.06306872516870499,0.33625125885009766,0.39733508229255676
1733725299793542100,2.153542236328125,0.13544943928718567,0.06741171330213547,0.5909308791160583
1733725299803504000,2.163504150390625,0.21591924130916595,-0.2865665853023529,0.7258793711662292
1733725299813465000,2.173465087890625,0.23467697203159332,-0.49202245473861694,0.8029054999351501
1733725299823427300,2.18342724609375,0.2018583118915558,-0.45960938930511475,0.8133586645126343
1733725299833389000,2.19338916015625,0.16598215699195862,-0.25744715332984924,0.7702375054359436
1733725299843350300,2.203350341796875,0.16602103412151337,-0.08429374545812607,0.705884575843811
1733725299853312000,2.21331201171875,0.21397241950035095,-0.01322740688920021,0.6569734215736389
1733725299863274000,2.22327392578125,0.21199502050876617,0.0614662729203701,0.5492187142372131
1733725299873235200,2.233235107421875,0.13085871934890747,0.13786086440086365,0.3911602199077606
1733725299883197200,2.243197265625,0.04960779845714569,0.1339351087808609,0.20979896187782288
1733725299893159200,2.2531591796875,0.03460044413805008,0.07125502824783325,-0.018413133919239044
1733725299903120100,2.2631201171875,0.056490831077098846,-0.06288307160139084,-0.2169605791568756
1733725299913082000,2.27308203125,0.050075724720954895,-0.20435547828674316,-0.3282257616519928
1733725299923044000,2.283044189453125,0.008604712784290314,-0.25615742802619934,-0.30639421939849854
1733725299933005000,2.293005126953125,-0.0391106940805912,-0.18086476624011993,-0.1718413531780243
1733725299942967300,2.30296728515625,-0.044903602451086044,-0.020520631223917007,0.006160343997180462
1733725299952929000,2.312928955078125,0.015537120401859283,0.07954710721969604,0.18264980614185333
1733725299962890200,2.32289013671875,0.07209067791700363,0.07368868589401245,0.3113630414009094
1733725299972852200,2.332852294921875,0.09061460942029953,0.009425671771168709,0.37056395411491394
1733725299982814000,2.34281396484375,0.062128107994794846,-0.05207390710711479,0.3719426691532135
1733725299992775200,2.352775146484375,0.01300215907394886,-0.12212228775024414,0.3317713439464569
1733725300002737200,2.362737060546875,-0.015447057783603668,-0.16333071887493134,0.2600995600223541
1733725300012699100,2.37269921875,-0.03031156398355961,-0.1485922932624817,0.1570822298526764
1733725300022660000,2.38266015625,-0.03240374103188515,-0.09827080368995667,0.05104927346110344
1733725300032622000,2.3926220703125,-0.031099244952201843,-0.05674097314476967,-0.021043144166469574
1733725300042584000,2.402583984375,-0.02681262046098709,-0.04870381951332092,-0.03818564489483833
1733725300052545000,2.412544921875,-0.014227430336177349,-0.06906329095363617,-0.01880032941699028
1733725300062507300,2.42250732421875,0.002072713803499937,-0.09712954610586166,0.010064342059195042
1733725300072469200,2.43246923828125,0.017539160326123238,-0.11404311656951904,0.03127475827932358
1733725300082430200,2.44243017578125,0.01976955682039261,-0.11041003465652466,0.045765817165374756
1733725300092392200,2.45239208984375,0.027272313833236694,-0.10666102916002274,0.05242873728275299
1733725300102354200,2.462354248046875,0.041669897735118866,-0.11173142492771149,0.03691822290420532
1733725300112315100,2.472315185546875,0.051071155816316605,-0.11703234910964966,0.008624248206615448
1733725300122277000,2.482277099609375,0.05921722948551178,-0.10991771519184113,-0.02615290693938732
1733725300132239000,2.492239013671875,0.07203661650419235,-0.08969119191169739,-0.04908036068081856
1733725300142200300,2.502200439453125,0.09238822758197784,-0.0726352408528328,-0.060983363538980484
1733725300152162000,2.512162109375,0.10517320036888123,-0.07006967812776566,-0.059860389679670334
1733725300162124000,2.5221240234375,0.107626773416996,-0.08052124828100204,-0.04568465054035187
1733725300172085000,2.5320849609375,0.10388745367527008,-0.08680522441864014,-0.026809126138687134
1733725300182047200,2.542047119140625,0.0871332436800003,-0.06748531758785248,-0.02444211021065712
1733725300192009000,2.552009033203125,0.0734560489654541,-0.04511263594031334,-0.036622606217861176
1733725300201970000,2.561969970703125,0.060713090002536774,-0.024884860962629318,-0.05505381152033806
1733725300211932000,2.571931884765625,0.04481939226388931,0.021247150376439095,-0.07407485693693161
1733725300221894000,2.581893798828125,0.041358351707458496,0.042140450328588486,-0.08189097046852112
1733725300231855900,2.59185595703125,0.040701575577259064,0.04712275043129921,-0.06549108773469925
1733725300241816800,2.60181689453125,0.029227877035737038,0.05090364068746567,-0.033404529094696045
1733725300251778800,2.61177880859375,0.015355825424194336,0.04519336298108101,-0.008376366458833218
1733725300261740800,2.62174072265625,0.01376352272927761,0.04280131310224533,0.0002490798942744732
1733725300271701800,2.63170166015625,0.003234592732042074,0.046004246920347214,-0.006962625775486231
1733725300281664000,2.6416640625,-0.013844259083271027,0.04713023081421852,-0.02114848606288433
1733725300291626000,2.6516259765625,-0.02967672049999237,0.048884619027376175,-0.03366539999842644
1733725300301587000,2.6615869140625,-0.04184150695800781,0.04772161692380905,-0.03880290314555168
1733725300311549000,2.671548828125,-0.04737973213195801,0.03918881341814995,-0.03908424824476242
1733725300321511000,2.681510986328125,-0.04817788302898407,0.03089519776403904,-0.031878530979156494
1733725300331472000,2.691471923828125,-0.04870861768722534,0.029483288526535034,-0.021037084981799126
1733725300341433900,2.701433837890625,-0.045536261051893234,0.030828718096017838,-0.013834832236170769
1733725300351395800,2.711395751953125,-0.038194309920072556,0.041606999933719635,-0.012148655951023102
1733725300361357000,2.721357177734375,-0.030304161831736565,0.044617705047130585,-0.008998136967420578
1733725300371318800,2.73131884765625,-0.021374262869358063,0.042159274220466614,-0.013428522273898125
1733725300381281000,2.741281005859375,-0.011052648536860943,0.04069080948829651,-0.011863915249705315
1733725300391241700,2.75124169921875,-0.0028096509631723166,0.042881276458501816,-0.007134849205613136
1733725300401204000,2.761203857421875,0.007729276083409786,0.04442617669701576,0.002792616141960025
1733725300411166000,2.771166015625,0.012127084657549858,0.04802141711115837,0.016046538949012756
1733725300421127000,2.781126953125,0.021174907684326172,0.05319221317768097,0.02882092446088791
1733725300431089000,2.7910888671875,0.025967586785554886,0.05652935802936554,0.03731166571378708
1733725300441051000,2.80105078125,0.028505578637123108,0.05911262333393097,0.04719279333949089
1733725300451011800,2.81101171875,0.025854717940092087,0.05385468900203705,0.04658058285713196
1733725300460974000,2.82097412109375,0.020794179290533066,0.04466225579380989,0.04053068161010742
1733725300470935800,2.830935791015625,0.015584802255034447,0.03555426374077797,0.03864260017871857
1733725300480897000,2.84089697265625,0.0063835796900093555,0.02754853665828705,0.03974727913737297
1733725300490858800,2.850858642578125,0.0019813748076558113,0.023179354146122932,0.04053131490945816
1733725300500821000,2.860821044921875,-0.005527940578758717,0.02624119073152542,0.04385041072964668
1733725300510781700,2.87078173828125,-0.009380927309393883,0.024282332509756088,0.047446221113204956
1733725300520744000,2.880743896484375,-0.015244143083691597,0.026860274374485016,0.04775035381317139
1733725300530706000,2.890705810546875,-0.022327471524477005,0.02474447712302208,0.04621954634785652
1733725300540667000,2.9006669921875,-0.02547426149249077,0.01686551421880722,0.03597116842865944
1733725300550628900,2.91062890625,-0.028397265821695328,0.012514139525592327,0.02480388805270195
1733725300560591000,2.920591064453125,-0.03128945827484131,0.01226406916975975,0.01505991443991661
1733725300570552800,2.930552734375,-0.03116343729197979,0.009608302265405655,0.00767661863937974
1733725300580514000,2.94051416015625,-0.02936607040464878,0.012908758595585823,0.0085320258513093
1733725300590475800,2.950475830078125,-0.022956600412726402,0.010211721993982792,0.017013266682624817
1733725300600437800,2.960437744140625,-0.02402239851653576,0.0068335020914673805,0.02594763971865177
1733725300610398700,2.970398681640625,-0.023355672135949135,0.002852899953722954,0.03333055227994919
1733725300620361000,2.98036083984375,-0.018767045810818672,-0.000878454651683569,0.03327888622879982
1733725300630323000,2.990322998046875,-0.013428783044219017,0.0010665780864655972,0.027569159865379333
1733725300640284000,3.000283935546875,-0.005846764426678419,0.008776162751019001,0.011799518018960953
1733725300650246000,3.010245849609375,-0.0007206583395600319,0.024276763200759888,-0.002692287787795067
1733725300660207900,3.020207763671875,0.003044252283871174,0.02760464884340763,-0.009835418313741684
1733725300670168800,3.0301689453125,0.010012268088757992,0.021570635959506035,-0.016591565683484077
1733725300680131000,3.040131103515625,0.00852622464299202,0.012962501496076584,-0.012141156941652298
1733725300690092800,3.0500927734375,0.010203647427260876,0.003172649070620537,-0.002323371358215809
1733725300700054000,3.060053955078125,0.007236087694764137,0.0024661123752593994,0.005480756051838398
1733725300710015700,3.070015625,0.007054429966956377,-0.00010812515392899513,0.022574685513973236
1733725300719977700,3.079977783203125,0.004485811572521925,0.006552441045641899,0.03620580583810806
1733725300729939000,3.08993896484375,-0.0012564247008413076,0.008827625773847103,0.0490809828042984
1733725300739901000,3.09990087890625,-0.010857652872800827,0.009625242091715336,0.05677671730518341
1733725300749863000,3.10986279296875,-0.015499355271458626,0.009883723221719265,0.04793236032128334
1733725300759824000,3.119823974609375,-0.021455515176057816,0.01078280620276928,0.027732284739613533
1733725300769785900,3.129785888671875,-0.01952449418604374,0.009984439238905907,0.010539044626057148
1733725300779747800,3.139747802734375,-0.021358346566557884,0.009647549130022526,-0.003938964568078518
1733725300789708800,3.149708740234375,-0.021653397008776665,0.010800461284816265,-0.020113036036491394
1733725300799671000,3.159671142578125,-0.018642427399754524,0.008922666311264038,-0.0273688193410635
1733725300809632800,3.1696328125,-0.015286818146705627,0.012353258207440376,-0.031066404655575752
1733725300819594000,3.179593994140625,-0.010696327313780785,0.015649452805519104,-0.022007929161190987
1733725300829556000,3.189555908203125,-0.006022000219672918,0.0198218896985054,-0.013833939097821712
1733725300839518000,3.19951806640625,0.005763552617281675,0.02800391986966133,-0.000126649159938097
1733725300849479000,3.20947900390625,0.012941937893629074,0.02884235605597496,0.014492197893559933
1733725300859441000,3.21944091796875,0.02055884338915348,0.027548056095838547,0.020691771060228348
1733725300869403000,3.22940283203125,0.02727586030960083,0.020030833780765533,0.01880648359656334
1733725300879364900,3.23936474609375,0.026056930422782898,0.019720042124390602,0.00866889487951994
1733725300889325800,3.249325927734375,0.022628430277109146,0.026084134355187416,0.0028275689110159874
1733725300899288000,3.2592880859375,0.022823110222816467,0.028349950909614563,0.0010009068064391613
1733725300909249800,3.269249755859375,0.020388908684253693,0.022657399997115135,0.0016918766777962446
1733725300919211000,3.2792109375,0.016494832932949066,0.013752056285738945,0.0035004294477403164
1733725300929172700,3.2891728515625,0.009788727387785912,0.00858046393841505,0.003567274659872055
1733725300939134700,3.299134765625,0.0033308276906609535,0.004970016423612833,0.0029297140426933765
1733725300949096000,3.309095947265625,-0.005240096244961023,0.004421628080308437,0.0002318122424185276
1733725300959058000,3.319057861328125,-0.011511308141052723,0.005929510109126568,-0.004108341410756111
1733725300969020000,3.32902001953125,-0.011483455076813698,0.024607330560684204,0.0016576764173805714
1733725300978980900,3.33898095703125,-0.0023738464806228876,0.025525057688355446,-0.003966653253883123
1733725300988942800,3.34894287109375,-0.004457659553736448,0.012505121529102325,-0.000012665987014770508
1733725300998904800,3.35890478515625,-0.00230875494889915,-0.001795521005988121,-0.0032862238585948944
1733725301008865800,3.36886572265625,0.005359676666557789,-0.006311194505542517,-0.002919600810855627
1733725301018828000,3.378828125,0.006338122300803661,-0.00880737416446209,-0.0061854347586631775
1733725301028789800,3.388789794921875,0.009812860749661922,-0.007528535556048155,-0.008913853205740452
1733725301038751000,3.3987509765625,0.008347589522600174,0.00027266237884759903,-0.01814783178269863
1733725301048713000,3.408712890625,0.0070533123798668385,0.005852357018738985,-0.03606897220015526
1733725301058674700,3.4186748046875,0.005295891780406237,0.003014759160578251,-0.043988946825265884
1733725301068636000,3.428635986328125,0.0013027195818722248,-0.0033616735599935055,-0.0457850843667984
1733725301078598000,3.438597900390625,-0.0037221326492726803,-0.007763346191495657,-0.03446425497531891
1733725301088559900,3.448559814453125,-0.007055509835481644,-0.006129959598183632,-0.016128167510032654
1733725301098520800,3.458520751953125,-0.007864045910537243,0.0009553809650242329,-0.0018195356242358685
1733725301108482800,3.46848291015625,-0.0016854393761605024,-0.0015910887159407139,0.004855798557400703
1733725301118444800,3.47844482421875,-0.003058032598346472,0.0014952486380934715,0.005726652219891548
1733725301128405800,3.48840576171875,0.0024464549496769905,0.0033075299579650164,0.0034416597336530685
1733725301138368000,3.498367919921875,0.0029204976744949818,0.01113828830420971,-0.0030362135730683804
1733725301148330000,3.508330078125,0.007085986435413361,0.014237089082598686,0.0007978114299476147
1733725301158291000,3.518291015625,0.008834884501993656,0.00538447592407465,0.0000569196417927742
1733725301168253000,3.5282529296875,0.01179575826972723,-0.011066162958741188,0.00786919891834259
1733725301178215000,3.53821484375,0.013372615911066532,-0.02250550501048565,0.009823959320783615
1733725301188176400,3.54817626953125,0.01802588626742363,-0.02454047091305256,0.016134731471538544
1733725301198138400,3.558138427734375,0.018938284367322922,-0.025351671501994133,0.018263928592205048
1733725301208100400,3.568100341796875,0.022693853825330734,-0.023986373096704483,0.014906146563589573
1733725301218062300,3.578062255859375,0.02705957181751728,-0.018583619967103004,0.00712811853736639
1733725301228023600,3.5880234375,0.026365499943494797,-0.012302223592996597,-0.0017442530952394009
1733725301237985300,3.5979853515625,0.025170274078845978,-0.004833122715353966,-0.0024635731242597103
1733725301247947500,3.607947509765625,0.01659911870956421,0.0000674128532409668,-0.001592857763171196
1733725301257908200,3.617908203125,0.012951387092471123,0.0007337355054914951,-0.002640811260789633
1733725301267870500,3.627870361328125,0.007339959964156151,0.0041278451681137085,-0.002073532436043024
1733725301277832400,3.63783251953125,-0.005117508582770824,0.00787171721458435,-0.003139063250273466
1733725301287793400,3.64779345703125,-0.018332449719309807,0.012106440961360931,-0.013247862458229065
1733725301297755400,3.65775537109375,-0.02761649526655674,0.01702236942946911,-0.027461152523756027
1733725301307717400,3.66771728515625,-0.03858720883727074,0.013501366600394249,-0.037169210612773895
1733725301317678300,3.67767822265625,-0.03759944066405296,0.006530542392283678,-0.04170936346054077
1733725301327640300,3.687640380859375,-0.03814307227730751,-0.00421447679400444,-0.026720982044935226
1733725301337602300,3.697602294921875,-0.03870526701211929,-0.013553916476666927,-0.010952940210700035
1733725301347563500,3.7075634765625,-0.03765929862856865,-0.015936296433210373,0.01524401642382145
1733725301357525200,3.717525146484375,-0.03532104194164276,-0.020468728616833687,0.030867984518408775
1733725301367487500,3.727487548828125,-0.0342070609331131,-0.016197923570871353,0.03283465653657913
1733725301377448400,3.737448486328125,-0.030762262642383575,-0.004946334753185511,0.019798219203948975
1733725301387410400,3.747410400390625,-0.03029690682888031,0.010859863832592964,-0.004678670782595873
1733725301397372400,3.757372314453125,-0.03245246782898903,0.02551550418138504,-0.02064698375761509
1733725301407333400,3.76733349609375,-0.03170064836740494,0.025349777191877365,-0.029306486248970032
1733725301417295400,3.77729541015625,-0.026916280388832092,0.01912623643875122,-0.02561561018228531
1733725301427257300,3.78725732421875,-0.017020240426063538,0.012117061764001846,-0.012051865458488464
1733725301437218300,3.79721826171875,-0.010040361434221268,0.012869937345385551,0.00014594616368412971
1733725301447180500,3.8071806640625,0.0019651036709547043,0.019556213170289993,0.0036998498253524303
1733725301457142300,3.817142333984375,0.013775691390037537,0.022898482158780098,-0.0027679032646119595
1733725301467103500,3.827103515625,0.017876479774713516,0.016213616356253624,-0.007422259543091059
1733725301477065200,3.837065185546875,0.024307750165462494,-0.00226818909868598,-0.013233808800578117
1733725301487027500,3.84702734375,0.02248731255531311,-0.013844344764947891,-0.008425780571997166
1733725301496988400,3.856988525390625,0.02147211693227291,-0.016653448343276978,-0.006922426633536816
1733725301506950400,3.866950439453125,0.01692291349172592,-0.006488241720944643,-0.011494773440063
1733725301516912400,3.876912353515625,0.010343308560550213,0.0027875485830008984,-0.023456625640392303
1733725301526873300,3.886873291015625,0.010576644912362099,0.0197051540017128,-0.030422218143939972
1733725301536835300,3.89683544921875,0.009660517796874046,0.0286810714751482,-0.03691153973340988
1733725301546797600,3.906797607421875,0.006569530349224806,0.035846542567014694,-0.03608427941799164
1733725301556758500,3.916758544921875,0.006824127864092588,0.025065800175070763,-0.024404188618063927
1733725301566720500,3.926720458984375,0.007667252793908119,0.01477018278092146,-0.01758860982954502
1733725301576682200,3.93668212890625,0.015243413858115673,0.005554313771426678,-0.013625826686620712
1733725301586644500,3.94664453125,0.020585685968399048,0.012798352167010307,-0.0014134719967842102
1733725301596605200,3.956605224609375,0.023883478716015816,0.020917264744639397,0.013587580993771553
1733725301606567400,3.9665673828125,0.022693965584039688,0.021331829950213432,0.030459530651569366
1733725301616529400,3.976529296875,0.027716422453522682,0.023216016590595245,0.04333911091089249
1733725301626490400,3.986490478515625,0.02850142866373062,0.023504018783569336,0.05069324001669884
1733725301636452400,3.996452392578125,0.03000345081090927,0.016936663538217545,0.053030431270599365
1733725301646414600,4.00641455078125,0.030652586370706558,0.006620097439736128,0.049076080322265625
1733725301656375300,4.016375244140625,0.02736837789416313,-0.003269817214459181,0.05011071264743805
1733725301666337500,4.026337646484375,0.022571450099349022,-0.008455013856291771,0.04675218090415001
1733725301676299300,4.03629931640625,0.015845105051994324,0.0025419765152037144,0.0463244803249836
1733725301686260500,4.046260498046875,0.006973737850785255,0.0138445645570755,0.031153950840234756
1733725301696222200,4.05622216796875,-0.0021939282305538654,0.020368510857224464,0.016932403668761253
1733725301706184400,4.066184326171875,-0.011820740066468716,0.01127636805176735,0.0010676162783056498
1733725301716145400,4.0761455078125,-0.01831752248108387,-0.0027840565890073776,-0.001788357738405466
1733725301726107400,4.086107421875,-0.028085295110940933,-0.01566736400127411,0.0006073443219065666
1733725301736069400,4.0960693359375,-0.0414024293422699,-0.014255888760089874,0.016758617013692856
1733725301746030300,4.1060302734375,-0.04573896899819374,-0.014637586660683155,0.022112762555480003
1733725301755992300,4.115992431640625,-0.04809879511594772,-0.005230503156781197,0.025860896334052086
1733725301765954600,4.12595458984375,-0.049276530742645264,0.0002761515788733959,0.02274404466152191
1733725301775915300,4.135915283203125,-0.04745839163661003,0.007579338271170855,0.010588312521576881
1733725301785877500,4.14587744140625,-0.04333982244133949,0.011426886543631554,-0.003197841811925173
1733725301795839200,4.155839111328125,-0.037103764712810516,0.009610876441001892,-0.014440376311540604
1733725301805800400,4.165800537109375,-0.02439488284289837,0.01595551148056984,-0.018751733005046844
1733725301815762400,4.175762451171875,-0.01873726211488247,0.03173048049211502,-0.01333912368863821
1733725301825724400,4.185724365234375,-0.009150048717856407,0.03447627276182175,-0.0048423511907458305
1733725301835685400,4.195685302734375,-0.000947512686252594,0.02974436804652214,0.008274516090750694
1733725301845647400,4.2056474609375,0.005629586521536112,0.01832021214067936,0.016439242288470268
1733725301855609300,4.215609375,0.010410226881504059,0.008638556115329266,0.01699424535036087
1733725301865570300,4.2255703125,0.008154510520398617,-0.0031577558256685734,0.009224404580891132
1733725301875532300,4.2355322265625,0.006963544525206089,-0.010183440521359444,-0.0002090446650981903
1733725301885494500,4.24549462890625,0.015878476202487946,-0.005919719580560923,-0.008405988104641438
1733725301895455500,4.25545556640625,0.02059333585202694,0.0005323207005858421,0.0016322650481015444
1733725301905417500,4.26541748046875,0.030799513682723045,0.0015374883078038692,0.02277480810880661
1733725301915379500,4.27537939453125,0.04376138374209404,0.00009964779019355774,0.04185023531317711
1733725301925340400,4.28534033203125,0.04497313126921654,-0.0034638880752027035,0.06093170866370201
1733725301935302400,4.295302490234375,0.037978608161211014,-0.012094926089048386,0.05983927845954895
1733725301945264400,4.305264404296875,0.02800140716135502,-0.014007756486535072,0.04158845543861389
1733725301955225300,4.315225341796875,0.023845544084906578,-0.01471802033483982,0.012233760207891464
1733725301965187300,4.325187255859375,0.01678621955215931,-0.010423903353512287,-0.00881735049188137
1733725301975149300,4.3351494140625,0.015860771760344505,-0.008675805293023586,-0.016001760959625244
1733725301985110500,4.345110595703125,0.01433719415217638,-0.010685315355658531,-0.008988788351416588
1733725301995072300,4.355072265625,0.013390441425144672,-0.011689594015479088,0.0005344096571207047
1733725302005034500,4.365034423828125,0.009292053058743477,-0.010893579572439194,0.0071603418327867985
1733725302014995500,4.374995361328125,0.0050128852017223835,-0.0035501797683537006,0.007774999365210533
1733725302024957400,4.38495751953125,-0.0012325444258749485,0.001506029162555933,0.004518540576100349
1733725302034919400,4.39491943359375,-0.001593935303390026,0.008021452464163303,0.0011152869556099176
1733725302044880400,4.40488037109375,-0.005357947200536728,0.010119831189513206,0.0030170083045959473
1733725302054842400,4.41484228515625,-0.014316287823021412,0.006992747541517019,0.00555926188826561
1733725302064804400,4.424804443359375,-0.019318530336022377,0.006531456019729376,0.010962710715830326
1733725302074766300,4.434766357421875,-0.02932828851044178,0.005433434620499611,0.00588805740699172
1733725302084727600,4.4447275390625,-0.03120029717683792,0.010284872725605965,0.0006774631328880787
1733725302094689300,4.454689208984375,-0.03630690649151802,0.009066211059689522,-0.008201781660318375
1733725302104651500,4.464651611328125,-0.041105832904577255,0.006826910190284252,-0.006222597323358059
1733725302114612200,4.4746123046875,-0.046107515692710876,0.00007553072646260262,0.0029437365010380745
1733725302124574500,4.484574462890625,-0.051920317113399506,-0.007069500628858805,0.023319203406572342
1733725302134536400,4.494536376953125,-0.051190875470638275,-0.010594727471470833,0.030545957386493683
1733725302144497400,4.504497314453125,-0.042679786682128906,-0.013490907847881317,0.023845450952649117
1733725302154459400,4.51445947265625,-0.033720117062330246,-0.011172626167535782,0.0144205242395401
1733725302164421400,4.52442138671875,-0.03539223223924637,0.002642751671373844,0.011172154918313026
1733725302174382300,4.53438232421875,-0.041629888117313385,0.017305584624409676,0.017899032682180405
1733725302184344600,4.544344482421875,-0.05502837896347046,0.018785793334245682,0.02460923232138157
1733725302194306300,4.554306396484375,-0.06116244196891785,0.007624219171702862,0.012024197727441788
1733725302204267300,4.564267333984375,-0.05756191909313202,-0.016171826049685478,-0.007912770844995975
1733725302214229200,4.574229248046875,-0.0448213554918766,-0.03508026525378227,-0.030081190168857574
1733725302224191500,4.58419140625,-0.034178830683231354,-0.048396605998277664,-0.03624081611633301
1733725302234152200,4.594152099609375,-0.027071654796600342,-0.04926373064517975,-0.02609257400035858
1733725302244114400,4.604114501953125,-0.02425548993051052,-0.034740693867206573,-0.010177426040172577
1733725302254076400,4.614076416015625,-0.02407998777925968,-0.020193178206682205,-0.006291875150054693
1733725302264037400,4.624037353515625,-0.025300953537225723,-0.007398134563118219,-0.013653993606567383
1733725302273999400,4.633999267578125,-0.030723150819540024,0.004754135385155678,-0.031246569007635117
1733725302283961300,4.64396142578125,-0.038399264216423035,0.01744600012898445,-0.05288570374250412
1733725302293922300,4.65392236328125,-0.04202568903565407,0.017896339297294617,-0.06866387277841568
1733725302303884300,4.66388427734375,-0.03821392357349396,0.011725685559213161,-0.07278864830732346
1733725302313846300,4.67384619140625,-0.030815929174423218,0.0082598477602005,-0.06258900463581085
1733725302323807500,4.683807373046875,-0.018108325079083443,0.010821131989359856,-0.03643348067998886
1733725302333769200,4.693769287109375,-0.007499623578041792,0.01788143813610077,-0.008217556402087212
1733725302343731500,4.7037314453125,0.0040876781567931175,0.025115517899394035,0.018531134352087975
1733725302353692400,4.7136923828125,0.012251597829163074,0.02646547369658947,0.034066952764987946
1733725302363654400,4.723654296875,0.01884322613477707,0.021247630938887596,0.039961569011211395
1733725302373616400,4.733616455078125,0.021776698529720306,0.013713015243411064,0.031468749046325684
1733725302383577300,4.743577392578125,0.021758226677775383,0.011442655697464943,0.01826690137386322
1733725302393539300,4.753539306640625,0.0262009110301733,0.012236012145876884,0.005530866328626871
1733725302403501300,4.763501220703125,0.03578021004796028,0.01946847327053547,0.001597720431163907
1733725302413462500,4.773462646484375,0.04138403385877609,0.017027419060468674,0.007356806192547083
1733725302423424500,4.783424560546875,0.04621407389640808,0.026161909103393555,0.018154336139559746
1733725302433386200,4.79338623046875,0.047020476311445236,0.026594674214720726,0.023405024781823158
1733725302443347500,4.803347412109375,0.04470711946487427,0.026098888367414474,0.026182495057582855
1733725302453309200,4.81330908203125,0.0394444465637207,0.018955757841467857,0.02073952555656433
1733725302463271400,4.823271484375,0.03176789730787277,0.01840200647711754,0.01798452064394951
1733725302473232400,4.833232421875,0.024923838675022125,0.010374174453318119,0.012608664110302925
1733725302483194400,4.8431943359375,0.019560642540454865,0.00647605350241065,0.01020050048828125
1733725302493156400,4.85315625,0.010857434011995792,0.000001909211277961731,0.006707498338073492
1733725302503117300,4.863117431640625,-0.0015212581492960453,-0.0036408258602023125,0.005740028340369463
1733725302513079300,4.873079345703125,-0.00863189809024334,-0.0033321650698781013,-0.0026350808329880238
1733725302523041500,4.88304150390625,-0.02195219323039055,-0.0012176637537777424,-0.013390917330980301
1733725302533002500,4.89300244140625,-0.03128337860107422,-0.005015597213059664,-0.019685298204421997
1733725302542964500,4.902964599609375,-0.03758712857961655,-0.0015272623859345913,-0.020625567063689232
1733725302552926200,4.91292626953125,-0.0442330464720726,-0.0009027509950101376,-0.016847873106598854
1733725302562887400,4.922887451171875,-0.048015046864748,0.00015291385352611542,-0.013033708557486534
1733725302572849200,4.93284912109375,-0.04993598535656929,-0.0034002759493887424,-0.011897070333361626
1733725302582811400,4.942811279296875,-0.05046012997627258,-0.00800270214676857,-0.014346254989504814
1733725302592772600,4.952772705078125,-0.04876928776502609,-0.011862155050039291,-0.014553714543581009
1733725302602734300,4.962734375,-0.04914550110697746,-0.004847237840294838,-0.015993762761354446
1733725302612696300,4.9726962890625,-0.044474851340055466,-0.004264538176357746,-0.012065599672496319
1733725302622657300,4.9826572265625,-0.0423293337225914,0.00015182560309767723,-0.012820752337574959
1733725302632619300,4.992619384765625,-0.03432360664010048,0.0019555846229195595,-0.007287770044058561
1733725302642581500,5.00258154296875,-0.02709621749818325,-0.0031176661141216755,-0.005503494292497635
1733725302652542500,5.01254248046875,-0.021660439670085907,-0.009947873651981354,-0.004494422115385532
1733725302662504400,5.02250439453125,-0.01982710137963295,-0.01194300688803196,-0.005113271996378899
1733725302672466200,5.032466064453125,-0.014335930347442627,-0.012536093592643738,-0.0034863464534282684
1733725302682427400,5.042427490234375,-0.006995599251240492,-0.008660022169351578,-0.006118285469710827
1733725302692389400,5.052389404296875,-0.0033151106908917427,-0.006808592937886715,-0.003597869537770748
1733725302702351400,5.062351318359375,-0.004651309922337532,-0.006950958166271448,-0.006075065117329359
1733725302712312600,5.0723125,0.0012627718970179558,-0.011425334960222244,-0.00239537563174963
1733725302722274300,5.0822744140625,0.0021923454478383064,-0.005183975677937269,0.00048446841537952423
1733725302732236300,5.092236328125,0.007622797042131424,-0.005025251302868128,-0.000530994962900877
1733725302742197200,5.102197265625,0.014015181921422482,-0.00809055007994175,0.0030653378926217556
1733725302752159200,5.1121591796875,0.017695937305688858,-0.000003329012542963028,0.00027913879603147507
1733725302762121500,5.12212158203125,0.01840350031852722,0.003132455050945282,0.004330360796302557
1733725302772083200,5.132083251953125,0.02014121413230896,0.007035051006823778,0.0035974588245153427
1733725302782044400,5.14204443359375,0.01800604723393917,0.008430550806224346,0.006564759649336338
1733725302792006100,5.152006103515625,0.014985490590333939,0.011765094473958015,0.0008988846093416214
1733725302801968400,5.161968505859375,0.01375812292098999,0.011299004778265953,-0.003987862262874842
1733725302811929300,5.171929443359375,0.012712566182017326,0.011590620502829552,-0.005253929179161787
1733725302821891300,5.181891357421875,0.01292332075536251,0.013916846364736557,-0.0036216098815202713
1733725302831853300,5.191853271484375,0.012365121394395828,0.012325607240200043,0.0022136422339826822
1733725302841814300,5.201814208984375,0.006730353459715843,0.011517131701111794,0.011493640951812267
1733725302851776300,5.2117763671875,0.005693318322300911,0.0061074523255229,0.010681376792490482
1733725302861738500,5.221738525390625,0.004599760752171278,0.013105051591992378,0.002396730473265052
1733725302871699500,5.231699462890625,0.001578670460730791,0.028861643746495247,-0.007163485512137413
1733725302881661400,5.241661376953125,-0.003290570806711912,0.043693818151950836,-0.021364636719226837
1733725302891623200,5.251623046875,-0.0024423538707196712,0.04804542288184166,-0.023411009460687637
1733725302901584400,5.26158447265625,-0.0008960212580859661,0.043079495429992676,-0.015497470274567604
1733725302911546400,5.27154638671875,0.005654556211084127,0.03812228888273239,-0.004662665538489819
1733725302921508400,5.28150830078125,0.006241919938474894,0.03444170206785202,0.007638680748641491
1733725302931469600,5.291469482421875,0.008295217528939247,0.018826790153980255,0.004633303731679916
1733725302941431300,5.301431396484375,0.009043952450156212,0.008897905237972736,-0.0013585155829787254
1733725302951393300,5.311393310546875,0.006471338681876659,0.0005321172066032887,-0.011468940414488316
1733725302961354200,5.321354248046875,0.0070107378996908665,-0.00216780137270689,-0.017393682152032852
1733725302971316200,5.331316162109375,0.013616442680358887,-0.005984644405543804,-0.011346708983182907
1733725302981278500,5.341278564453125,0.018228771165013313,0.0006072120741009712,-0.008250784128904343
1733725302991239400,5.351239501953125,0.018784040585160255,0.012942708097398281,-0.007427601609379053
1733725303001201400,5.361201416015625,0.01452422235161066,0.023647665977478027,-0.009033942595124245
1733725303011163400,5.371163330078125,0.012063461355865002,0.027021624147892,-0.009513311088085175
1733725303021124400,5.381124267578125,0.007678694557398558,0.015402230434119701,-0.0003356225788593292
1733725303031086300,5.39108642578125,0.0007584709674119949,0.007549101486802101,0.012346350587904453
1733725303041048300,5.40104833984375,-0.005761407315731049,0.014655382372438908,0.026621971279382706
1733725303051009500,5.411009521484375,-0.023318029940128326,0.027622314170002937,0.033895596861839294
1733725303060971300,5.42097119140625,-0.041530705988407135,0.04091689735651016,0.041353218257427216
1733725303070933200,5.430933349609375,-0.06981267780065536,0.028340917080640793,0.046214550733566284
1733725303080894500,5.44089453125,-0.09126130491495132,-0.009603733196854591,0.056580860167741776
1733725303090856200,5.450856201171875,-0.09181497991085052,-0.07745415717363358,0.08909246325492859
1733725303100818400,5.460818359375,-0.0670328214764595,-0.1551077961921692,0.13672159612178802
1733725303110779400,5.470779296875,-0.03150172159075737,-0.1795649379491806,0.1794232428073883
1733725303120741400,5.480741455078125,-0.006269380915910006,-0.14384210109710693,0.17111603915691376
1733725303130703400,5.490703369140625,0.0011794804595410824,-0.10990491509437561,0.10817249864339828
1733725303140664300,5.500664306640625,-0.0008435728959739208,-0.13043375313282013,0.01897168718278408
1733725303150626300,5.510626220703125,-0.0054572331719100475,-0.1774774193763733,-0.030824895948171616
1733725303160588300,5.52058837890625,-0.00829748809337616,-0.20859792828559875,-0.02138974890112877
1733725303170549500,5.530549560546875,-0.01142856664955616,-0.1735275536775589,0.03034055605530739
1733725303180511500,5.540511474609375,-0.01858668401837349,-0.09465782344341278,0.0746098980307579
1733725303190473500,5.550473388671875,-0.014699267223477364,-0.020435791462659836,0.07433905452489853
1733725303200434700,5.5604345703125,-0.009740553796291351,0.019812144339084625,0.02729891985654831
1733725303210396400,5.570396484375,-0.006498422008007765,0.021936815232038498,-0.03222938999533653
1733725303220358700,5.580358642578125,-0.0075449347496032715,0.011975521221756935,-0.05850067734718323
1733725303230319600,5.590319580078125,-0.0015219298657029867,0.0024019903503358364,-0.049280814826488495
1733725303240281600,5.600281494140625,0.007345997728407383,0.007836203090846539,-0.027365032583475113
1733725303250243600,5.61024365234375,0.017033511772751808,0.01721132919192314,-0.007497317623347044
1733725303260204500,5.62020458984375,0.026764679700136185,0.019129706546664238,-0.00812555756419897
1733725303270166500,5.63016650390625,0.036865781992673874,0.023083169013261795,-0.01808391511440277
1733725303280128800,5.640128662109375,0.04612857848405838,0.037368688732385635,-0.027117418125271797
1733725303290089700,5.65008984375,0.058125585317611694,0.061320092529058456,-0.03316066041588783
1733725303300051700,5.6600517578125,0.06468252837657928,0.077466681599617,-0.03720701113343239
1733725303310013400,5.670013427734375,0.06612196564674377,0.08528252691030502,-0.03313849866390228
1733725303319974700,5.679974609375,0.0704624131321907,0.0796453058719635,-0.03559745103120804
1733725303329936400,5.689936279296875,0.06797102838754654,0.06279042363166809,-0.03079071454703808
1733725303339898600,5.699898681640625,0.06578289717435837,0.06143571063876152,-0.02282828278839588
1733725303349859800,5.70985986328125,0.05783015862107277,0.06926433742046356,-0.01463879644870758
1733725303359821600,5.719821533203125,0.05484370142221451,0.08094274997711182,-0.007452220655977726
1733725303369783600,5.729783447265625,0.05117626115679741,0.08712634444236755,-0.0031421612948179245
1733725303379744500,5.73974462890625,0.04597816616296768,0.08526184409856796,0.0009281164966523647
1733725303389706500,5.74970654296875,0.0384608618915081,0.06907089054584503,-0.004851742181926966
1733725303399668700,5.759668701171875,0.026668604463338852,0.053657837212085724,-0.004939108155667782
1733725303409629700,5.769629638671875,0.020560376346111298,0.03671400621533394,-0.00589278619736433
1733725303419591700,5.779591796875,0.011061846278607845,0.0257656779140234,-0.006679974962025881
1733725303429553400,5.789553466796875,0.0013130796141922474,0.03028293140232563,-0.008333265781402588
1733725303439514600,5.7995146484375,-0.0013933731243014336,0.03030562587082386,-0.007179447449743748
1733725303449476600,5.8094765625,-0.012003673240542412,0.023913772776722908,-0.008507566526532173
1733725303459438600,5.8194384765625,-0.023119982331991196,0.02388761006295681,-0.008141790516674519
1733725303469399800,5.82939990234375,-0.03619503974914551,0.021196752786636353,-0.011393509805202484
1733725303479361500,5.839361572265625,-0.04546205699443817,0.011926712468266487,-0.017173439264297485
1733725303489323500,5.849323486328125,-0.05346006155014038,0.012369861826300621,-0.017361458390951157
1733725303499284500,5.859284423828125,-0.05869570001959801,0.01243926864117384,-0.024443132802844048
1733725303509246500,5.86924658203125,-0.061037153005599976,0.012622227892279625,-0.031042976304888725
1733725303519208700,5.879208740234375,-0.061189115047454834,0.0035199422854930162,-0.03481891751289368
1733725303529169700,5.889169677734375,-0.055767182260751724,-0.006990489084273577,-0.024439513683319092
1733725303539131600,5.899131591796875,-0.05011485517024994,-0.01719796285033226,-0.015472443774342537
1733725303549093600,5.90909375,-0.04271020367741585,-0.017233116552233696,-0.003648274578154087
1733725303559054600,5.9190546875,-0.035338908433914185,-0.011506637558341026,0.006064990069717169
1733725303569016600,5.9290166015625,-0.029976896941661835,-0.00245854863896966,0.008573421277105808
1733725303578978600,5.938978515625,-0.025191543623805046,0.006733526010066271,0.005124046932905912
1733725303588939800,5.948939697265625,-0.022785112261772156,0.011070484295487404,-0.001674736849963665
1733725303598901500,5.958901611328125,-0.0174165740609169,0.013454567641019821,-0.005281359422951937
1733725303608863500,5.968863525390625,-0.011745639145374298,0.009077662602066994,-0.012717172503471375
1733725303618824700,5.97882470703125,-0.009173432365059853,0.01305440254509449,-0.01243827398866415
1733725303628786700,5.98878662109375,-0.002978920005261898,0.005837235599756241,-0.01147554162889719
1733725303638748700,5.998748779296875,-0.0017701860051602125,0.00007438287138938904,-0.0143838319927454
1733725303648709600,6.008709716796875,0.004079713951796293,-0.007786203641444445,-0.01252840831875801
1733725303658671600,6.018671630859375,0.008628001436591148,-0.013478288426995277,-0.011188902892172337
1733725303668633600,6.028633544921875,0.012030456215143204,-0.0191446952521801,-0.010312722064554691
1733725303678594600,6.038594482421875,0.018421584740281105,-0.021321255713701248,-0.006437704432755709
1733725303688556500,6.048556640625,0.019888985902071,-0.018172334879636765,0.0026822907384485006
1733725303698518500,6.0585185546875,0.020540446043014526,-0.00420851306989789,0.010023240000009537
1733725303708479700,6.068479736328125,0.022472303360700607,0.0063234902918338776,0.017910458147525787
1733725303718441700,6.078441650390625,0.02598622813820839,0.00932974461466074,0.023166708648204803
1733725303728403500,6.088403564453125,0.026262130588293076,0.011835779994726181,0.016184167936444283
1733725303738364700,6.09836474609375,0.025261692702770233,0.008191109634935856,0.012139723636209965
1733725303748326700,6.10832666015625,0.027008727192878723,0.007467262446880341,0.007613415364176035
1733725303758288600,6.11828857421875,0.024916473776102066,0.004305780865252018,0.003754907986149192
1733725303768249600,6.12824951171875,0.0169975645840168,0.00910000316798687,0.0040137674659490585
1733725303778211600,6.138211669921875,0.009074494242668152,0.012557657435536385,0.0026584418956190348
1733725303788173600,6.148173583984375,-0.003472988260909915,0.014533456414937973,-0.0015490860678255558
1733725303798134500,6.158134521484375,-0.008728759363293648,0.013477806001901627,-0.0061251032166182995
1733725303808096800,6.1680966796875,-0.009058458730578423,0.012602957896888256,-0.0029985522851347923
1733725303818058800,6.178058837890625,-0.01589907892048359,0.005457128398120403,-0.001226857304573059
1733725303828019700,6.188019775390625,-0.012513136491179466,-0.009853651747107506,0.005125580821186304
1733725303837981700,6.197981689453125,-0.006611296441406012,-0.02732992172241211,0.0031873672269284725
1733725303847943400,6.207943359375,-0.006181728560477495,-0.030622120946645737,-0.0033786562271416187
1733725303857904600,6.217904541015625,-0.006016788072884083,-0.0181791502982378,-0.011496580205857754
1733725303867866600,6.22786669921875,-0.0014952728524804115,-0.0022688936442136765,-0.010039565153419971
1733725303877828600,6.23782861328125,0.0011983062140643597,0.0029311231337487698,-0.007746002171188593
1733725303887789800,6.247789794921875,0.0013229423202574253,-0.0019986541010439396,0.0012256545014679432
1733725303897751600,6.25775146484375,0.007530338130891323,-0.008231708779931068,0.01014693547040224
1733725303907713500,6.267713623046875,0.008860853500664234,-0.0066713630221784115,0.014745947904884815
1733725303917674500,6.277674560546875,0.015230692923069,-0.004350532311946154,0.01476797554641962
1733725303927636700,6.28763671875,0.01758732460439205,-0.005118854809552431,0.013567156158387661
1733725303937598700,6.2975986328125,0.01586906984448433,-0.014058440923690796,0.009471285156905651
1733725303947559700,6.3075595703125,0.00913846306502819,-0.015459796413779259,0.012096096761524677
1733725303957521700,6.317521728515625,0.005798617377877235,-0.0073110200464725494,0.018698446452617645
1733725303967483600,6.327483642578125,0.003616156056523323,0.0015389309264719486,0.016339950263500214
1733725303977444600,6.337444580078125,-0.001407588366419077,0.008459234610199928,0.007774402387440205
1733725303987406800,6.34740673828125,-0.007948045618832111,0.0019928133115172386,-0.0006992435082793236
1733725303997368600,6.35736865234375,-0.010132737457752228,-0.0016675079241394997,-0.012610722333192825
1733725304007329800,6.367329833984375,-0.013177262619137764,-0.0065227169543504715,-0.02003188617527485
1733725304017291500,6.37729150390625,-0.011939674615859985,-0.0046267020516097546,-0.01878918707370758
1733725304027253500,6.38725341796875,-0.013402283191680908,0.002082599326968193,-0.01638861373066902
1733725304037214500,6.39721435546875,-0.015187866054475307,0.004356525372713804,-0.008078666403889656
1733725304047176700,6.4071767578125,-0.01570851355791092,0.00918483640998602,-0.0034290538169443607
1733725304057138700,6.417138671875,-0.010053697973489761,0.006275972817093134,-0.008510567247867584
1733725304067099600,6.427099609375,-0.008049136959016323,0.0027115982957184315,-0.014493891969323158
1733725304077061600,6.4370615234375,-0.005575069226324558,0.002641368191689253,-0.023691952228546143
1733725304087023600,6.447023681640625,0.0013004140928387642,-0.00048571545630693436,-0.029728539288043976
1733725304096984600,6.456984619140625,0.010086365044116974,-0.001640958245843649,-0.02231205627322197
1733725304106946800,6.46694677734375,0.016994072124361992,-0.005991498474031687,-0.012435724958777428
1733725304116908500,6.476908447265625,0.02312570810317993,-0.0067819575779139996,-0.0026369942352175713
1733725304126869800,6.486869873046875,0.02794070541858673,-0.008220331743359566,0.00793468952178955
1733725304136831500,6.49683154296875,0.02658599615097046,-0.009180520661175251,0.007246172986924648
1733725304146793700,6.506793701171875,0.022098304703831673,-0.007607124745845795,0.006061599124222994
1733725304156754700,6.516754638671875,0.015261802822351456,-0.007564970757812262,-0.0027564349584281445
1733725304166716700,6.526716552734375,0.010451867245137691,-0.003270890098065138,-0.003210504539310932
1733725304176678700,6.5366787109375,0.0036185290664434433,-0.003860931843519211,0.0015843336004763842
1733725304186639600,6.5466396484375,-0.004630079958587885,-0.004915277473628521,0.009397782385349274
1733725304196600600,6.5566005859375,-0.007288164459168911,-0.001063433475792408,0.01629517413675785
1733725304206562800,6.566562744140625,-0.012878406792879105,-0.00802706740796566,0.009542196057736874
1733725304216523500,6.5765234375,-0.01510098110884428,-0.007743098307400942,0.0008179056458175182
1733725304226485800,6.58648583984375,-0.016289815306663513,-0.004760890733450651,-0.0065350825898349285
1733725304236447500,6.596447509765625,-0.01760910451412201,-0.003077161032706499,-0.011931203305721283
1733725304246408700,6.60640869140625,-0.017025871202349663,-0.0024585085920989513,-0.010215860791504383
1733725304256370400,6.616370361328125,-0.0143202506005764,-0.006144669372588396,-0.0073713092133402824
1733725304266332700,6.626332763671875,-0.009818442165851593,-0.004883662331849337,0.0007031289860606194
1733725304276293600,6.636293701171875,-0.0032334262505173683,-0.00014700135216116905,0.007232555188238621
1733725304286255600,6.646255615234375,-0.0022176967468112707,-0.001242625992745161,0.0067763556726276875
1733725304296217600,6.656217529296875,-0.002016170881688595,-0.000908970832824707,-0.0005322759971022606
1733725304306178600,6.666178466796875,-0.0005977712571620941,-0.0009164270013570786,-0.0003338702954351902
1733725304316140500,6.676140625,0.002008347772061825,-0.0020704446360468864,-0.0011679180897772312
1733725304326102800,6.686102783203125,0.0032232818193733692,0.002870784606784582,0.0025796822737902403
1733725304336063700,6.696063720703125,0.005054954905062914,0.0031805038452148438,0.006080660969018936
1733725304346025700,6.706025634765625,0.007190810050815344,0.0012853983789682388,0.004976514261215925
1733725304355987500,6.715987548828125,0.006162587553262711,0.002079591155052185,0.0014790920540690422
1733725304365948700,6.72594873046875,0.0011987215839326382,-0.0027596387080848217,-0.005240861792117357
1733725304375910700,6.73591064453125,0.002647846005856991,0.00014647888019680977,-0.005145560950040817
1733725304385871600,6.74587158203125,0.0011034789495170116,-0.00010625505819916725,-0.006640393286943436
1733725304395833900,6.755833740234375,-0.0017621445003896952,0.008617277257144451,-0.004846266936510801
1733725304405795600,6.765795654296875,0.0012594778090715408,0.014802468940615654,-0.0031258645467460155
1733725304415756800,6.7757568359375,0.0007246099412441254,0.015632571652531624,0.001199645223096013
1733725304425718500,6.785718505859375,0.001598126720637083,0.013183528557419777,-0.0009367424063384533
1733725304435680500,6.795680419921875,0.00405249884352088,0.012232443317770958,0.005810173228383064
1733725304445641700,6.805641845703125,0.004846387077122927,0.009524540975689888,0.009849390015006065
1733725304455603700,6.815603759765625,0.0036347657442092896,0.00894389022141695,0.008591074496507645
1733725304465565700,6.825565673828125,0.0074803708121180534,0.006778739858418703,0.004998204298317432
1733725304475526700,6.835526611328125,0.0073343622498214245,0.006337338592857122,0.0006395918317139149
1733725304485488600,6.845488525390625,0.007336493115872145,0.002252049744129181,-0.0035197329707443714
1733725304495450600,6.85545068359375,0.007604923099279404,0.0018727025017142296,-0.0010233568027615547
1733725304505411600,6.86541162109375,0.007500793784856796,0.0005696178413927555,0.0007191495969891548
1733725304515373800,6.875373779296875,0.006465198006480932,-0.0030767833814024925,-0.0015834253281354904
1733725304525335600,6.88533544921875,0.007619145791977644,-0.006766060367226601,-0.005515849217772484
1733725304535296800,6.895296875,0.004520415794104338,-0.00923423282802105,-0.0071868509985506535
1733725304545258800,6.9052587890625,0.0010891994461417198,-0.008341008797287941,-0.003932469058781862
1733725304555220500,6.915220458984375,-0.002118329517543316,-0.006164186168462038,-0.0010726358741521835
1733725304565181700,6.925181640625,-0.0051455446518957615,-0.003009671811014414,0.002304784720763564
1733725304575143700,6.935143798828125,-0.004766219295561314,-0.0008728653192520142,0.007367377169430256
1733725304585105700,6.945105712890625,-0.005448254756629467,0.0021325121633708477,0.008938908576965332
1733725304595066600,6.955066650390625,-0.009088302031159401,0.003907090984284878,0.006327766925096512
1733725304605028600,6.965028564453125,-0.003456515958532691,0.004099904093891382,0.0021854860242456198
1733725304614990600,6.974990478515625,-0.0015945006161928177,0.007518488448113203,0.0020357335451990366
1733725304624951600,6.98495166015625,0.0039115846157073975,0.0037320058327168226,0.0011430419981479645
1733725304634913800,6.994913818359375,0.006771969608962536,0.00256242323666811,0.0010426111984997988
1733725304644875800,7.004875732421875,0.007117647677659988,-0.0023995782248675823,0.006942312233150005
1733725304654836700,7.014836669921875,0.008301135152578354,-0.0037314603105187416,0.010091100819408894
1733725304664798700,7.024798828125,0.009737111628055573,-0.004618825390934944,0.007776813581585884
1733725304674760700,7.0347607421875,0.008427332155406475,-0.0066389902494847775,0.009211543947458267
1733725304684721700,7.0447216796875,0.008403097279369831,-0.006525006610900164,0.009943647310137749
1733725304694683600,7.05468359375,0.009200561791658401,-0.003232348244637251,0.010946625843644142
1733725304704645600,7.064645751953125,0.0066599054262042046,0.0022281971760094166,0.008260294795036316
1733725304714606800,7.07460693359375,0.004907005466520786,0.004404074512422085,0.004691356793045998
1733725304724568600,7.084568603515625,0.0013293148949742317,0.001986457034945488,-0.000481300987303257
1733725304734530600,7.094530517578125,-0.00013957172632217407,0.0010239193215966225,-0.006225708406418562
1733725304744491500,7.104491455078125,-0.0003086826764047146,-0.00010126596316695213,-0.00984068214893341
1733725304754453800,7.114453857421875,-0.003983965143561363,0.0015689493156969547,-0.002637166529893875
1733725304764415700,7.124415771484375,-0.005417278502136469,0.0036169199738651514,0.006563256029039621
1733725304774376700,7.134376708984375,-0.007071200292557478,0.005770009011030197,0.011419571004807949
1733725304784338700,7.144338623046875,-0.008223816752433777,0.006935674697160721,0.007046926766633987
1733725304794300700,7.15430078125,-0.00575990928336978,0.006963300984352827,0.0011177186388522387
1733725304804261600,7.16426171875,-0.004771610256284475,0.005306548438966274,-0.003110315650701523
1733725304814224000,7.174223876953125,-0.0053594280034303665,0.0037553287111222744,-0.0014938246458768845
1733725304824185600,7.184185546875,-0.0008794581517577171,0.0023992471396923065,0.0029661711305379868
1733725304834146800,7.194146728515625,0.001492734532803297,0.001550154760479927,0.000020745210349559784
1733725304844108500,7.204108642578125,0.004122339189052582,-0.002292254474014044,-0.004460023250430822
1733725304854069800,7.21406982421875,0.0031070513650774956,-0.0033227833919227123,-0.008589977398514748
1733725304864031500,7.224031494140625,0.002455375622957945,-0.006115907337516546,-0.007902881130576134
1733725304873993700,7.23399365234375,0.0018512550741434097,-0.0009098825976252556,-0.0017715157009661198
1733725304883954700,7.24395458984375,0.0032507460564374924,0.0014336989261209965,0.0032141883857548237
1733725304893916700,7.253916748046875,0.006116978824138641,0.00518525717779994,0.005551250651478767
1733725304903878700,7.263878662109375,0.0030655283480882645,0.0009505646303296089,0.002213777042925358
1733725304913839600,7.273839599609375,0.0028071869164705276,0.003785650245845318,-0.0008915411308407784
1733725304923801600,7.283801513671875,0.0030412785708904266,-0.00038592517375946045,-0.0018031410872936249
1733725304933763800,7.293763916015625,0.003480501938611269,0.0007502930238842964,0.004717956762760878
1733725304943724500,7.303724609375,-0.001256994903087616,-0.006919610779732466,0.005560581106692553
1733725304953686800,7.313686767578125,-0.002789577702060342,-0.007146129850298166,0.004077016841620207
1733725304963648500,7.3236484375,-0.00249130348674953,-0.0032970630563795567,-0.004242432303726673
1733725304973609700,7.333609619140625,-0.005940529517829418,-0.001519328448921442,-0.00668752146884799
1733725304983571700,7.34357177734375,-0.004609481897205114,-0.001162464264780283,-0.005427047144621611
1733725304993533700,7.35353369140625,-0.0024128067307174206,0.0005657360889017582,-0.004818822722882032
1733725305003494700,7.36349462890625,-0.004364637657999992,0.0012472388334572315,0.0004779379814863205
1733725305013456600,7.37345654296875,-0.0038691144436597824,0.004427966196089983,0.002608278300613165
1733725305023418600,7.383418701171875,-0.001059745904058218,-0.0013305870816111565,0.0026327793020755053
1733725305033379600,7.393379638671875,0.0009412011131644249,0.0032284026965498924,0.003054920583963394
1733725305043341600,7.403341552734375,-0.0007200785912573338,0.002594037912786007,-0.0009291684255003929
1733725305053303800,7.4133037109375,0.0016403328627347946,0.001325574703514576,-0.0005302163772284985
1733725305063264500,7.423264404296875,0.0038377074524760246,-0.0016611609607934952,0.0009664802346378565
1733725305073226800,7.433226806640625,0.0004256400279700756,-0.004905457142740488,-0.0011955797672271729
1733725305083188700,7.443188720703125,0.0022901189513504505,-0.0023877047933638096,0.001505664549767971
1733725305093149700,7.453149658203125,0.0009125377982854843,-0.0025670905597507954,0.0010018493048846722
1733725305103111700,7.463111572265625,0.00029601622372865677,0.00018022628501057625,-0.0005371915176510811
1733725305113073700,7.47307373046875,-0.000571954995393753,0.00211733253672719,0.0017739508766680956
1733725305123034600,7.48303466796875,-0.0007392014376819134,0.0006462023593485355,-0.0018447525799274445
1733725305132996600,7.49299658203125,-0.0019854451529681683,0.0007404009811580181,-0.0008942405693233013
1733725305142958600,7.50295849609375,-0.002585988026112318,0.0008964622393250465,-0.0008183405734598637
1733725305152919800,7.512919921875,-0.004250022582709789,0.0007168129086494446,-0.00042571360245347023
1733725305162881500,7.522881591796875,-0.00458291731774807,0.00006673531606793404,-0.000733574852347374
1733725305172843800,7.53284375,-0.00046904897317290306,0.0030981735326349735,-0.0010908176191151142
1733725305182804500,7.542804443359375,-0.0034557839389890432,0.0026054885238409042,-0.003345449920743704
1733725305192767200,7.552767333984375,-0.0016021868214011192,0.00019015837460756302,-0.006532274652272463
1733725305202728000,7.56272802734375,0.00002100970596075058,-0.0001746946945786476,-0.0019031679257750511
1733725305212690200,7.572690185546875,-0.002548620104789734,0.00010493258014321327,-0.001574790570884943
1733725305222652200,7.582652099609375,0.000636786688119173,0.0017528967000544071,-0.0019036908634006977
1733725305232613000,7.592613037109375,-0.0032399327028542757,0.0013673538342118263,-0.002031572163105011
1733725305242575000,7.6025751953125,-0.001944038551300764,0.003203869331628084,-0.0015306314453482628
1733725305252537000,7.612537109375,-0.002897693542763591,0.002356484066694975,-0.0022849729284644127
1733725305262498000,7.622498046875,-0.0021448179613798857,0.002893111202865839,-0.0063705286011099815
1733725305272460300,7.632460205078125,-0.0018119227606803179,0.0007953392341732979,-0.003551306203007698
1733725305282422000,7.642422119140625,-0.001901937648653984,-0.003182358108460903,-0.006827260367572308
1733725305292383200,7.65238330078125,0.0008682906627655029,0.00022215023636817932,-0.00633187685161829
1733725305302345000,7.662344970703125,0.001604388002306223,0.002719662617892027,-0.000055339187383651733
1733725305312307200,7.67230712890625,0.0002270471304655075,0.001487763598561287,0.0015249301213771105
1733725305322268000,7.682267822265625,0.0041823736391961575,0.0016824407503008842,0.0013190675526857376
1733725305332230100,7.692230224609375,0.003848201595246792,0.0005383430980145931,0.0030048578046262264
1733725305342192000,7.702192138671875,0.0010641328990459442,0.0031839273869991302,0.0021518475841730833
1733725305352153000,7.712153076171875,0.002537592314183712,0.0022388584911823273,0.0011403628159314394
1733725305362115000,7.722114990234375,0.004136554431170225,-0.0015239221975207329,0.004404332954436541
1733725305372077300,7.732077392578125,0.000402968842536211,0.0025408505462110043,0.0010908031836152077
1733725305382038000,7.7420380859375,0.0007422557100653648,0.003790139453485608,-0.0004730047658085823
1733725305392000300,7.752000244140625,0.0013659605756402016,0.0025079031474888325,-0.0047340989112854
1733725305401962000,7.7619619140625,0.00004130415618419647,0.001505755353718996,-0.005092826671898365
1733725305411923200,7.771923095703125,0.0005988245829939842,0.0038891357835382223,-0.0025931159034371376
1733725305421885000,7.781885009765625,0.0009644762612879276,0.0007969397120177746,-0.00009160861372947693
1733725305431846100,7.79184619140625,-0.001560138538479805,-0.0020838812924921513,-0.000495565589517355
1733725305441808100,7.80180810546875,-0.0030216812156140804,-0.0036263843066990376,-0.0021845423616468906
1733725305451770000,7.81177001953125,-0.003475538454949856,-0.0017523127608001232,-0.0029579326510429382
1733725305461731000,7.82173095703125,-0.004578353837132454,-0.0022457963787019253,-0.004609092138707638
1733725305471693000,7.831693115234375,-0.005545425228774548,-0.0011760448105633259,-0.008578892797231674
1733725305481655000,7.841655029296875,-0.008149463683366776,-0.001182702835649252,-0.005401475355029106
1733725305491616000,7.851615966796875,-0.005153450183570385,-0.00605796417221427,-0.00513966241851449
1733725305501578000,7.861577880859375,-0.003906558267772198,-0.004809740465134382,-0.0025326935574412346
1733725305511540200,7.871540283203125,-0.0029313925188034773,-0.006157794501632452,-0.004401853773742914
1733725305521501200,7.881501220703125,-0.0013223106507211924,-0.007669138256460428,-0.0015261722728610039
1733725305531463200,7.891463134765625,-0.004242619965225458,-0.003133048303425312,-0.005436992738395929
1733725305541425200,7.901425048828125,-0.00012430734932422638,0.002243874128907919,-0.0063688321970403194
1733725305551386000,7.91138623046875,0.000007792375981807709,0.00307364109903574,-0.0014978745020925999
1733725305561348000,7.92134814453125,0.0022586961276829243,0.0014634937979280949,0.00020761368796229362
1733725305571310000,7.93131005859375,0.0064878263510763645,0.0017233737744390965,0.0036576399579644203
1733725305581271300,7.941271240234375,0.007825000211596489,0.0008671674877405167,0.003768161404877901
1733725305591233000,7.95123291015625,0.006521855480968952,0.0006283586844801903,0.0040261754766106606
1733725305601195000,7.961195068359375,0.007399367168545723,-0.0011088214814662933,0.0000657886266708374
1733725305611156200,7.97115625,0.006894324906170368,0.000342334620654583,0.0021901968866586685
1733725305621118000,7.981117919921875,0.004205863922834396,0.005411395337432623,0.002468230901286006
1733725305631079200,7.9910791015625,0.004110286943614483,0.0021378020755946636,0.000030517578125
1733725305641041200,8.001041259765625,0.0015347437001764774,0.0004935665056109428,0.00025795167312026024
1733725305651003100,8.011003173828126,-0.0005975808016955853,-0.001051220577210188,-0.002167041879147291
1733725305660964000,8.020964111328125,-0.0017352830618619919,-0.002225675154477358,0.0016583229880779982
1733725305670926000,8.030926025390626,-0.0015793968923389912,-0.003071608953177929,-0.0020296992734074593
1733725305680888000,8.04088818359375,-0.002406841143965721,-0.0015533408150076866,0.0018294872716069221
1733725305690849000,8.05084912109375,-0.0028308401815593243,-0.00042899278923869133,0.0008722399361431599
1733725305700811300,8.060811279296875,-0.001164766727015376,0.001314844936132431,-0.0030854837968945503
1733725305710773200,8.070773193359376,-0.0028022213373333216,0.0010446496307849884,-0.0006970944814383984
1733725305720734200,8.080734130859375,-0.0022876986768096685,-0.000007831957191228867,0.0002331477589905262
1733725305730696200,8.0906962890625,0.00022427085787057877,-0.0013311193324625492,0.00008439458906650543
1733725305740658000,8.100657958984375,0.0010599708184599876,-0.0020949137397110462,-0.00022027082741260529
1733725305750619100,8.110619140625,0.002522706054151058,-0.00402219919487834,0.0013931768480688334
1733725305760581000,8.1205810546875,0.0015535815618932247,-0.0001441040076315403,0.0014475053176283836
1733725305770543000,8.130543212890625,0.0014684507623314857,-0.0009839166887104511,0.0009268054272979498
1733725305780504300,8.14050439453125,0.0018546092323958874,-0.0039205835200846195,-0.003247699700295925
1733725305790466000,8.150466064453125,0.0017399322241544724,0.0009298422373831272,0.0009036080446094275
1733725305800428000,8.160427978515624,0.005312828812748194,0.0006688525900244713,0.0018399753607809544
1733725305810389000,8.170388916015625,0.0031552771106362343,0.001954043749719858,0.0012856654357165098
1733725305820351200,8.180351318359374,0.0036732619628310204,-0.0028241993859410286,0.0010028376709669828
1733725305830313200,8.190313232421875,-0.00043556932359933853,0.0010400451719760895,-0.0027476875111460686
1733725305840274200,8.200274169921874,0.00027602724730968475,-0.0014252429828047752,-0.003127986565232277
1733725305850236200,8.210236083984375,-0.0016635945066809654,0.0008569443598389626,-0.0001329313963651657
1733725305860197000,8.220197021484376,-0.0037975856103003025,0.004903084598481655,-0.0001675523817539215
1733725305870159000,8.2301591796875,-0.0015418315306305885,0.006059154402464628,-0.00022453628480434418
1733725305880121300,8.240121337890624,-0.0035674315877258778,0.0025760061107575893,0.0028263807762414217
1733725305890082000,8.25008203125,-0.0017428158316761255,0.0006568930111825466,-0.0016622240655124187
1733725305900044300,8.260044189453126,-0.0034781317226588726,-0.0019303676672279835,-0.0017836643382906914
1733725305910006000,8.270006103515625,-0.0014043983537703753,-0.0005682706832885742,-0.0017656353302299976
1733725305919967200,8.27996728515625,-0.0008784239180386066,0.0015393546782433987,-0.003877256065607071
1733725305929929000,8.289928955078125,-0.0014086368028074503,-0.0007147104479372501,-0.005078474525362253
1733725305939891200,8.29989111328125,-0.0020254249684512615,-0.005003997590392828,-0.005241726990789175
1733725305949852200,8.30985205078125,0.0005010934546589851,-0.003422647248953581,-0.0005456414073705673
1733725305959814100,8.319814208984376,0.0025168401189148426,-0.0010742717422544956,-0.00003458093851804733
1733725305969776000,8.329776123046875,0.00032603321596980095,-0.0007146317511796951,0.004340536892414093
1733725305979737000,8.339737060546875,0.0012538782320916653,-0.00024218671023845673,0.0012523354962468147
1733725305989699000,8.349698974609375,0.001366431824862957,0.0021479222923517227,-0.0006155651062726974
1733725305999661300,8.359661376953126,0.0015238244086503983,0.0029657790437340736,-0.0013039922341704369
1733725306009622000,8.3696220703125,-0.0019185745622962713,0.0035470756702125072,0.0027067919727414846
1733725306019584300,8.379584228515625,0.0017555225640535355,0.0045380378141999245,0.0017384665552526712
1733725306029546000,8.3895458984375,-0.001076051965355873,0.004470121115446091,-0.0025774752721190453
1733725306039507200,8.399507080078125,0.0002171788364648819,0.0005571381188929081,-0.003652859479188919
1733725306049469200,8.40946923828125,-0.000911567360162735,-0.000275974627584219,-0.004740453790873289
1733725306059430100,8.41943017578125,-0.001474293414503336,0.0024758693762123585,-0.0019475971348583698
1733725306069392100,8.42939208984375,-0.0004685926251113415,0.006302185356616974,0.004086516331881285
1733725306079354000,8.43935400390625,-0.0002659261226654053,-0.0017717201262712479,0.0014502531848847866
1733725306089315000,8.449315185546874,-0.00021269731223583221,0.0043189809657633305,-0.002826415468007326
1733725306099277000,8.459277099609375,-0.001987694064155221,-0.0027895281091332436,-0.007258714642375708
1733725306109239000,8.469239013671874,0.00013142498210072517,0.0007946924306452274,-0.005287507548928261
1733725306119200300,8.4792001953125,0.0003300970420241356,0.005217936355620623,0.000583164393901825
1733725306129162000,8.489161865234376,-0.000655896496027708,0.0029405150562524796,-0.0004974701441824436
1733725306139124200,8.499124267578125,-0.0005264668725430965,0.00026457104831933975,-0.0012703193351626396
1733725306149085000,8.5090849609375,0.0007319189608097076,0.0010380391031503677,-0.0038451114669442177
1733725306159047200,8.519047119140625,0.00015294784680008888,0.0009307139553129673,-0.002866665832698345
1733725306169009200,8.529009033203126,0.0008558966219425201,0.0007245372980833054,-0.003488886170089245
1733725306178970000,8.53897021484375,0.0024396786466240883,-0.0000642905943095684,-0.0019064359366893768
1733725306188932000,8.54893212890625,0.0032662604935467243,0.0034828551579266787,0.0002986174076795578
1733725306198894000,8.55889404296875,0.00281991483643651,0.0029313145205378532,0.0007795845158398151
1733725306208855000,8.56885498046875,0.002869056072086096,0.00041564833372831345,0.0012833497021347284
1733725306218817300,8.5788173828125,0.002346011344343424,-0.0006762477569282055,0.0013227646704763174
1733725306228778200,8.5887783203125,-0.0016481904312968254,0.0007753651589155197,-0.002532657701522112
1733725306238740200,8.598740234375,-0.001220486592501402,0.0024145408533513546,-0.0004687081091105938
1733725306248702000,8.608701904296876,-0.005173822864890099,0.004449242260307074,0.0007215635851025581
1733725306258663200,8.6186630859375,-0.002292549004778266,0.0006433185189962387,0.00046004122123122215
1733725306268625000,8.628625,-0.0015675320755690336,0.000506439246237278,0.0015266339760273695
1733725306278587100,8.638587158203125,-0.0019488967955112457,-0.003274184186011553,0.0005575097166001797
1733725306288548400,8.64854833984375,-0.00010141171514987946,-0.002039213664829731,0.001702639739960432
1733725306298510000,8.658510009765624,-0.0030117142014205456,-0.0004903189837932587,-0.00012482143938541412
1733725306308472000,8.66847216796875,-0.0026032074820250273,0.0016620075330138206,0.0031491604167968035
1733725306318433000,8.67843310546875,-0.001170959323644638,0.001315264031291008,-0.0020288238301873207
1733725306328395000,8.68839501953125,-0.00019268924370408058,0.0010696062818169594,-0.002669923473149538
1733725306338357200,8.698357177734374,-0.0031336178071796894,0.0021202233619987965,-0.0027591390535235405
1733725306348318200,8.708318115234375,0.004265723749995232,-0.0015316535718739033,-0.0020317574962973595
1733725306358280200,8.7182802734375,0.0033205682411789894,-0.0002674511633813381,0.0006844005547463894
1733725306368242000,8.728241943359375,0.0038919146172702312,-0.0018966947682201862,0.002893185243010521
1733725306378203100,8.738203125,0.0027906973846256733,0.00032784370705485344,0.004004788585007191
1733725306388165000,8.7481650390625,0.0026143589057028294,-0.0003679306246340275,0.0021254820749163628
1733725306398127000,8.758127197265624,0.0035270247608423233,0.002422263380140066,0.0056983791291713715
1733725306408088300,8.76808837890625,0.004063574597239494,0.0007289880886673927,-0.0009982571937143803
1733725306418050000,8.778050048828124,0.00001903250813484192,-0.0007043248042464256,-0.0010978593491017818
1733725306428011300,8.78801123046875,0.0008853874169290066,-0.0018218210898339748,-0.0026724417693912983
1733725306437973000,8.797972900390626,-0.0027386420406401157,0.0007776906713843346,-0.0018095774576067924
1733725306447935200,8.807935302734375,-0.0034849578514695168,0.0032791192643344402,-0.0004545208066701889
1733725306457896200,8.817896240234376,-0.0030972016975283623,0.006113788112998009,0.0018589671235531569
1733725306467858200,8.827858154296875,-0.0020087400916963816,0.005283118225634098,0.002110782079398632
1733725306477820200,8.837820068359376,-0.005654607899487019,0.0011126077733933926,-0.0006053759716451168
1733725306487781000,8.847781005859375,-0.0016512339934706688,0.0034382808953523636,-0.0015592863783240318
1733725306497743000,8.8577431640625,-0.0041402243077754974,0.004771193023771048,0.003788607195019722
1733725306507705000,8.867705078125,-0.004920198582112789,0.0045250291004776955,0.005699201487004757
1733725306517666000,8.877666015625,-0.005733528174459934,0.00474660424515605,0.008840134367346764
1733725306527628300,8.887628173828125,-0.00945387315005064,0.001266005914658308,0.006128160282969475
1733725306537590000,8.897590087890626,-0.013515726663172245,-0.00382116436958313,-0.00434152502566576
1733725306547551200,8.90755126953125,-0.021695997565984726,-0.007944008335471153,-0.015429060906171799
1733725306557513200,8.91751318359375,-0.028851643204689026,-0.0165321696549654,-0.02801329642534256
1733725306567474200,8.92747412109375,-0.029537605121731758,-0.013501383364200592,-0.04695308208465576
1733725306577436200,8.937436279296875,-0.026384955272078514,0.016995806246995926,-0.04773738235235214
1733725306587398100,8.947398193359374,-0.0254988856613636,0.021883133798837662,-0.030353683978319168
1733725306597359000,8.957359130859375,-0.01749608665704727,0.00989731028676033,-0.010005535557866096
1733725306607321000,8.967321044921874,-0.008917421102523804,0.015566535294055939,0.0035016736947000027
1733725306617283000,8.977282958984375,-0.00647450378164649,0.0059416042640805244,0.0051102228462696075
1733725306627244300,8.987244384765624,-0.003065783530473709,-0.01319005899131298,-0.003714799415320158
1733725306637206000,8.9972060546875,0.0030645467340946198,-0.017852988094091415,-0.013916036114096642
1733725306647168300,9.007168212890624,0.003222423605620861,-0.008785257115960121,-0.01773844286799431
1733725306657129000,9.01712890625,0.0067809391766786575,-0.0027452069334685802,-0.01666705310344696
1733725306667091200,9.02709130859375,0.006437286268919706,-0.004016606602817774,-0.011321820318698883
1733725306677053200,9.03705322265625,0.006275899242609739,-0.009861445054411888,-0.009634973481297493
1733725306687014100,9.04701416015625,0.008486231788992882,-0.012175353243947029,-0.011033855378627777
1733725306696976100,9.05697607421875,0.006008959375321865,-0.008972102776169777,-0.017594553530216217
1733725306706938000,9.066938232421874,0.0052591958083212376,-0.009630130603909492,-0.024102140218019485
1733725306716899000,9.076899169921875,0.0017486163415014744,-0.010438399389386177,-0.026279807090759277
1733725306726861300,9.086861328125,-0.0003358609974384308,-0.0022220592945814133,-0.023540057241916656
1733725306736822000,9.096822021484375,-0.00490158423781395,-0.0017775772139430046,-0.012914576567709446
1733725306746784300,9.1067841796875,-0.008032557554543018,-0.0003676959313452244,-0.0012448742054402828
1733725306756746000,9.11674609375,-0.003472426440566778,0.0025972016155719757,0.009494056925177574
1733725306766707200,9.126707275390626,-0.0015673290472477674,0.011228728108108044,0.021383367478847504
1733725306776669000,9.1366689453125,-0.00044454028829932213,0.010969070717692375,0.017069846391677856
1733725306786631200,9.146631103515626,-0.0008847382850944996,0.008863881230354309,0.0073717874474823475
1733725306796592000,9.156592041015625,-0.004582537338137627,0.0004786527715623379,-0.006366661749780178
1733725306806554000,9.16655419921875,-0.006185837555676699,-0.0032530040480196476,-0.013085135258734226
1733725306816516000,9.17651611328125,-0.004471294581890106,-0.005267951171845198,-0.010191611014306545
1733725306826477000,9.18647705078125,-0.003820911282673478,-0.004278440028429031,-0.002254920080304146
1733725306836439000,9.19643896484375,-0.002348715905100107,-0.004643293097615242,0.0034343907609581947
1733725306846401300,9.2064013671875,0.001608021091669798,-0.0000544227659702301,0.0020896263886243105
1733725306856362000,9.216362060546874,0.0019483733922243118,-0.002745280507951975,-0.0033767777495086193
1733725306866324200,9.22632421875,0.0012681749649345875,-0.005459812935441732,-0.013233017176389694
1733725306876285200,9.23628515625,0.0018591308034956455,-0.007918443530797958,-0.015235980972647667
1733725306886247200,9.2462470703125,0.0044371746480464935,-0.010379198007285595,-0.00539160892367363
1733725306896209200,9.256209228515624,0.005582867190241814,-0.008671046234667301,0.007410205900669098
1733725306906170000,9.266170166015625,0.009552119299769402,-0.004769215825945139,0.012903625145554543
1733725306916132000,9.276132080078124,0.007158737163990736,0.002430107444524765,0.011100132018327713
1733725306926094000,9.286093994140625,0.003098171204328537,0.0003751292824745178,0.0009010734502226114
1733725306936055300,9.29605517578125,0.0009319563396275043,0.0014252141118049622,-0.007482025306671858
1733725306946017000,9.30601708984375,0.00019815657287836075,0.0060190376825630665,-0.00859703216701746
1733725306955979000,9.31597900390625,0.0002892366610467434,-0.0031166700646281242,-0.0012195436283946037
1733725306965940200,9.325940185546875,0.0010560126975178719,-0.005955540109425783,0.0012097612489014864
1733725306975902200,9.335902099609376,0.0015945034101605415,-0.006919337902218103,0.00399356335401535
1733725306985864200,9.3458642578125,0.0017071189358830452,-0.005598568823188543,-0.0022325552999973297
1733725306995825200,9.3558251953125,-0.0005065007135272026,-0.0025399276055395603,-0.002767052035778761
1733725307005787100,9.365787109375,0.003015559632331133,-0.001790282316505909,-0.007597082760185003
1733725307015749000,9.3757490234375,-0.0015352503396570683,0.005296389106661081,-0.004187969956547022
1733725307025710000,9.3857099609375,0.0016232198104262352,0.005553444381803274,-0.004228611476719379
1733725307035672000,9.395672119140626,0.001687934622168541,0.005084461532533169,0.0002692011184990406
1733725307045633000,9.405633056640625,-0.0009642485529184341,-0.0003840886056423187,0.002592547796666622
1733725307055595300,9.41559521484375,-0.001873185159638524,0.0005554743111133575,0.0019158385694026947
1733725307065557000,9.425556884765625,0.0002481406554579735,0.002678459510207176,0.00038430746644735336
1733725307075518200,9.435518310546875,-0.000005125999450683594,0.00386782712303102,0.0003491537645459175
1733725307085480200,9.445480224609375,0.00245033111423254,0.002977039199322462,-0.0013034963048994541
1733725307095442200,9.455442138671875,0.0016010492108762264,0.00009203655645251274,-0.0014361217617988586
1733725307105403100,9.465403076171874,0.0018770433962345123,-0.0005783946253359318,-0.0006188740953803062
1733725307115365000,9.475365234375,0.0003664987161755562,-0.0008154162205755711,0.0011678405571728945
1733725307125327000,9.4853271484375,0.0015013478696346283,-0.0036939894780516624,-0.00017613917589187622
1733725307135288300,9.495288330078125,0.0027314620092511177,-0.0015570688992738724,-0.001101854257285595
1733725307145250000,9.50525,0.001992190256714821,-0.0009895088151097298,0.00001731468364596367
1733725307155212300,9.51521240234375,0.0017844638787209988,-0.0018728794530034065,-0.0009251781739294529
1733725307165173000,9.525173095703124,0.0005127275362610817,-0.004774694796651602,-0.001481096725910902
1733725307175135200,9.53513525390625,-0.00013521965593099594,0.00012099416926503181,0.0013612951152026653
1733725307185097200,9.54509716796875,-0.0030255550518631935,0.00431048683822155,0.0024811180774122477
1733725307195058700,9.55505859375,-0.002280136337503791,0.002725373487919569,0.0039921957068145275
1733725307205020700,9.565020751953124,-0.000410247128456831,0.0026283953338861465,0.003700999077409506
1733725307214981600,9.574981689453125,-0.0013093303423374891,0.003525348147377372,0.0021401201374828815
1733725307224943600,9.584943603515624,-0.0006014220416545868,0.0038727151695638895,0.0013587023131549358
1733725307234905600,9.594905517578125,0.0017504156567156315,-0.002812618389725685,-0.0025425623171031475
1733725307244866600,9.604866455078126,0.0047130580060184,-0.0024994825944304466,-0.0022467919625341892
1733725307254828800,9.614828857421875,0.0038930713199079037,-0.002360997721552849,-0.0007381108589470387
1733725307264790500,9.62479052734375,0.00487100426107645,-0.004946616478264332,-0.0007715574465692043
1733725307274751700,9.634751708984375,0.008161871694028378,0.0006795777007937431,0.001857515424489975
1733725307284713500,9.64471337890625,0.006821040995419025,0.0011265645734965801,0.00011828495189547539
1733725307294675700,9.65467578125,0.00546682346612215,0.002560943365097046,0.0007744878530502319
1733725307304636700,9.66463671875,0.010515637695789337,0.0010648537427186966,0.008658207021653652
1733725307314598700,9.6745986328125,0.007639689836651087,0.0021634073927998543,0.01264176331460476
1733725307324560600,9.684560546875,0.00833815336227417,0.0030809054151177406,0.010816013440489769
1733725307334521600,9.694521484375,0.005770333576947451,0.0010044388473033905,0.005211923271417618
1733725307344483600,9.704483642578126,0.0025953329168260098,0.0007413630373775959,0.0005730725824832916
1733725307354445600,9.714445556640625,-0.002031643409281969,-0.0004144487902522087,-0.0008216244168579578
1733725307364406500,9.724406494140625,-0.000921573955565691,-0.001453697681427002,0.004646687302738428
1733725307374368800,9.73436865234375,-0.0032534380443394184,0.0032097636722028255,0.00807524099946022
1733725307384330500,9.74433056640625,-0.007206739857792854,0.00399406161159277,0.005966021679341793
1733725307394291700,9.754291748046874,-0.010083487257361412,0.00285263080149889,-0.004149196669459343
1733725307404253700,9.764253662109375,-0.011709241196513176,0.0021943002939224243,-0.010967426002025604
1733725307414214700,9.774214599609374,-0.011364361271262169,-0.00036206794902682304,-0.014772551134228706
1733725307424176600,9.7841767578125,-0.00811039935797453,-0.00427831569686532,-0.006325236521661282
1733725307434138600,9.794138671875,-0.010452915914356709,-0.0050383820198476315,0.0011883394327014685
1733725307444099600,9.804099609375,-0.004017597064375877,-0.005841333884745836,0.005051794461905956
1733725307454061600,9.8140615234375,-0.0030250372365117073,-0.0049451799131929874,0.005262184422463179
1733725307464023600,9.8240234375,0.0037999721243977547,0.0011314027942717075,-0.002642771229147911
1733725307473984800,9.83398486328125,0.005022096447646618,-0.0022140596993267536,-0.002679789438843727
1733725307483946500,9.843946533203125,0.0063642109744250774,0.00017067790031433105,-0.002276123035699129
1733725307493908700,9.85390869140625,0.008693678304553032,-0.0014871405437588692,-0.0008097863756120205
1733725307503869400,9.863869384765625,0.00653983186930418,-0.0028891717083752155,0.004146957769989967
1733725307513831700,9.873831787109374,0.006374982185661793,-0.0021653245203197002,0.0051922486163675785
1733725307523793700,9.883793701171875,0.006972119212150574,0.001180395483970642,0.00472593680024147
1733725307533754600,9.893754638671876,0.008276269771158695,0.002592936158180237,0.0012513105757534504
1733725307543716600,9.903716552734375,0.003897028975188732,0.006179070565849543,-0.002148701809346676
1733725307553678600,9.9136787109375,0.0028799674473702908,0.0053811874240636826,-0.0013633356429636478
1733725307563639600,9.9236396484375,0.00223491620272398,0.005123707465827465,-0.000976544339209795
1733725307573601800,9.933601806640626,0.0016863048076629639,-0.00011446373537182808,0.0027742518577724695
1733725307583562500,9.9435625,0.000991998240351677,-0.005056269001215696,0.004606663249433041
1733725307593524700,9.953524658203126,-0.00293722958303988,-0.006198498886078596,-0.0019596265628933907
1733725307603486500,9.963486572265625,-0.0018534709233790636,-0.0009013470262289047,-0.001780858263373375
1733725307613447700,9.97344775390625,-0.004489733837544918,0.0019812583923339844,-0.0043151224963366985
1733725307623409400,9.983409423828125,-0.00404457189142704,0.0012959027662873268,-0.004114124458283186
1733725307633371600,9.99337158203125,-0.002170771826058626,-0.000315043143928051,0.00015971669927239418
1733725307643332600,10.00333251953125,-0.002682540100067854,-0.003595372661948204,0.001009188825264573
1733725307653294600,10.013294677734375,0.001872264314442873,-0.001772172749042511,0.0009101193863898516
1733725307663256600,10.023256591796875,0.0023454236797988415,0.0010854382999241352,0.000276932492852211
1733725307673217500,10.033217529296875,-0.00020961277186870575,0.0031749545596539974,-0.0008602375164628029
1733725307683179500,10.043179443359374,0.0006301659159362316,0.00246145436540246,-0.003049468155950308
1733725307693141800,10.053141845703125,0.0023340564221143723,0.0014726226218044758,-0.002030809409916401
1733725307703102500,10.0631025390625,0.0010740235447883606,0.0002854992635548115,0.0021038244012743235
1733725307713064700,10.073064697265625,0.005820042919367552,-0.0011510099284350872,0.005116126034408808
1733725307723026400,10.0830263671875,0.0019518709741532803,-0.0011343872174620628,0.0035185767337679863
1733725307732987600,10.092987548828125,0.0006964565254747868,0.0019002845510840416,0.0004897639155387878
1733725307742949600,10.10294970703125,0.00074794702231884,0.00193825364112854,-0.002678409218788147
1733725307752911600,10.11291162109375,-0.0002776365727186203,0.0010788515210151672,-0.004422779195010662
1733725307762872600,10.12287255859375,-0.0023405062966048717,-0.0019557038322091103,-0.0017363769002258778
1733725307772834600,10.13283447265625,-0.0011748408433049917,0.0010491409339010715,0.0003528730012476444
1733725307782795800,10.142795654296876,-0.003079639282077551,-0.001221739687025547,0.002451980719342828
1733725307792757500,10.152757568359375,-0.0010084989480674267,-0.0040063401684165,-0.0023853848688304424
1733725307802719500,10.162719482421876,-0.001618840266019106,0.000017369631677865982,-0.0000790618360042572
1733725307812680700,10.1726806640625,-0.0019719754345715046,0.00220728712156415,-0.0033574136905372143
1733725307822642700,10.182642578125,0.0014813258312642574,-0.0005107810720801353,-0.0015803962014615536
1733725307832604700,10.192604736328125,-0.0018042160663753748,0.002569430973380804,0.0009147194214165211
1733725307842565600,10.202565673828126,-0.0008724601939320564,0.003015283029526472,0.0031212614849209785
1733725307852527600,10.212527587890625,-0.00017657596617937088,0.00022668717429041862,0.0029103392735123634
1733725307862489600,10.222489501953126,-0.0008150199428200722,0.00028345268219709396,0.002744803437963128
1733725307872450600,10.232450439453125,-0.0005542966537177563,0.0025026644580066204,0.0026151074562221766
1733725307882412800,10.242412841796876,-0.0014029131270945072,0.00502044428139925,0.0010468971449881792
1733725307892374500,10.25237451171875,0.0004916596226394176,0.0023857788182795048,-0.00149855250492692
1733725307902335700,10.262335693359375,-0.0008911523036658764,0.0003614332526922226,-0.002096125390380621
1733725307912297700,10.272297607421875,0.0009363088756799698,-0.006367309484630823,0.00014572357758879662
1733725307922258700,10.2822587890625,0.0012031574733555317,-0.005243721883744001,0.0007467991672456264
1733725307932220700,10.292220703125,0.0018798667006194592,-0.00040049711242318153,0.0027937048580497503
1733725307942182700,10.3021826171875,0.002955931704491377,0.0003553982824087143,0.004616586957126856
1733725307952143600,10.3121435546875,0.001840067096054554,0.003272358560934663,0.001589372055605054
1733725307962105600,10.322105712890625,0.002697058953344822,0.004972933791577816,0.0009738416410982609
1733725307972067600,10.332067626953124,0.002937808632850647,-0.0001762881875038147,-0.0031378124840557575
1733725307982028800,10.34202880859375,0.0023091137409210205,0.0021747848950326443,-0.0010577673092484474
1733725307991990500,10.351990478515624,0.0018001836724579334,0.0018911585211753845,-0.001968834549188614
1733725308001952800,10.361952880859375,0.0030933013185858727,-0.0007538218051195145,0.0007169311866164207
1733725308011913500,10.37191357421875,0.003943649120628834,0.00018787197768688202,0.0009217285551130772
1733725308021875700,10.381875732421875,0.004921688232570887,0.004088384099304676,0.0017050688620656729
1733725308031837700,10.391837646484374,0.0014763567596673965,0.008755307644605637,0.003418546635657549
1733725308041798700,10.401798583984375,0.002908409107476473,0.006000110413879156,0.0016002205666154623
1733725308051760600,10.4117607421875,0.0019177133217453957,0.0024360017850995064,0.0007109912112355232
1733725308061722600,10.42172265625,0.0005657551810145378,0.0033521633595228195,-0.0008923704735934734
1733725308071683600,10.43168359375,0.001942343544214964,-0.0007325927726924419,0.001768393674865365
1733725308081645800,10.441645751953125,0.002038248348981142,0.0008626030758023262,0.001372259110212326
1733725308091606500,10.4516064453125,0.0020406455732882023,-0.0024349228478968143,0.006360093131661415
1733725308101568800,10.46156884765625,-0.0005731484852731228,-0.0026431046426296234,0.004936060402542353
1733725308111530500,10.471530517578126,-0.0021782356780022383,-0.0007341504096984863,0.003912873566150665
1733725308121491700,10.48149169921875,-0.0016844857018440962,-0.002243364229798317,0.0010590304154902697
1733725308131453400,10.491453369140626,-0.0036783942487090826,-0.001666523516178131,-0.003662753850221634
1733725308141415700,10.501415771484375,-0.000554064754396677,-0.003923970740288496,-0.002145740669220686
1733725308151376600,10.511376708984375,-0.0012100015301257372,-0.003955929074436426,-0.0015324149280786514
1733725308161338600,10.521338623046875,-0.00030907662585377693,-0.003918152302503586,-0.0002632606774568558
1733725308171300600,10.531300537109376,0.0006073168478906155,-0.0024446258321404457,0.0013953561428934336
1733725308181261600,10.541261474609374,0.0024174973368644714,-0.004232972860336304,0.0033031227067112923
1733725308191223600,10.5512236328125,0.0005420991219580173,-0.0025397352874279022,-0.0010317047126591206
1733725308201185800,10.561185791015625,-0.001454692566767335,0.0013777930289506912,-0.00021012919023633003
1733725308211146500,10.571146484375,0.001852154266089201,0.0016875187866389751,0.0008633909747004509
1733725308221108700,10.581108642578124,0.0016664997674524784,0.004931881092488766,0.0012413766235113144
1733725308231070500,10.591070556640625,0.002845747396349907,0.0020335628651082516,0.003961529582738876
1733725308241031700,10.60103173828125,0.002550591714680195,0.0029832120053470135,0.0038199988193809986
1733725308250993700,10.61099365234375,0.0014429828152060509,-0.0006075277924537659,0.0004497682675719261
1733725308260954600,10.62095458984375,0.0037997616454958916,0.002233942039310932,-0.0003545754589140415
1733725308270916600,10.63091650390625,0.0011837389320135117,0.0007465668022632599,0.0017389354761689901
1733725308280878600,10.640878662109374,-0.00007228506729006767,-0.001929944846779108,0.0011614449322223663
1733725308290839600,10.650839599609375,0.003014585003256798,-0.002188271377235651,0.00141657586209476
1733725308300801500,10.660801513671874,0.0016182754188776016,-0.0012610764242708683,0.0016572531312704086
1733725308310763500,10.670763427734375,0.003455057740211487,0.0019283252768218517,-0.00043279584497213364
1733725308320724700,10.680724853515626,0.002839355729520321,0.0011384743265807629,0.0028683017008006573
1733725308330686500,10.6906865234375,0.004223134834319353,0.0021704495884478092,0.0006267190910875797
1733725308340648700,10.700648681640626,0.003785570152103901,0.0013201767578721046,0.0037023669574409723
1733725308350609700,10.710609619140625,0.003785836510360241,0.0016578654758632183,0.0038142194971442223
1733725308360571600,10.720571533203126,0.0031077247112989426,0.0002564014866948128,0.00494252098724246
1733725308370533600,10.73053369140625,0.004053679294884205,0.001770142000168562,-0.0010738261044025421
1733725308380494600,10.74049462890625,-0.0002316194586455822,0.0013249358162283897,0.0011248430237174034
1733725308390456600,10.75045654296875,0.002863239962607622,-0.000647667795419693,-0.0009665372781455517
1733725308400417500,10.76041748046875,0.0014759786427021027,-0.000606166198849678,0.000871200580149889
1733725308410379800,10.7703798828125,0.003725816961377859,-0.0004306640475988388,0.0029854844324290752
1733725308420341800,10.780341796875,0.004131668247282505,0.0034592989832162857,0.0016237376257777214
1733725308430302700,10.790302734375,0.0017012674361467361,0.00013647275045514107,0.001908696023747325
1733725308440264700,10.8002646484375,0.0023832861334085464,-0.0024938294664025307,0.00161170051433146
1733725308450226400,10.810226318359375,-0.0010740295983850956,-0.004635277204215527,0.0009613565634936094
1733725308460187600,10.820187744140625,0.00007348088547587395,-0.0009497492574155331,0.0019821543246507645
1733725308470149600,10.830149658203124,0.002732114866375923,-0.002839794848114252,0.0030008135363459587
1733725308480111600,10.840111572265625,0.0018712058663368225,-0.00046143913641572,0.0007477030158042908
1733725308490072800,10.85007275390625,0.0015705353580415249,0.0007761316373944283,0.00006726523861289024
1733725308500034600,10.86003466796875,0.0016150102019309998,0.0033604633063077927,0.0005927067250013351
1733725308509996500,10.86999658203125,0.0014490950852632523,0.0004235291853547096,0.004528859164565802
1733725308519957500,10.87995751953125,0.0007894085720181465,0.000560373067855835,0.0019848982337862253
1733725308529919700,10.889919677734374,0.00018833298236131668,-0.001812503207474947,0.0036339275538921356
1733725308539880400,10.89988037109375,0.001562055665999651,0.003970719408243895,0.0003413748927414417
1733725308549842700,10.9098427734375,0.0006296825595200062,0.0007517565973103046,-0.002930318471044302
1733725308559804700,10.9198046875,-0.00006608571857213974,0.0011019553057849407,-0.000531340017914772
1733725308569765600,10.929765625,-0.0029452291782945395,-0.0015979576855897903,-0.0020639891736209393
1733725308579727600,10.9397275390625,0.0005621672607958317,-0.007306589744985104,0.0034083472564816475
1733725308589689900,10.94968994140625,-0.0012330696918070316,-0.004218388348817825,0.0029446911066770554
1733725308599650600,10.959650634765625,-0.0011996678076684475,-0.0010939841158688068,0.002521529793739319
1733725308609612800,10.96961279296875,0.0017833388410508633,0.0006583756767213345,0.0013470756821334362
1733725308619574500,10.979574462890625,-0.0023192823864519596,-0.0002402709797024727,0.00522135104984045
1733725308629535700,10.98953564453125,-0.0004963488318026066,-0.002432318404316902,0.004569143056869507
1733725308639497500,10.99949755859375,-0.0023562354035675526,-0.0036124512553215027,0.005579056218266487
1733725308649459700,11.009459716796876,0.0015913681127130985,-0.004156801849603653,0.004526308737695217
1733725308659420700,11.019420654296875,0.0004088473506271839,-0.002693162765353918,0.0022047143429517746
1733725308669382700,11.029382568359376,0.0010472070425748825,-0.0003831367939710617,0.002389537636190653
1733725308679344600,11.0393447265625,0.0017154915258288383,0.0039046327583491802,0.0033018970862030983
1733725308689305600,11.0493056640625,0.0027203019708395004,0.005237012170255184,0.008374419994652271
1733725308699267600,11.059267578125,-0.0031596203334629536,-0.0017859027720987797,0.010305291973054409
1733725308709228500,11.069228515625,-0.006179911084473133,-0.0017675268463790417,0.009883446618914604
1733725308719190500,11.0791904296875,-0.003777396399527788,0.0024360409006476402,0.011662822216749191
1733725308729152800,11.08915283203125,-0.007753762416541576,0.012818108312785625,0.013657528907060623
1733725308739113500,11.099113525390624,-0.005025900434702635,0.017968811094760895,0.00795829202979803
1733725308749075700,11.10907568359375,-0.00597691535949707,0.018011154606938362,-0.0011893995106220245
1733725308759037700,11.11903759765625,-0.0022131328005343676,0.007195608224719763,-0.009785860776901245
1733725308768998700,11.12899853515625,0.0027187750674784184,-0.006119397934526205,-0.009923014789819717
1733725308778960600,11.138960693359374,0.004282372538000345,-0.006434192415326834,0.0031041125766932964
1733725308788922600,11.148922607421875,0.004534307401627302,-0.013112600892782211,0.013764480128884315
1733725308798883600,11.158883544921874,0.008329320698976517,-0.01383199542760849,0.009630491025745869
1733725308808845600,11.168845458984375,0.008360745385289192,-0.003738615196198225,-0.0002511679194867611
1733725308818807600,11.1788076171875,0.0067404150031507015,-0.0006183730438351631,-0.009345907717943192
1733725308828768800,11.188768798828125,0.006903400178998709,-0.0038554449565708637,-0.00676477188244462
1733725308838730500,11.19873046875,0.004820962902158499,-0.004264969378709793,-0.004252377897500992
1733725308848691700,11.208691650390625,0.003071265760809183,-0.005787499248981476,0.005964573007076979
1733725308858653400,11.2186533203125,0.0029983166605234146,-0.006957648321986198,0.009986055083572865
1733725308868615700,11.22861572265625,0.00209603738039732,-0.0056652165949344635,0.006068279035389423
1733725308878576600,11.23857666015625,0.0023191324435174465,-0.002228973899036646,0.002599394880235195
1733725308888538600,11.24853857421875,-0.0010010302066802979,-0.00037221750244498253,0.00039083510637283325
1733725308898500600,11.25850048828125,0.00044221431016921997,0.00455812644213438,-0.0022256039083003998
1733725308908461600,11.268461669921875,-0.003065168857574463,0.004247868433594704,-0.004171309527009726
1733725308918423600,11.278423583984376,-0.0068418048322200775,0.0013075461611151695,-0.003512213472276926
1733725308928385800,11.2883857421875,-0.010190196335315704,-0.0029449895955622196,-0.0070883058942854404
1733725308938346800,11.2983466796875,-0.009766649454832077,0.0017722728662192822,-0.007337048649787903
1733725308948308700,11.308308837890625,-0.007853701710700989,0.0009930320084095001,-0.013986694626510143
1733725308958270500,11.3182705078125,-0.006754595786333084,0.0007267631590366364,-0.01643988862633705
1733725308968231700,11.328231689453125,-0.0032418861519545317,0.0012324973940849304,-0.014746651984751225
1733725308978193400,11.338193359375,-0.0021944064646959305,-0.003968136850744486,-0.009416060522198677
1733725308988154600,11.348154541015624,-0.0010047722607851028,-0.0064810956828296185,0.0017929172609001398
1733725308998116600,11.35811669921875,0.007990866899490356,-0.0007333424873650074,0.006785617675632238
1733725309008078600,11.36807861328125,0.007819624617695808,0.004181521479040384,0.005115549545735121
1733725309018039800,11.378039794921875,0.006696640979498625,0.004688429180532694,-0.002353471703827381
1733725309028001500,11.38800146484375,0.006528862286359072,0.002246310468763113,-0.0035734656266868114
1733725309037963500,11.397963623046875,0.0030922279693186283,-0.002850866410881281,-0.0016069109551608562
1733725309047924500,11.407924560546874,0.004995055962353945,0.001204595435410738,0.0045982543379068375
1733725309057886700,11.41788671875,0.003756023943424225,-0.0008314838632941246,0.0069329626858234406
1733725309067848700,11.4278486328125,-0.00037906598299741745,0.003493489231914282,0.003238092875108123
1733725309077809700,11.4378095703125,-0.004223981406539679,0.006901068147271872,-0.0017369934357702732
1733725309087771600,11.447771728515624,-0.0017003698740154505,0.006028084084391594,-0.004859017673879862
1733725309097733600,11.457733642578125,-0.0027596657164394855,0.001295582391321659,0.0002825167030096054
1733725309107694600,11.467694580078126,-0.0018288909923285246,-0.0012642480432987213,0.0035145292058587074
1733725309117656800,11.47765673828125,-0.0020607933402061462,0.0003879615105688572,0.0046226754784584045
1733725309127617500,11.487617431640626,-0.003095165127888322,-0.0010794401168823242,-0.0018317615613341331
1733725309137579800,11.497579833984375,-0.003835621289908886,-0.004326711408793926,-0.0051321773789823055
1733725309147541500,11.50754150390625,-0.006431937217712402,-0.0032159071415662766,-0.0032991240732371807
1733725309157502700,11.517502685546875,-0.00637048901990056,-0.0014492729678750038,-0.002633147407323122
1733725309167464700,11.527464599609376,-0.007124163676053286,-0.0035132234916090965,0.00019539613276720047
1733725309177426700,11.5374267578125,-0.0040214778855443,-0.0022612623870372772,0.0005810195580124855
1733725309187387600,11.5473876953125,-0.002675782423466444,-0.0017874864861369133,-0.0016049030236899853
1733725309197348900,11.557348876953125,-0.0008158842101693153,0.000025915447622537613,0.0016635679639875889
1733725309207310800,11.567310791015625,0.0008592442609369755,-0.0008084531873464584,0.0024071226362138987
1733725309217271800,11.577271728515624,0.005623414181172848,0.005613849498331547,0.001451266696676612
1733725309227233800,11.58723388671875,0.004560812376439571,0.00792227778583765,-0.0015796772204339504
1733725309237196000,11.597196044921875,0.005932762287557125,0.0026559438556432724,-0.003367223311215639
1733725309247156700,11.60715673828125,0.004236062057316303,0.0005842708051204681,-0.003439927939325571
1733725309257119000,11.617118896484374,0.006824947893619537,-0.0009409487247467041,0.0006068916991353035
1733725309267080000,11.627079833984375,0.003091994673013687,0.0006388388574123383,0.007849091663956642
1733725309277042000,11.6370419921875,0.0019170986488461494,0.005611912347376347,0.007347275502979755
1733725309287003600,11.647003662109375,0.003594623412936926,0.00876669306308031,0.00010720593854784966
1733725309296964900,11.65696484375,-0.0000810832716524601,0.007073068991303444,-0.006230657920241356
1733725309306926800,11.6669267578125,0.00004222104325890541,0.005202464759349823,-0.006630931049585342
1733725309316888800,11.676888916015624,0.00046424753963947296,-0.00404665432870388,0.001815397059544921
1733725309326850000,11.68685009765625,-0.0005331062711775303,-0.005421111360192299,0.009799021296203136
1733725309336811800,11.696811767578126,-0.0025868206284940243,-0.00010184943675994873,0.015735013410449028
1733725309346773800,11.706773681640625,-0.003392160404473543,0.0036292392760515213,0.0027715445030480623
1733725309356734700,11.716734619140626,-0.004840347915887833,0.005916032940149307,-0.00730542978271842
1733725309366697000,11.726697021484375,-0.007466757204383612,0.004229985177516937,-0.011090314015746117
1733725309376658000,11.736657958984376,-0.006743968464434147,-0.0012005395255982876,-0.0077658542431890965
1733725309386620000,11.746619873046875,-0.001687691081315279,-0.006150290835648775,-0.0002354998141527176
1733725309396582000,11.756581787109376,-0.005224004853516817,-0.002350147347897291,0.004160273354500532
1733725309406542800,11.76654296875,-0.0022106380201876163,-0.004475882742553949,0.002276886021718383
1733725309416504800,11.7765048828125,-0.0065743387676775455,-0.005083813332021236,0.003725613234564662
1733725309426466800,11.786466796875,-0.0013311074580997229,-0.0014304891228675842,0.002633983502164483
1733725309436427800,11.796427734375,-0.00028736889362335205,0.003308625891804695,0.0025503509677946568
1733725309446390000,11.80639013671875,-0.001014411449432373,-0.0012706797569990158,-0.000012675300240516663
1733725309456351700,11.816351806640625,0.0024070735089480877,-0.0010009994730353355,0.003124578157439828
1733725309466313000,11.82631298828125,0.002567395567893982,-0.004795471206307411,-0.0003250143490731716
1733725309476275000,11.83627490234375,0.0008382401429116726,-0.001541724894195795,0.00521960249170661
1733725309486237000,11.84623681640625,0.0026057795621454716,-0.0026131137274205685,0.0036483376752585173
1733725309496198000,11.856197998046875,0.004020560532808304,-0.0047341203317046165,0.0037607578560709953
