time,seconds_elapsed,z,y,x
1733515989633444900,0.01844482421875,0.029155951857566833,-0.11146832436323165,0.18523615588545797
1733515989643521800,0.028521728515625,0.1823226065263152,-0.043002106380462646,0.294769712793827
1733515989653598700,0.0385986328125,0.2701888137668371,-0.055993105378746987,0.4454214620321989
1733515989663676000,0.048676025390625,0.2920870495811105,-0.01443359902203083,0.5393102905631065
1733515989673752800,0.0587529296875,0.2719283509105444,0.10494213746488093,0.43671267039775846
1733515989683831000,0.0688310546875,0.17714608067125082,0.08560089265704154,0.3164221571534872
1733515989693908000,0.078907958984375,0.09804375625327229,-0.06215630418360233,0.257790519964695
1733515989703985000,0.08898486328125,0.04419511555731296,-0.17720716320872307,0.285963306003809
1733515989714062000,0.09906201171875,0.002908288662135601,-0.4768021042019128,0.3420855907201767
1733515989724139000,0.109138916015625,-0.016367781955003737,-0.4520692294836044,0.4019412167459726
1733515989734216000,0.1192158203125,-0.042681934515386814,-0.303630480119586,0.1299140816360712
1733515989744294000,0.1292939453125,-0.025464842254668472,-0.12088555652797221,-0.032383097210526464
1733515989754370800,0.139370849609375,-0.02784896091222763,0.08224865961968898,-0.16933599144220352
1733515989764448000,0.149447998046875,-0.05172039649561047,0.20554244633316993,-0.23175416143238542
1733515989774525000,0.15952490234375,-0.1443563023559749,0.09223989228010177,-0.18474924915134905
1733515989784601900,0.169601806640625,-0.2804050873547792,-0.08794073378145695,-0.07681494413316249
1733515989794679800,0.1796796875,-0.359417395401746,-0.1735848810583353,0.1690402233660221
1733515989804757000,0.189757080078125,-0.3368699018985033,0.005178279420733452,0.39975218226909637
1733515989814834000,0.199833984375,-0.26129472869336606,0.27661913907527924,0.48785541313588615
1733515989824910800,0.209910888671875,-0.20265067041441798,0.44628830799460406,0.392572499898076
1733515989834987800,0.21998779296875,-0.2507559451527893,0.5199176078289747,0.07844049950838089
1733515989845065700,0.230065673828125,-0.4009663803644478,0.15290391207933424,-0.3851362124174833
1733515989855143000,0.240142822265625,-0.46344665580540895,-0.4867214406698942,-0.6929290729135275
1733515989865219800,0.2502197265625,-0.339012320754677,-1.0646879173636437,-0.758820471972227
1733515989875296800,0.260296875,-0.16374503956735134,-1.7661837430924177,-0.47261663521081204
1733515989885373400,0.27037353515625,-0.03539294655099511,-1.7447843967109917,-0.2894523171633482
1733515989895450400,0.280450439453125,0.07431888953372835,-2.2436627236425877,-0.007493862886726856
1733515989905528300,0.2905283203125,0.15760112998485565,-2.614372935822606,0.23101357219815252
1733515989915605200,0.300605224609375,0.19129355622828007,-2.5847084499210116,0.7868509269312024
1733515989925682400,0.310682373046875,0.15450857079699634,-2.063551071164012,1.5554402209848164
1733515989935759400,0.32075927734375,-0.004120733191817999,-1.961376060324907,2.0123080829218027
1733515989945836300,0.330836181640625,-0.0895714037232101,-2.295519752129912,2.0308894492730496
1733515989955914500,0.34091455078125,0.004264525576680898,-2.651168004256487,2.013688139103353
1733515989965991400,0.350991455078125,0.08385901742577552,-3.2439638012915846,1.8366791288152335
1733515989976068600,0.361068603515625,0.20870865527912974,-3.637732817497849,1.6804633157089353
1733515989986145500,0.3711455078125,0.37753508976399897,-4.0233974377036095,1.5657666769489644
1733515989996222500,0.381222412109375,0.5197200394302607,-4.4403269647449255,1.221875205850601
1733515990006300400,0.391300537109375,0.6769361156202852,-4.510412308362126,0.8638742531180381
1733515990016377300,0.40137744140625,0.9794335000567138,-3.868585061654448,0.40290947725623844
1733515990026454500,0.41145458984375,0.8209681544579565,-2.354039161115885,-0.43734249273389575
1733515990036531500,0.421531494140625,0.7107062832750379,0.9317091874599456,-1.5827347628846764
1733515990046608400,0.4316083984375,0.5577122086942196,4.935317052066326,-2.356186402277648
1733515990056685600,0.441685546875,0.36731633195802565,8.263053946065902,-2.102969473838806
1733515990066763500,0.451763427734375,0.04285188425481319,10.549589012229442,-1.6609157346740364
1733515990076840400,0.46184033203125,-0.8288016976278275,11.529734021556377,-0.9034273880884051
1733515990086917400,0.47191748046875,-1.8878584041714668,10.4927851749897,-0.2099791136063635
1733515990096994300,0.481994384765625,-2.6337007366269827,6.700235305267572,0.19481486222222447
1733515990107071500,0.492071533203125,-2.3045992767728865,2.2573685929119587,0.4929973060689866
1733515990117149400,0.5021494140625,-1.2583575550734996,-0.19641396798193453,0.787209531110525
1733515990127226400,0.512226318359375,-0.19026012152731417,-1.307221831485629,0.9500285418741404
1733515990137303300,0.52230322265625,0.7347353205729276,-1.7280746694505214,1.0841665248155594
1733515990147380500,0.53238037109375,1.3613982428312301,-1.6416168677031993,1.040671666482091
1733515990157457400,0.54245751953125,1.4948703092098234,-1.2871820830196141,0.8143485901877283
1733515990167535400,0.552535400390625,1.1719202115923166,-0.8480775490492581,0.5146271002054215
1733515990177612300,0.5626123046875,0.5958008240699768,-0.42732817145884033,0.231980663664639
1733515990187689200,0.572689208984375,0.027811405380815266,-0.10595569842159748,0.012331073784828185
1733515990197766400,0.582766357421875,-0.3468899222619831,0.15425532668828965,-0.1771852436378598
1733515990207843300,0.59284326171875,-0.4352117643155157,0.3697100952267647,-0.37338410756438967
1733515990217921500,0.602921630859375,-0.3912995573528111,0.39865094302892684,-0.5759487071305514
1733515990227998500,0.61299853515625,-0.36077407070770856,0.3345458428651094,-0.7735097993209957
1733515990238075400,0.623075439453125,-0.4449455881487578,0.2932464487493038,-0.9098737877488136
1733515990248152600,0.633152587890625,-0.5877765075683593,0.19717560000419615,-1.0058104887202381
1733515990258229500,0.6432294921875,-0.7122165417075157,0.02289279980957508,-1.0503557328894735
1733515990268306400,0.653306396484375,-0.770054909626767,-0.13989830003380774,-1.072864063426107
1733515990278384400,0.66338427734375,-0.6602806027650833,-0.20826748738288878,-1.0259802933067084
1733515990288461600,0.673461669921875,-0.4747967557288706,-0.1796761836707592,-0.8586110718928277
1733515990298538500,0.68353857421875,-0.3141192870385945,-0.07054828495383263,-0.5344836010590195
1733515990308615400,0.693615478515625,-0.22398016643002627,-0.04063303916156292,-0.34974428877979513
1733515990318692400,0.7036923828125,-0.21408172661960123,0.05132043739259243,-0.1277976740039885
1733515990328770300,0.713770263671875,-0.20652137436792253,0.11253858394324778,0.11983210195228457
1733515990338847500,0.723847412109375,-0.19032018115147947,0.14823007504940033,0.3279242327682674
1733515990348924400,0.73392431640625,-0.15794132172465322,0.12826339181959628,0.45287601582184434
1733515990359001300,0.74400146484375,-0.09018573622927069,0.09705985978245735,0.5363207533583044
1733515990369078300,0.754078369140625,-0.027250995019078253,0.07489654329121112,0.5757932243078947
1733515990379155500,0.764155517578125,-0.009264671951532364,0.04481821589171886,0.5640944570772349
1733515990389233400,0.7742333984375,-0.04850084992721677,0.021536124503612517,0.5090501768559217
1733515990399310300,0.784310302734375,-0.17991759121119974,0.017557284000515937,0.42970644489750265
1733515990409387300,0.79438720703125,-0.35263964489512145,0.03192366300523281,0.3053668023929
1733515990419464400,0.80446435546875,-0.5412560178034007,0.04691723399758339,0.12495499792397022
1733515990429541400,0.814541259765625,-0.6933411608457565,0.07096212645173072,-0.07796089929789304
1733515990439619300,0.824619384765625,-0.7805318799775093,0.12691899147331714,-0.2879188239857554
1733515990449696300,0.8346962890625,-0.8259716618336737,0.15299860462546347,-0.45734468566849823
1733515990459773200,0.844773193359375,-0.8209224156200885,0.11471475893855095,-0.5388011719971895
1733515990469850400,0.854850341796875,-0.755929353640601,0.06842588597238064,-0.5565900727964938
1733515990479927300,0.86492724609375,-0.6645528732568026,-0.023918635725975034,-0.5296675790794193
1733515990490005500,0.875005615234375,-0.5275185843519866,-0.15299918914735317,-0.46844475635364646
1733515990500082400,0.88508251953125,-0.41029228098392484,-0.23080665144920348,-0.3714189449712634
1733515990510159600,0.89515966796875,-0.3504986142784357,-0.2341214750856161,-0.2820698056966066
1733515990520236500,0.905236572265625,-0.37479623938463624,-0.19870003309249876,-0.18150895205587148
1733515990530313500,0.9153134765625,-0.4408399794608354,-0.134271107801795,-0.09839403099566697
1733515990540390400,0.925390380859375,-0.5071569104552268,-0.056250879532098765,-0.06913973333016038
1733515990550468400,0.93546826171875,-0.5671066445052624,0.0027642040163278576,-0.09354849066063761
1733515990560545500,0.945545654296875,-0.6234196294881403,0.017293664628267286,-0.1117927340120077
1733515990570622500,0.95562255859375,-0.6478051520735025,0.024226678761839864,-0.18871537630334495
1733515990580699400,0.965699462890625,-0.6654553750544786,0.012120645904541014,-0.2643247440390289
1733515990590776300,0.9757763671875,-0.7013719070881604,-0.023073417073488235,-0.27154052063673734
1733515990600854300,0.985854248046875,-0.7332137370288372,-0.05913491053581237,-0.2614301916413009
1733515990610931500,0.995931396484375,-0.7890045978337525,-0.06866378638148307,-0.22801994334012268
1733515990621008400,1.00600830078125,-0.8720581440955399,-0.022096680995821953,-0.24056743635460734
1733515990631085300,1.016085205078125,-0.8962047433584928,0.023461539608240125,-0.26946473727598785
1733515990641162500,1.02616259765625,-0.8448268766902387,0.06538754118978977,-0.26307781271785496
1733515990651240400,1.036240478515625,-0.7658953787945211,0.12214637024402618,-0.2758199515216052
1733515990661317400,1.0463173828125,-0.6663133801233023,0.12188976513445376,-0.18070552671849727
1733515990671394300,1.056394287109375,-0.6244201848328114,0.10626958667635918,-0.02451996261999011
1733515990681471200,1.06647119140625,-0.6509547021456062,0.10568214217722416,0.17442980744987724
1733515990691548400,1.07654833984375,-0.7635130137026309,0.14179448904395103,0.3173803346611559
1733515990701625300,1.086625244140625,-0.8713589828502386,0.08893968169093132,0.38780557775720953
1733515990711703300,1.096703369140625,-0.893301569262892,-0.015179448953270912,0.44308205929920075
1733515990721780200,1.1067802734375,-0.8096962343372404,-0.10317688135802745,0.4132786033183336
1733515990731857400,1.116857421875,-0.6534340978711843,-0.131805594471097,0.28447525940313934
1733515990741934300,1.126934326171875,-0.48253757911399003,-0.12040215692520141,0.18395225355476139
1733515990752011300,1.13701123046875,-0.3368868530333042,-0.07406184603273869,0.17486732208430766
1733515990762089500,1.14708935546875,-0.2329104918606579,-0.024991817915439606,0.2541696991190314
1733515990772166400,1.15716650390625,-0.16861527595221995,0.006974515187740326,0.3229106423899531
1733515990782243600,1.16724365234375,-0.1238707098186016,-0.012421674677729606,0.39927638145089145
1733515990792320500,1.177320556640625,-0.08037877409458159,-0.0684708941578865,0.420435781596601
1733515990802397400,1.1873974609375,0.000703618224710226,-0.10818740299642085,0.40813218034058807
1733515990812475400,1.197475341796875,0.10017360788881778,-0.11079787775576114,0.33915625927001236
1733515990822552300,1.20755224609375,0.207979902613163,-0.0767974084764719,0.274064486156404
1733515990832629500,1.21762939453125,0.2889858686953783,0.001978022074699402,0.24071605104506014
1733515990842706400,1.22770654296875,0.34335319950319826,0.0862345143854618,0.18483137447685002
1733515990852783400,1.237783447265625,0.34427462519705293,0.11794424237906932,0.19573709163367747
1733515990862860500,1.247860595703125,0.3060346186518669,0.0826619165956974,0.25384412042647597
1733515990872938500,1.2579384765625,0.2326005491286516,0.055175943776965136,0.3221905114218592
1733515990883015400,1.268015380859375,0.16749606266394257,0.01640519135594368,0.3986582495525479
1733515990893092600,1.278092529296875,0.16508666343465447,0.03617430618703365,0.3588885492220521
1733515990903169500,1.28816943359375,0.2393073532909155,0.08763385978937148,0.26109599125087257
1733515990913246700,1.298246826171875,0.37833544636145233,0.09779226571023464,0.17897388062030076
1733515990923324700,1.30832470703125,0.5976929944921284,-0.012035305708646773,0.12231558933109045
1733515990933401600,1.318401611328125,0.864091183804348,-0.19722820697426796,0.1103702999934554
1733515990943478500,1.328478515625,1.1310820052474737,-0.36245091787874695,0.13038929793238638
1733515990953555500,1.338555419921875,1.3833752429701387,-0.4028308590620756,0.11885434296131134
1733515990963632600,1.348632568359375,1.567822732695937,-0.44435587862730025,0.17114420990794896
1733515990973710600,1.358710693359375,1.5777824011743067,-0.40728842299282547,0.29579701001495123
1733515990983787500,1.36878759765625,1.3926099581748246,-0.25067747308909893,0.5249868739172816
1733515990993864400,1.378864501953125,1.0948783999007194,0.034820553490519525,0.7007160735279321
1733515991003941600,1.388941650390625,0.7197072627890855,0.37789573976993557,0.7792495120167732
1733515991014018600,1.3990185546875,0.3284943608064204,0.6616080519765615,0.7776625350862741
1733515991024095500,1.409095458984375,0.019325535782054065,0.7254746672093868,0.7244108373701572
1733515991034173700,1.419173583984375,-0.08896415854506194,0.5386614712655544,0.638861674900353
1733515991044250600,1.429250732421875,-0.06976736370921134,0.2541378426760435,0.5641647458344697
1733515991054327800,1.439327880859375,0.009795417827367783,-0.011581132200360297,0.537944262906909
1733515991064404700,1.44940478515625,0.1172217733234167,-0.15593115094602106,0.50061406468302
1733515991074481700,1.459481689453125,0.20511859489791093,-0.10396247877776622,0.45752749488949773
1733515991084559600,1.4695595703125,0.23032668591253458,0.07084229946434498,0.41834436227530236
1733515991094636800,1.47963671875,0.16761457447707653,0.22499241221249103,0.3738999481320381
1733515991104713700,1.489713623046875,0.08359006429128349,0.35995910106301304,0.29327450580000874
1733515991114790700,1.499790771484375,-0.022379005068540573,0.4070832558095455,0.20851561692506074
1733515991124867600,1.50986767578125,-0.13297405372858045,0.3532125494122505,0.09442980353981256
1733515991134944800,1.51994482421875,-0.22135259440541266,0.1991261495500803,-0.038296412907540794
1733515991145022700,1.530022705078125,-0.26084055518507954,0.04709317508637905,-0.22451748817712067
1733515991155099600,1.540099609375,-0.22760120647139845,-0.10079437013566493,-0.5191530531972647
1733515991165176600,1.550176513671875,-0.08640636382102966,-0.231311093840003,-0.7894596481248736
1733515991175253500,1.56025341796875,0.11462591161131858,-0.3933364700078964,-1.062260982477665
1733515991185330700,1.57033056640625,0.3599696224570274,-0.5568009390681982,-1.271984513887763
1733515991195408600,1.58040869140625,0.6386673213720321,-0.705919487389922,-1.3436936593145132
1733515991205485600,1.590485595703125,0.8972107055306434,-0.8305512447088956,-1.2418334135130047
1733515991215562500,1.6005625,1.0686691690195351,-0.9170277511566877,-0.9728265030071139
1733515991225639700,1.6106396484375,1.0700878036458044,-0.9009785336315631,-0.6359981021627783
1733515991235716600,1.620716552734375,0.9011182343631983,-0.7112351294547319,-0.32408962304145095
1733515991245793500,1.63079345703125,0.6221141729127615,-0.38469840552210804,-0.15161124192029238
1733515991255871500,1.64087158203125,0.37265659700743853,0.0170621939599514,-0.13823036682158707
1733515991265948400,1.650948486328125,0.1914268272191286,0.3904425021320581,-0.23191432043015955
1733515991276025600,1.661025634765625,0.07961779965944588,0.5976601882010698,-0.30476152997612954
1733515991286102500,1.6711025390625,-0.0061106649000197645,0.6164408765166998,-0.2153486778154969
1733515991296179500,1.681179443359375,-0.08731354179382324,0.47504561592340466,-0.02267448088377714
1733515991306257700,1.691257568359375,-0.14999416211247443,0.23709961411356925,0.2821022466614842
1733515991316334800,1.7013349609375,-0.19448738383352757,0.10811316871643066,0.6113841776490211
1733515991326411800,1.711411865234375,-0.2729250337976962,0.0949924058586359,0.9348334569603204
1733515991336488700,1.72148876953125,-0.39834344798233356,0.15561609364748,1.2778569130524993
1733515991346565600,1.731565673828125,-0.5541986110826954,0.292537423697114,1.5432470943659542
1733515991356643600,1.7416435546875,-0.6624076779216528,0.4600070367455482,1.6800190790727734
1733515991366720800,1.751720703125,-0.6643184799790381,0.646772886416316,1.66914317253232
1733515991376797700,1.761797607421875,-0.5424643341472372,0.7860995240420102,1.520658538199961
1733515991386874600,1.77187451171875,-0.3223842438956722,0.7867652944743633,1.2688061761125922
1733515991396951600,1.78195166015625,-0.00528466240465641,0.5532552292853593,0.8579805189043282
1733515991407028700,1.79202880859375,0.2836204692047089,0.23849369882047175,0.33614977093040943
1733515991417106700,1.802106689453125,0.4817429946701973,0.0062467854350805275,-0.1742532818391919
1733515991427183600,1.81218359375,0.5637029735416174,-0.14053075271844864,-0.6228302852928638
1733515991437260500,1.822260498046875,0.5041716840993613,-0.1623743357360363,-1.0233093205317854
1733515991447337700,1.832337646484375,0.3868757860938087,-0.10938684191405773,-1.3219152504876255
1733515991457414700,1.84241455078125,0.23195823263712226,-0.07813421003818512,-1.4672949045419692
1733515991467492600,1.85249267578125,0.12546813507787882,-0.1065513262271881,-1.4447525256052614
1733515991477569500,1.862569580078125,0.06584054565429687,-0.22376550076603888,-1.2548401946023107
1733515991487646500,1.872646484375,0.06295125395357608,-0.34024610033333297,-0.9222291191920637
1733515991497723600,1.8827236328125,0.10212123482525348,-0.3399287049472332,-0.666894467946887
1733515991507800600,1.892800537109375,0.1590542879352346,-0.21841361834406853,-0.5353989623382688
1733515991517878500,1.90287841796875,0.22667408168911932,-0.023245851030945775,-0.466016506293416
1733515991527955500,1.91295556640625,0.3305430734971538,0.18135025436282157,-0.41841012098789215
1733515991538032600,1.92303271484375,0.42199908539056774,0.29026947876513004,-0.3177954913333058
1733515991548109600,1.933109619140625,0.4511252631643787,0.25200199969112874,-0.12110066058337687
1733515991558186500,1.9431865234375,0.39211423473656176,0.14600713830292225,0.1624228510528803
1733515991568263400,1.953263427734375,0.20769341382198034,0.09282149156033992,0.46192602210938927
1733515991578341600,1.963341552734375,-0.01386248460318893,0.09923018955886363,0.7520724590167402
1733515991588418800,1.973418701171875,-0.24013971246182916,0.1801116524785757,1.0276561175644396
1733515991598495700,1.983495849609375,-0.43633097760379314,0.2880798597663641,1.239708676443994
1733515991608572700,1.99357275390625,-0.543134890352562,0.4225906215429306,1.343815239867568
1733515991618649600,2.003649658203125,-0.5408399478157981,0.4639513904571533,1.2998618241116404
1733515991628727600,2.0137275390625,-0.42264783162288366,0.4324544284313917,1.0926628427430987
1733515991638804700,2.0238046875,-0.24310203286614268,0.31227614338994025,0.7773036386460065
1733515991648881700,2.033881591796875,-0.05269519634451717,0.18447510838508605,0.39600861182659863
1733515991658958600,2.04395849609375,0.09921451706569641,0.09899871889054775,0.02229191130697727
1733515991669035800,2.054035888671875,0.21568740825057028,0.001115267765522003,-0.29044045141786334
1733515991679112700,2.06411279296875,0.27471885841190813,-0.0814548788934946,-0.5351426494896412
1733515991689190700,2.074190673828125,0.2729746450930834,-0.16378829418718813,-0.7225412441059946
1733515991699267600,2.084267578125,0.25583997041881085,-0.22606442535817622,-0.8477005324304103
1733515991709344500,2.094344482421875,0.19483342079222202,-0.2717646847814321,-0.8913882829874753
1733515991719421700,2.104421630859375,0.04595335740149021,-0.33217794468998907,-0.8483560737296938
1733515991729498600,2.11449853515625,-0.1277443363815546,-0.3552776652485132,-0.6915043008074164
1733515991739576600,2.12457666015625,-0.2633388017416,-0.37019466387331484,-0.4868064886048436
1733515991749653500,2.134653564453125,-0.36773039265163243,-0.3092056499034166,-0.27245880452543497
1733515991759730700,2.144730712890625,-0.44205925559010356,-0.24129122058451175,-0.05010638542771339
1733515991769807600,2.1548076171875,-0.4948861154902726,-0.05026888251304626,0.06395984647423028
1733515991779884500,2.164884521484375,-0.4656184468865394,0.15930793390274048,0.051799745342135425
1733515991789961500,2.17496142578125,-0.3723896166343242,0.24024609544575212,0.02492664372473955
1733515991800039400,2.185039306640625,-0.22838271223790943,0.1894178254842758,0.02887538135051727
1733515991810116600,2.19511669921875,-0.07999832340963184,0.03519757010936737,0.06226239490658044
1733515991820193500,2.205193603515625,0.029868520573712885,-0.12498890019357203,0.04380173232555389
1733515991830270500,2.2152705078125,0.0810667563587427,-0.2606377260893583,0.02133124958127737
1733515991840347600,2.22534765625,0.0701261870842427,-0.3992746278852224,-0.0018096797704696655
1733515991850425600,2.235425537109375,0.030423122249171135,-0.4047358159005642,-0.10735533608645201
1733515991860502800,2.245502685546875,0.051921179764717815,-0.3055652475744486,-0.20575462777912615
1733515991870579700,2.255579833984375,0.07001286290287971,-0.10286357762515544,-0.34906565886586904
1733515991880656600,2.26565673828125,0.11225216821730136,0.08118366073668003,-0.41218057894855736
1733515991890734000,2.275734130859375,0.20568623871803282,0.2541290748476982,-0.34183541535139084
1733515991900812000,2.28581201171875,0.28180801295526325,0.28544717317521573,-0.10673135896921157
1733515991910889000,2.295888916015625,0.3162094642508775,0.1651484766244888,0.26876608748733993
1733515991920966000,2.3059658203125,0.3271271275738254,0.13072130636572837,0.6285904562547803
1733515991931042800,2.316042724609375,0.29773974158056077,0.15578911212682722,0.9419736841037869
1733515991941120000,2.3261201171875,0.2388788987457752,0.16974048058986663,1.179491231368482
1733515991951197000,2.336197021484375,0.16531155823171137,0.014374562311172484,1.3007362688586115
1733515991961275000,2.34627490234375,0.15537472263965754,-0.011184241837263107,1.2258949628859757
1733515991971351800,2.356351806640625,0.11895433273706585,-0.06415829165577888,1.0263216540902853
1733515991981428700,2.3664287109375,0.019358816997148094,-0.18787761030495165,0.9687488783046603
1733515991991506000,2.376505859375,-0.057474356912448996,-0.22835575116574763,0.8148559551879763
1733515992001582800,2.386582763671875,-0.07976031340267509,-0.3160778737604618,0.5723462987244129
1733515992011660800,2.396660888671875,-0.09981175230648368,-0.39834874521195884,0.4509431480631232
1733515992021737700,2.40673779296875,-0.15242456759717316,-0.12329261766970157,0.24424656325876712
1733515992031815000,2.41681494140625,-0.22571426021363586,0.18816402603089807,-0.030571371613442897
1733515992041891800,2.426891845703125,-0.2702308628102764,0.2411801614254713,-0.19119506428986788
1733515992051968800,2.43696875,-0.20761516095399854,0.1431990951448679,-0.2050669377759099
1733515992062045700,2.447045654296875,-0.07312014473583549,-0.03667407240271568,-0.1610167836472392
1733515992072124000,2.4571240234375,-0.0400064316958189,-0.17541852622628212,-0.06660042411088943
1733515992082201000,2.467201171875,-0.07715338230729103,-0.23054069398939608,0.06888911956995725
1733515992092278000,2.477278076171875,-0.11041848651673644,-0.09401859239041804,0.10041852256059645
1733515992102355000,2.48735498046875,-0.14143029537405818,0.2659504455447197,0.08020283300578594
1733515992112432000,2.49743212890625,-0.1368032200952992,0.7609551459133624,0.05372779079526663
1733515992122510000,2.507510009765625,-0.043138884502649306,1.2789034994959831,0.09075199180990456
1733515992132587000,2.5175869140625,0.15747779586613178,1.560448404535651,0.20042349588423966
1733515992142664000,2.527663818359375,0.3986171138245612,1.3323071729034184,0.41125031236112114
1733515992152740900,2.537740966796875,0.5338140312343835,0.7377969731658697,0.7014788745939731
1733515992162818000,2.547818115234375,0.5181125311683863,0.15118366415798662,0.9249266877129674
1733515992172895000,2.55789501953125,0.3558230241715908,-0.25297756672501565,0.962921195064485
1733515992182973000,2.567972900390625,0.18575583237800747,-0.44539691211283206,0.7765782469809055
1733515992193049900,2.5780498046875,0.06607851912863552,-0.4938111066699028,0.45168490634113545
1733515992203126800,2.588126708984375,0.027101941937208173,-0.418729269939661,0.1349994220763445
1733515992213204000,2.598203857421875,0.06325348830316216,-0.3599918342888355,-0.07713789247721434
1733515992223281000,2.608281005859375,0.1223152970701456,-0.3919388781696558,-0.16138386339396238
1733515992233358800,2.61835888671875,0.1562865402549505,-0.40945992181301116,-0.13282792325615883
1733515992243435800,2.628435791015625,0.1355489457178861,-0.3957879548132419,-0.06382452965676784
1733515992253513000,2.638512939453125,0.09521803130805492,-0.3638046705752611,0.005544482384622097
1733515992263590000,2.64858984375,0.08643621097002178,-0.23749007473587988,0.04718552954494953
1733515992273666800,2.658666748046875,0.10660338520798832,-0.032598201265931125,0.03655541445910931
1733515992283743700,2.66874365234375,0.14530684454645962,0.17937749298512934,-0.018473814323544502
1733515992293821700,2.67882177734375,0.157907967444323,0.30664252141714093,-0.08097381737828255
1733515992303899000,2.68889892578125,0.1804255042007193,0.3106739688903093,-0.15226181478351353
1733515992313975800,2.698975830078125,0.18245437967982142,0.18632570468783377,-0.1925534931614995
1733515992324052700,2.709052734375,0.16041856202576307,0.05489303518235683,-0.18760054692924022
1733515992334130000,2.7191298828125,0.1219190277615562,0.008047697377204895,-0.1307268593236804
1733515992344208100,2.7292080078125,0.057524552729725835,0.047529812937974925,-0.02247925057262182
1733515992354285000,2.73928515625,-0.036947044125199315,0.11611176625490188,0.15074293465316294
1733515992364362000,2.749362060546875,-0.13503452992234377,0.15002572629451752,0.32970337127000093
1733515992374439000,2.75943896484375,-0.2462561495155096,0.16307459295988083,0.49948856778442857
1733515992384516000,2.76951611328125,-0.3517518292099237,0.1989344263702631,0.6131944419413805
1733515992394594000,2.779593994140625,-0.4227291532307863,0.24507366173267364,0.6483852900490165
1733515992404671000,2.7896708984375,-0.42391690171062946,0.29333588059842586,0.5884872861862183
1733515992414748000,2.799747802734375,-0.37390637787282466,0.3042705315887928,0.46597763558775185
1733515992424824800,2.809824951171875,-0.25321955878734587,0.23930443068146703,0.2878159481331706
1733515992434902000,2.819902099609375,-0.10186338760666548,0.12138356917798518,0.08248889811635017
1733515992444979000,2.82997900390625,0.03324175986647606,0.0027899229794740676,-0.10054624059349297
1733515992455057000,2.840056884765625,0.1110831244379282,-0.10694120232760905,-0.21952654802203178
1733515992465133800,2.8501337890625,0.1044335668882355,-0.21465514259338378,-0.287093479077518
1733515992475211000,2.8602109375,0.05894899604227394,-0.29352409664690493,-0.32055881856679913
1733515992485288000,2.870287841796875,0.008050619986653327,-0.350811333489418,-0.34919396142065523
1733515992495364900,2.88036474609375,-0.02381517535150051,-0.3422498413711786,-0.32629180926084517
1733515992505442800,2.89044287109375,-0.04930909757018089,-0.23720950422883033,-0.27164719588160513
1733515992515519700,2.900519775390625,-0.04667644751165062,-0.07240414195358753,-0.22863398358523845
1733515992525597000,2.910596923828125,0.006636040480993688,0.09799801741540431,-0.1953808255419135
1733515992535673900,2.920673828125,0.058227148041129106,0.21587620882093905,-0.12988923945575953
1733515992545750800,2.930750732421875,0.08167754520084708,0.22439035466611384,-0.005526946727931499
1733515992555828000,2.940827880859375,0.07142740587592125,0.15383797805905342,0.1473091608121991
1733515992565906000,2.950906005859375,0.05424012423157692,0.11810557042062282,0.26365561260581016
1733515992575982800,2.96098291015625,0.019565664680860937,0.14430208795070648,0.33945933386981486
1733515992586059800,2.971059814453125,-0.02434241409599781,0.22795769175887107,0.40309593973904845
1733515992596136700,2.98113671875,-0.043702363604307175,0.2770002473473549,0.44587972719371316
1733515992606214000,2.9912138671875,-0.01938625299334526,0.24589666855335235,0.4794488193184137
1733515992616292000,3.0012919921875,0.022886918058060108,0.16540800434350966,0.5050190216436982
1733515992626369000,3.011369140625,0.05342763880491257,0.0749497347831726,0.45494683074653147
1733515992636446000,3.021446044921875,0.03604921850264072,-0.0008358663022518157,0.33824265155643224
1733515992646523000,3.03152294921875,0.01796937193274498,-0.021731939336657524,0.19003566512167452
1733515992656600000,3.04160009765625,0.06643734250366687,-0.011698036578297615,0.0597001432031393
1733515992666677000,3.051677001953125,0.17014142607357352,0.014274024546146392,-0.010389292067289353
1733515992676755000,3.0617548828125,0.26189265805389733,0.009560440027713776,-0.030300153456628322
1733515992686831900,3.071831787109375,0.2598105910828337,-0.01118541088104248,0.012540332621335982
1733515992696909000,3.081908935546875,0.19399576439168303,-0.040108723026514054,0.0501867571875453
1733515992706986000,3.091986083984375,0.09141334179546684,-0.06480769547522068,0.07793576485663652
1733515992717063000,3.10206298828125,-0.006620294922590256,-0.05865034188926219,0.09816928232908248
1733515992727140900,3.112140869140625,-0.07265727646443992,-0.012916764718294144,0.12207213596403597
1733515992737217800,3.1222177734375,-0.10539393635299056,0.013562076884508133,0.12856617415845392
1733515992747295000,3.132294921875,-0.07416300485227256,0.03443535356521606,0.1330526719227433
1733515992757372000,3.142371826171875,-0.027810382467508315,0.01845686318874359,0.10285948597192764
1733515992767448800,3.15244873046875,-0.011907295414805412,-0.012028291445970535,0.023836218139529228
1733515992777526000,3.162526123046875,-0.01962064627110958,-0.007636778488755226,-0.05572188722193241
1733515992787604000,3.17260400390625,-0.04466678818967193,-0.004447627058625221,-0.1442664321154356
1733515992797681000,3.182680908203125,-0.08442830521371215,0.023172785794734953,-0.21127660607099533
1733515992807757800,3.1927578125,-0.14596618523802607,0.04788695581257343,-0.2083271086156368
1733515992817834800,3.202834716796875,-0.19789456192851065,0.07614508204758166,-0.1621171461045742
1733515992827912000,3.212911865234375,-0.26292375466730444,0.08554419403374194,-0.08769611137062311
1733515992837990000,3.222989990234375,-0.2661947756946087,0.08488543786406516,-0.014457856680452822
1733515992848066800,3.23306689453125,-0.23113394717480987,0.05881751514971256,0.08143997358530759
1733515992858143700,3.243143798828125,-0.1771305177759379,0.034948563784360884,0.14124649977236986
1733515992868221000,3.253220947265625,-0.07658230442106723,0.04214753537774086,0.13834025693684815
1733515992878297900,3.2632978515625,0.04662384054157882,0.0749193396449089,0.12214900059252977
1733515992888375000,3.273375,0.1356084938853979,0.09042319824695587,0.11134265215694904
1733515992898453200,3.283453369140625,0.18382515657637266,0.08167290555834769,0.08430062371343373
1733515992908530200,3.2935302734375,0.20250172693040222,0.03421615785658359,0.05564969876855611
1733515992918607400,3.303607421875,0.1815098653713241,-0.012110709032416343,0.047615737655758855
1733515992928684300,3.313684326171875,0.13291443249583243,-0.055228550747036934,0.049614217996597286
1733515992938761200,3.32376123046875,0.07488835998475551,-0.08113631446361541,0.04760521626174449
1733515992948839200,3.333839111328125,0.06120415455792099,-0.06809446206092834,0.07379588857293129
1733515992958916000,3.343916015625,0.08708035409245639,-0.030628947019577024,0.11903846735656261
1733515992968993300,3.3539931640625,0.10356325032711028,0.000036240357160568236,0.1712047079235315
1733515992979070200,3.3640703125,0.1412380242049694,0.03772387371659278,0.1984220929339528
1733515992989147100,3.374147216796875,0.16799970133714376,0.07938391783833504,0.21883739671409128
1733515992999225000,3.38422509765625,0.1832266061613336,0.12420096468627452,0.22281331460773943
1733515993009302000,3.394302001953125,0.15657763215601445,0.15647358725965022,0.1971042883336544
1733515993019379200,3.404379150390625,0.10653430202715099,0.14383096330761908,0.13731938945651054
1733515993029456100,3.4144560546875,0.04720543982181698,0.13515256681144236,0.049852118405699725
1733515993039533000,3.424532958984375,-0.04649111754000187,0.11149988854527473,-0.03574292903244495
1733515993049610200,3.4346103515625,-0.1266425856847316,0.10602817913591861,-0.09730506671518087
1733515993059688200,3.444688232421875,-0.17795659333653746,0.09557692774832248,-0.11554448776096105
1733515993069765000,3.45476513671875,-0.20257950487434861,0.07455985868275165,-0.0739411422625184
1733515993079842000,3.464842041015625,-0.22760179099328814,0.07687807249724865,-0.010857494100928306
1733515993089919000,3.4749189453125,-0.21991408603489399,0.06242927590608596,0.02830868737846613
1733515993099996200,3.48499609375,-0.17038761938698588,0.0005938742399215698,0.0418473833873868
1733515993110074000,3.49507421875,-0.10514503962583839,-0.01579904215633869,0.0370151409253478
1733515993120151000,3.505151123046875,-0.062107204344868654,0.012788754424452781,-0.0015533669218420981
1733515993130228000,3.51522802734375,-0.035762802776694295,0.0486854127138853,-0.02092296104133129
1733515993140305200,3.52530517578125,0.020143720297142863,0.08742167834341526,-0.030139994458854198
1733515993150382000,3.535382080078125,0.08060732215344905,0.09613865328431129,-0.007908873428404331
1733515993160459000,3.545458984375,0.1479816532462835,0.035063130074739456,0.08141425462216138
1733515993170537200,3.555537109375,0.1537953079611063,-0.006579962912201881,0.21072510966807603
1733515993180614100,3.5656142578125,0.10066219512335955,0.07418518015146255,0.2627294376716018
1733515993190691300,3.57569140625,0.021426818910241126,0.12544599631130696,0.3431725091740489
1733515993200768300,3.585768310546875,-0.0655471156656742,0.13283143038749695,0.4480997413307428
1733515993210845200,3.59584521484375,-0.16191380555219947,0.156487031263113,0.4946551562786102
1733515993220923100,3.605923095703125,-0.2278162374615669,0.18664485363960265,0.4042696596935391
1733515993231000000,3.616,-0.2555670717615634,0.0602753127425909,0.3352767874881625
1733515993241077200,3.6260771484375,-0.22241057902574538,-0.11665946326553821,0.3021934330537915
1733515993251154200,3.636154296875,-0.1947990070659667,-0.27342881860136986,0.20866496226787565
1733515993261231000,3.646231201171875,-0.15909513140227644,-0.37126609249711034,0.07358838330209255
1733515993271308300,3.656308349609375,-0.11748597721755503,-0.2753390361368656,-0.060040334942936896
1733515993281386200,3.66638623046875,-0.042327568119764326,-0.1329512573748827,-0.14686843130737542
1733515993291463200,3.676463134765625,0.0725876087617129,-0.051396425238251685,-0.23558628694117068
1733515993301540000,3.6865400390625,0.19435579334311187,-0.06267652866542339,-0.2931947185620665
1733515993311617000,3.696616943359375,0.253005075786449,-0.12679331926703452,-0.3007517098128795
1733515993321694200,3.706694091796875,0.2514671621620655,-0.20359891104996203,-0.2738867915019393
1733515993331772200,3.716772216796875,0.19294592654518783,-0.2665957577109337,-0.24468875406831503
1733515993341849000,3.72684912109375,0.10840309157371521,-0.3119862205326557,-0.20916618978828191
1733515993351926000,3.736926025390625,0.018943769922852516,-0.32553836054503915,-0.20286708964407443
1733515993362003200,3.747003173828125,-0.06131700381524861,-0.31635376809239385,-0.24266864641755817
1733515993372080000,3.757080078125,-0.11780278808176517,-0.2635276023119688,-0.31018121693730355
1733515993382157000,3.767156982421875,-0.1614636506319046,-0.1725169595658779,-0.4089540181174874
1733515993392235000,3.777235107421875,-0.2053127292305231,-0.08907119911611079,-0.4654536117136478
1733515993402312000,3.78731201171875,-0.23294771859850733,0.007695230677723884,-0.49058746844828127
1733515993412389000,3.79738916015625,-0.2816074123492464,0.07049626250565051,-0.4349450762033462
1733515993422466000,3.807466064453125,-0.3173977241873741,0.10470482157766818,-0.3232981804028153
1733515993432543000,3.81754296875,-0.3318225188484415,0.11870996605455875,-0.17629910845309496
1733515993442621200,3.82762109375,-0.3227134393174201,0.11876257302463054,0.002567220139503479
1733515993452698000,3.837697998046875,-0.2806090854942798,0.10358078598380088,0.20130524715483186
1733515993462775300,3.847775390625,-0.21432554531283676,0.10121171876490115,0.39937604243308306
1733515993472852200,3.857852294921875,-0.1289426062554121,0.11324234829843044,0.5345961215227842
1733515993482929200,3.86792919921875,-0.03111760731935501,0.19173487025499342,0.6103060270234942
1733515993493006300,3.87800634765625,0.046858781808614726,0.298242357340455,0.6281146554365754
1733515993503084300,3.888084228515625,0.08572188868820667,0.3879290580064058,0.6076850308701396
1733515993513161200,3.8981611328125,0.10891805535852908,0.44919338178634644,0.5702624781876802
1733515993523238100,3.908238037109375,0.1192827975064516,0.4340536803215742,0.5276689526081085
1733515993533315000,3.918315185546875,0.14430435297302902,0.34673838496208187,0.5004477682054043
1733515993543392300,3.928392333984375,0.16389928028099238,0.2090384717553854,0.4903028062880039
1733515993553470200,3.93847021484375,0.14180793304741382,0.07093523844480513,0.5036182149350643
1733515993563547100,3.948547119140625,0.10389701232612132,-0.03694236795008182,0.48066491710990666
1733515993573624000,3.9586240234375,0.051154433175921436,-0.08108955271244049,0.42736528859883544
1733515993583701200,3.968701171875,-0.00286649534702301,-0.020732406905293464,0.3147933869078755
1733515993593778200,3.978778076171875,-0.04197451689839363,0.06412555842995643,0.14958528905063867
1733515993603855000,3.988855224609375,-0.02906242835521698,0.11599193926751612,-0.012570143237709998
1733515993613933000,3.99893310546875,0.028173370561003684,0.10565642321407795,-0.12899316739886998
1733515993624010000,4.009010009765625,0.12354049148354679,0.02902092730104923,-0.18613573507368564
1733515993634087200,4.019087158203125,0.19473105639629065,-0.07163900279998779,-0.1747089166522026
1733515993644164000,4.0291640625,0.231581069887802,-0.13508417775034903,-0.1190647708415985
1733515993654241000,4.039240966796875,0.2154085913091898,-0.13096154486238956,-0.05510463210642338
1733515993664319000,4.049319091796875,0.146811440423131,-0.05678454801738262,-0.008528466631472111
1733515993674396200,4.059396240234375,0.042276203258708116,0.06034136371612549,0.025469080038368702
1733515993684473000,4.06947314453125,-0.04114851440303027,0.1813958470702171,0.08356909456849097
1733515993694550000,4.079550048828125,-0.09051905983686447,0.27006431060433383,0.1413818165898323
1733515993704627000,4.089626953125,-0.08181209483332931,0.2621726805716753,0.22077011834233998
1733515993714705200,4.099705078125,-0.011217632650211452,0.1128910506427288,0.3427960770770907
1733515993724782300,4.1097822265625,0.09901559696011245,-0.08629472014009952,0.4677987135350704
1733515993734859300,4.119859375,0.21413835217766464,-0.2561445063233375,0.5621235953956842
1733515993744936200,4.129936279296875,0.29124387675523755,-0.3363759809017181,0.5658586902707815
1733515993755013000,4.14001318359375,0.2795212171923369,-0.316172566306591,0.5403627222254872
1733515993765090300,4.15009033203125,0.20142741222977636,-0.22207097180783747,0.4429664700955152
1733515993775168300,4.160168212890625,0.10111929124109446,-0.11286357811391352,0.2702124869033694
1733515993785245200,4.1702451171875,0.03847439982295036,-0.055025137129426,0.051504854048788545
1733515993795322000,4.180322021484375,0.024845139453746376,-0.03504968607127666,-0.11598200239539146
1733515993805399300,4.1903994140625,0.005655833804607391,-0.007808627924323082,-0.28833675713688134
1733515993815476200,4.200476318359375,-0.00009060089290142059,-0.03409866895675659,-0.3965180226534605
1733515993825553200,4.21055322265625,-0.01142681842148304,-0.049476270830631254,-0.44513913795948024
1733515993835631000,4.220631103515625,-0.061150305478833614,-0.027234628406167027,-0.4914084294423461
1733515993845708000,4.2307080078125,-0.11721647609379142,-0.011877484798431396,-0.45986675149202344
1733515993855785200,4.24078515625,-0.20216040267944335,-0.051040451407432554,-0.3755918467417359
1733515993865862100,4.250862060546875,-0.28044476177804173,-0.10340309132933616,-0.2492684830740094
1733515993875939000,4.26093896484375,-0.3351122080435976,-0.12063947281241416,-0.15008797787576914
1733515993886017000,4.27101708984375,-0.36779637055993075,-0.12251286546885967,-0.08317337324917316
1733515993896093700,4.28109375,-0.3477794184476137,-0.08803601084947585,-0.029538813695311545
1733515993906170600,4.291170654296875,-0.29387597882449623,-0.0337538010418415,0.0035778584867715833
1733515993916247600,4.30124755859375,-0.26158585712704807,-0.0016349077254533767,0.024082009594142435
1733515993926324500,4.311324462890625,-0.21673958418462425,0.029134909069538115,0.04318009329587221
1733515993936402400,4.32140234375,-0.16885496645960957,0.13818039020001888,0.06410656146854161
1733515993946479600,4.331479736328125,-0.12321841992232947,0.24280337871313093,0.10812398237138986
1733515993956556500,4.341556640625,-0.0857079332280904,0.32033202407360073,0.20384762511402368
1733515993966633500,4.351633544921875,-0.0458540617454797,0.400847576290369,0.3008364654868841
1733515993976710700,4.361710693359375,0.0017423866879194975,0.47004970733225343,0.36427024226039645
1733515993986787600,4.37178759765625,0.07518756212703884,0.5242915851294994,0.41508331465274095
1733515993996865800,4.38186572265625,0.13138532323241234,0.5426835663884878,0.42923400508016346
1733515994006942700,4.391942626953125,0.24154249193184077,0.5275730910181999,0.4139356059223413
1733515994017019600,4.40201953125,0.3606288900833577,0.4390034116834402,0.41445086196810005
1733515994027096800,4.412096923828125,0.5096645093619823,0.2530979782342911,0.47496787451207634
1733515994037173800,4.422173828125,0.6102753396242857,0.037570144459605215,0.5531693045675754
1733515994047251700,4.432251708984375,0.635405689227581,-0.1068570311754942,0.626807956752181
1733515994057328600,4.44232861328125,0.5765764836400747,-0.16409283009171485,0.6531129030928016
1733515994067405800,4.45240576171875,0.4488414265435189,-0.12764905931353568,0.6318313378721475
1733515994077482800,4.462482666015625,0.3054974430352449,-0.03005260843634605,0.5525672470211982
1733515994087559700,4.4725595703125,0.1720166453609243,0.10403145236074923,0.37465631945729255
1733515994097636600,4.48263671875,0.08362345510423183,0.2605518013715744,0.12791267868578432
1733515994107714600,4.492714599609375,0.061876318198442457,0.3182008572638035,-0.1082438093587756
1733515994117791700,4.502791748046875,0.1240145022034645,0.15713994221389294,-0.2406415245041251
1733515994127868700,4.51286865234375,0.20446984866559503,-0.04806815759837627,-0.19740707067251204
1733515994137945600,4.522945556640625,0.29279928950369355,-0.25106676466763017,-0.0535959811091423
1733515994148022500,4.5330224609375,0.3439619059860706,-0.37554537725150583,0.12714870857596397
1733515994158100500,4.5431005859375,0.3124497463911772,-0.389471026751399,0.2148240694195032
1733515994168177700,4.553177734375,0.20490188340730964,-0.28662147765159607,0.15377397291213274
1733515994178254600,4.563254638671875,0.06339724415540694,-0.10011515569984912,-0.002372282089293003
1733515994188331500,4.57333154296875,-0.03936228857338428,0.09651625442504883,-0.1963449943989515
1733515994198408700,4.58340869140625,-0.15201485428512096,0.20476152508854864,-0.3714911334246397
1733515994208485600,4.593485595703125,-0.2556791903665289,0.24474516043066977,-0.46717444415688514
1733515994218563600,4.6035634765625,-0.3333826443046331,0.1635457176029682,-0.4409206434816122
1733515994228640500,4.613640625,-0.4238929363131523,-0.026238603106141088,-0.34435236660838126
1733515994238717400,4.623717529296875,-0.46989948520660396,-0.18295768955945968,-0.27257629342526196
1733515994248794600,4.633794677734375,-0.5035181886266916,-0.24737667797803878,-0.23955577509403228
1733515994258871600,4.64387158203125,-0.4836322424829006,-0.15664777478277683,-0.2415001871600747
1733515994268949800,4.65394970703125,-0.4271504768043756,0.039756840848922725,-0.23355185850411653
1733515994279026700,4.664026611328125,-0.36008243518173694,0.2653349439948797,-0.18559008388966322
1733515994289104000,4.674103759765625,-0.29537410842776296,0.4087964894682169,-0.12032616907954215
1733515994299180800,4.684180908203125,-0.20844233249314129,0.4233960927069187,-0.025617548598349093
1733515994309257700,4.6942578125,-0.13280563835911452,0.2837123122066259,0.07663841852247714
1733515994319334700,4.704334716796875,-0.09942074369490146,0.00594341857433319,0.19300649762600658
1733515994329412600,4.71441259765625,-0.09421564933247864,-0.24293723422586916,0.2671712195113301
1733515994339489800,4.72448974609375,-0.11925123332440853,-0.34205344201624394,0.18463497512191532
1733515994349566700,4.734566650390625,-0.17168635396063328,-0.2972854950070381,-0.0183583712503314
1733515994359643600,4.7446435546875,-0.18793313988447188,-0.1484714825898409,-0.2083843917608261
1733515994369720600,4.754720458984375,-0.14777407491020858,0.08348609246015548,-0.3620136955052614
1733515994379798500,4.764798583984375,-0.06421141008250415,0.29177111549973483,-0.4625596438378095
1733515994389875700,4.774875732421875,0.041840076863765716,0.4006201972752809,-0.4672931021004915
1733515994399952600,4.78495263671875,0.14467325935065745,0.22961831844747066,-0.30667554690390825
1733515994410029600,4.795029541015625,0.20786424034424125,-0.22069909893274306,-0.022541502153873443
1733515994420106800,4.805106689453125,0.25525617918148635,-0.6802958013117313,0.271623230484128
1733515994430183700,4.81518359375,0.25348675835616885,-0.9947411054342985,0.49176001935899255
1733515994440261600,4.82526171875,0.21693886961638925,-1.0766180091321467,0.5350058713674545
1733515994450338600,4.835338623046875,0.1532411812096834,-0.8712146790087223,0.42480186785161494
1733515994460415500,4.84541552734375,0.11602540314570069,-0.49424306834638115,0.22117168488055466
1733515994470492700,4.85549267578125,0.04710669215507805,-0.02609773333072662,-0.057852177248895166
1733515994480569600,4.865569580078125,-0.023950711364671588,0.37567104945778845,-0.34671325052082536
1733515994490647600,4.8756474609375,-0.09103511960022151,0.6759113026171922,-0.5567261202663183
1733515994500724500,4.885724365234375,-0.17725852806977926,0.8404711656987667,-0.6442918832555413
1733515994510801700,4.8958017578125,-0.29942367607951165,0.6943494611054658,-0.4898004097238183
1733515994520878600,4.905878662109375,-0.47342122959196564,0.31222704355120656,-0.11431845309734344
1733515994530955500,4.91595556640625,-0.6940688905984163,-0.1312561438947916,0.3063359396860003
1733515994541032400,4.926032470703125,-0.8115782486915588,-0.46797523914575573,0.5342451161280274
1733515994551110700,4.936110595703125,-0.812553231203556,-0.5160860668420791,0.5113067236110568
1733515994561187800,4.946187744140625,-0.7158318826604634,-0.2635164963960647,0.28450083223581313
1733515994571264800,4.9562646484375,-0.577073911768198,0.1538292102307081,-0.008707330329716205
1733515994581341700,4.966341796875,-0.394513624028489,0.49874037976562974,-0.30433862838894127
1733515994591418600,4.976418701171875,-0.20643157719261943,0.7443243291079997,-0.5505111912742257
1733515994601496600,4.98649658203125,-0.02255377711355686,0.8732721960604191,-0.6192404441073537
1733515994611573800,4.99657373046875,0.1429021580249071,0.6954863561809063,-0.39877544619143007
1733515994621650700,5.006650634765625,0.3200280726909637,0.22109131312072275,0.10147300004959106
1733515994631727600,5.0167275390625,0.45971704082302745,-0.3028314386963844,0.6633651247769594
1733515994641804800,5.0268046875,0.48238779537975784,-0.662364423301816,1.09449736469388
1733515994651881700,5.0368818359375,0.45713418472297485,-0.786443222913146,1.2591145109206436
1733515994661959700,5.046959716796875,0.4210001374810934,-0.610422054618597,1.0957602242365478
1733515994672036600,5.05703662109375,0.4127251341540366,-0.1622697063177824,0.7574418770954012
1733515994682113500,5.067113525390625,0.4231704672574997,0.2532967156767845,0.3165942988499999
1733515994692190700,5.077190673828125,0.47579146585464477,0.44445466282665724,-0.13979308609366417
1733515994702267600,5.087267578125,0.5264004670422524,0.3355710942596197,-0.45130350580811496
1733515994712345600,5.097345703125,0.5543599025916308,-0.12033552142977713,-0.46369040143340823
1733515994722422500,5.107422607421875,0.49169046125411986,-0.5897545296430587,-0.1774003476932645
1733515994732499700,5.117499755859375,0.2824976757198572,-0.8701882585704326,0.2585609198153019
1733515994742576600,5.12757666015625,0.07538871072232722,-0.8584984052985906,0.558000377985835
1733515994752653600,5.137653564453125,-0.0860866303473711,-0.5675748465389013,0.5372822918668388
1733515994762730500,5.14773046875,-0.24749007522463798,-0.0831628518551588,0.36942835567593574
1733515994772808400,5.157808349609375,-0.4043611373692751,0.37759588004052635,0.12784545866847039
1733515994782885600,5.1678857421875,-0.481531470811367,0.6495271535605192,-0.19378712660968303
1733515994792962600,5.177962646484375,-0.4670265601187944,0.7786123831570148,-0.4985097858801484
1733515994803039500,5.18803955078125,-0.39486258359663184,0.8162666987687349,-0.6069499945938587
1733515994813116700,5.19811669921875,-0.33927930112779137,0.5838818382173776,-0.41768385253995655
1733515994823193600,5.208193603515625,-0.4266354399543255,0.20855799476206302,-0.009570376899838447
1733515994833271800,5.218271728515625,-0.6103980892211198,-0.08471008129715919,0.3771700558438897
1733515994843348700,5.2283486328125,-0.7752571544449776,-0.2321165650039911,0.572452389447391
1733515994853425700,5.23842578125,-0.7867308076828717,-0.2408621815174818,0.5340665446907281
1733515994863502800,5.2485029296875,-0.6753559337567537,-0.08654489550888537,0.3204386993184686
1733515994873579800,5.258579833984375,-0.47401269267909224,0.11687982801795005,0.08109422888755798
1733515994883657700,5.26865771484375,-0.23615495367459952,0.2743511941432953,-0.1366568338945508
1733515994893734700,5.278734619140625,-0.03239471458308398,0.382984587341547,-0.2585030521482229
1733515994903811600,5.2888115234375,0.11314480620808899,0.4585930782943964,-0.21045593733787535
1733515994913888800,5.298888671875,0.14688691681213675,0.4715887534677982,-0.029228140310943125
1733515994923965700,5.308965576171875,0.10931903737485409,0.4123988978743553,0.24730858117789029
1733515994934042600,5.319042724609375,0.0310655848711729,0.25454525443315507,0.5220452675074339
1733515994944120600,5.32912060546875,-0.06135850486941635,-0.04524550139307976,0.65497139044106
1733515994954197800,5.33919775390625,-0.048097968214750285,-0.3048229047745466,0.5939753622084856
1733515994964274700,5.349274658203125,0.08429339025504887,-0.40179216366410253,0.3809223941147327
1733515994974351600,5.3593515625,0.19735278320200741,-0.30248072556257244,0.07017360642254353
1733515994984428500,5.369428466796875,0.24399872597754,-0.1277910981327295,-0.2246858304813504
1733515994994506500,5.379506591796875,0.23518771607764064,0.035407997989654535,-0.4166282060071826
1733515995004583700,5.389583740234375,0.22671857841797172,0.18274550811350346,-0.47628363328576084
1733515995014660600,5.39966064453125,0.1871084525633603,0.25707623421549797,-0.3378583284139633
1733515995024737500,5.409737548828125,0.1280365242611617,0.2551625095486641,-0.02608955002427101
1733515995034814700,5.419814697265625,0.03320727307498455,0.1542611719071865,0.29543606774806974
1733515995044891600,5.4298916015625,-0.12286540523357689,-0.015052023181319235,0.5460170947253704
1733515995054969600,5.439969482421875,-0.24578560939431188,-0.1251134033560753,0.6281017959550023
1733515995065046500,5.450046630859375,-0.2915087382365018,-0.11077858853340149,0.4970326990649104
1733515995075123500,5.46012353515625,-0.23079379196763036,-0.01514028598666191,0.22390520149767398
1733515995085200600,5.47020068359375,-0.14671740546412765,0.043994040027260775,-0.05150631535351276
1733515995095277600,5.480277587890625,-0.09402969830632209,0.04060089045763016,-0.2533496149078011
1733515995105355800,5.490355712890625,-0.05908288808763027,0.014510755911469459,-0.3488993623882532
1733515995115432700,5.5004326171875,-0.04528926746957004,0.022364392021298408,-0.3188034993320703
1733515995125509600,5.510509521484375,-0.06413016153983772,0.03571428745985031,-0.17169716761559248
1733515995135586800,5.5205869140625,-0.06886369286775589,0.10984627611935138,0.027814181859791277
1733515995145663700,5.530663818359375,-0.06242101953439414,0.16328677440583705,0.19377514391094444
1733515995155740700,5.54074072265625,-0.033407691017910836,0.1499310337483883,0.29076573784947396
1733515995165818600,5.550818603515625,0.0072082508783787485,0.07976794871985912,0.33280630572140213
1733515995175895800,5.560895751953125,0.06325337870530784,0.026646599385142324,0.3359308674827218
1733515995185972700,5.57097265625,0.11395663404762744,-0.0484936895340681,0.270489258018136
1733515995196049700,5.581049560546875,0.18165530172400177,-0.17339491144418714,0.15715689334869384
1733515995206126600,5.591126708984375,0.22263510849662124,-0.21356559379100798,0.04930325235128402
1733515995216204500,5.60120458984375,0.24837387232184407,-0.12411562449038029,-0.03978197529017925
1733515995226281700,5.61128173828125,0.24948804410882292,0.013222469666600227,-0.09509820432066916
1733515995236358700,5.621358642578125,0.20459091776199637,0.14280454286932945,-0.08018354378342628
1733515995246435600,5.631435546875,0.13445574365369975,0.21961364178359508,0.01996580644696951
1733515995256512800,5.6415126953125,0.06903671134710311,0.2755547247141599,0.18528320989757774
1733515995266589700,5.651589599609375,0.0003875380128622055,0.2705132234156132,0.3861968273863196
1733515995276667600,5.661667724609375,-0.08044540959000587,0.17005787597596644,0.5425558483555912
1733515995286744600,5.67174462890625,-0.20604688872396945,-0.017260931402444838,0.6058411565691232
1733515995296821500,5.681821533203125,-0.3161136026609689,-0.2099099938929081,0.5065750189140439
1733515995306898700,5.691898681640625,-0.29468729520738124,-0.3533224395275116,0.2549021050468087
1733515995316975600,5.7019755859375,-0.20582659703679382,-0.41454993842840193,-0.07995674929022789
1733515995327053600,5.712053466796875,-0.07413666483461856,-0.36367607575953004,-0.38500031107813115
1733515995337130500,5.722130615234375,0.036356750081852074,-0.22994974235892293,-0.6441293861702084
1733515995347207400,5.73220751953125,0.09392908747605978,-0.0950923591017723,-0.7671879028230905
1733515995357284600,5.74228466796875,0.12102876439094543,0.03601765432059765,-0.7007792018920183
1733515995367361500,5.752361572265625,0.0802390733629465,0.12808628168702124,-0.44856092910170553
1733515995377438500,5.7624384765625,-0.022329247642681002,0.14080021730959413,-0.16637655711472032
1733515995387516700,5.7725166015625,-0.11122757440991698,0.08025485545396804,0.039671500653028484
1733515995397593900,5.78259375,-0.15723931093513965,0.05526186849474907,0.1643342376321554
1733515995407670800,5.7926708984375,-0.13000760513842105,0.06349310574531555,0.18043255499601363
1733515995417747700,5.802747802734375,-0.10121237635202705,0.0843354027658701,0.12221914321929216
1733515995427824600,5.81282470703125,-0.09882986512966453,0.07038286525905132,0.04975654907673597
1733515995437902600,5.822902587890625,-0.09684183311760425,0.03552548688948154,0.036731355547904965
1733515995447979800,5.832979736328125,-0.09760120011754334,-0.0004968436062335968,0.0977259224757552
1733515995458056700,5.843056640625,-0.08020575561523437,-0.05329904398918152,0.17244798598289487
1733515995468133600,5.853133544921875,-0.022133578940108416,-0.06157061325013637,0.2370101822644472
1733515995478210600,5.86321044921875,0.05135258609652519,-0.02273673246502876,0.2656710440814495
1733515995488287700,5.873287841796875,0.09557992342300713,0.05830372040867805,0.26123539972156284
1733515995498365700,5.88336572265625,0.11786365142352878,0.11826397585272788,0.24864830534905194
1733515995508442600,5.893442626953125,0.13449161868467926,0.16265315267741678,0.22965543558746576
1733515995518519600,5.90351953125,0.12855974441766738,0.19245207861363886,0.17955957155376673
1733515995528596700,5.9135966796875,0.10230419017672539,0.17204641944468022,0.12208528770655393
1733515995538673700,5.923673583984375,0.04794540800154209,0.1343318980783224,0.07918225778639316
1733515995548750600,5.93375048828125,-0.00041844460777938365,0.09369535178542136,0.06645458589941262
1733515995558828500,5.94382861328125,-0.04834573243074119,0.004559270739555359,0.06856763253062963
1733515995568905500,5.953905517578125,-0.08466850717775523,-0.05470189652442932,0.04609364265501499
1733515995578982700,5.963982666015625,-0.11203414155244827,-0.08708499373495578,0.0013575520887970924
1733515995589059600,5.9740595703125,-0.14047880333550272,-0.07938274879455566,-0.036140403917431826
1733515995599136500,5.984136474609375,-0.1548667365849018,-0.02952069351673126,-0.05461655632853508
1733515995609214500,5.99421435546875,-0.14804711969792841,0.020211597901582716,-0.05830079779922962
1733515995619291600,6.004291748046875,-0.1262876347672194,0.06795885298252105,-0.047453532831370826
1733515995629368600,6.01436865234375,-0.08595328629128635,0.1075584574431181,0.015672493167221545
1733515995639445500,6.024445556640625,-0.04583170378319919,0.100551793551445,0.12248422389626502
1733515995649522400,6.0345224609375,-0.021659458622336387,0.07463058583140372,0.24009236618876456
1733515995659600600,6.0446005859375,-0.01970072576999664,0.06299918474853039,0.30835663185864687
1733515995669677800,6.054677734375,0.0007031067680567503,0.05728782136440277,0.3115595195531845
1733515995679754800,6.064754638671875,0.010260697251558303,0.052452071771025656,0.25262948393970724
1733515995689831700,6.074831787109375,0.026731866515800354,0.04771919803023338,0.16049597464352844
1733515995699908600,6.08490869140625,0.05413666385710239,0.01629413219690323,0.0574649314969778
1733515995709985800,6.09498583984375,0.10468955094330012,-0.008023731979727744,-0.03024140900671482
1733515995720063700,6.105063720703125,0.1320305623333901,-0.010404489636421203,-0.0820347246080637
1733515995730140700,6.115140625,0.1519780294060707,-0.028024317479133604,-0.07335895846039056
1733515995740217600,6.125217529296875,0.1531985841769725,-0.019441782572865485,-0.02150719067007303
1733515995750294800,6.135294677734375,0.11151282109208405,0.009808861830830573,0.034820845751464366
1733515995760371700,6.145371826171875,0.0498195313103497,0.032252748829126356,0.09799392576217651
1733515995770448600,6.15544873046875,-0.03233684691600501,0.04148293398916721,0.1140738306865096
1733515995780526600,6.165526611328125,-0.10013086472563446,0.02867547486424446,0.10348141726255417
1733515995790603500,6.175603515625,-0.14406352995447813,0.033301381099224085,0.06611702450811863
1733515995800680700,6.1856806640625,-0.16541852573752402,0.028320670077204704,0.01140197624117136
1733515995810757600,6.195757568359375,-0.13559680344760416,0.015583938100934027,-0.05029810860753059
1733515995820834600,6.20583447265625,-0.0718821639060974,0.008873626807332039,-0.0919794877782464
1733515995830912500,6.21591259765625,-0.0014735066186636685,0.030564065089821815,-0.07924626293331384
1733515995840989700,6.22598974609375,0.03755443543381989,0.0739911188840866,-0.012544424274563789
1733515995851066600,6.236066650390625,0.025144378128647803,0.06573591623604297,0.1043099770411849
1733515995861143600,6.2461435546875,-0.025219196930527685,0.015644728377461434,0.1824941637009382
1733515995871220500,6.256220458984375,-0.06834697551727295,-0.03245733149051666,0.20485884798318146
1733515995881297700,6.266297607421875,-0.055258945885300635,-0.04029518550932407,0.1875862261429429
1733515995891376000,6.276376220703125,-0.013833879563212394,-0.019342413851618764,0.1529609029635787
1733515995901453000,6.286453125,0.042806291547417635,-0.002208323699235916,0.10538841992765664
1733515995911530000,6.296530029296875,0.04781622866392135,0.004686696511507034,0.03193798379153013
1733515995921607000,6.30660693359375,0.013820947016403079,-0.002129997766017914,-0.03023614830970764
1733515995931684000,6.31668408203125,-0.0048643911659717555,0.010304536393284797,-0.05605214208960533
1733515995941762000,6.326761962890625,0.00814940418601036,0.039513679742813106,-0.060413844430446624
1733515995951839000,6.3368388671875,-0.01587619904577732,0.03189560595452785,-0.04172375700771808
1733515995961916000,6.346916015625,-0.0928044673603028,-0.0177899237126112,0.0014981296032667158
1733515995971993000,6.3569931640625,-0.14421207157969473,-0.02031213566660881,0.01602349856197834
1733515995982070000,6.367070068359375,-0.1581079104632139,0.042836686685681344,0.02596007842570543
1733515995992147000,6.37714697265625,-0.16772804478891193,0.12444880196750163,0.04635580072253942
1733515996002225000,6.387224853515625,-0.19103702418394386,0.14888941574096679,0.06511544625014067
1733515996012301800,6.3973017578125,-0.18231763809025286,0.11901859361231326,0.07381400875151158
1733515996022379000,6.40737890625,-0.15157587834596634,0.05310848985314369,0.10026450104266404
1733515996032456000,6.4174560546875,-0.04895195469558239,-0.008651508489251137,0.14162994613200425
1733515996042532900,6.427532958984375,0.03469838841557502,-0.0608504822820425,0.1598252357751131
1733515996052610800,6.43761083984375,0.04482764130719006,-0.09709785370528698,0.1496279591485858
1733515996062688000,6.44768798828125,0.0650070174396038,-0.08016776169240475,0.09698241063207387
1733515996072765000,6.457764892578125,0.0703841073680669,-0.03666647361814976,0.02259644721150398
1733515996082841900,6.467841796875,0.05781272202134132,0.02812602428793907,-0.03629091830402612
1733515996092918800,6.477918701171875,0.02192716964781284,0.06864332811534404,-0.07953472448587418
1733515996102996000,6.487995849609375,-0.04903729489147663,0.09150281017720699,-0.09014642713218927
1733515996113074000,6.498073974609375,-0.09404365376643836,0.07679039421379566,-0.05892857430875301
1733515996123150800,6.50815087890625,-0.11273198762349784,0.05137304436266422,-0.0023196751192212104
1733515996133227800,6.518227783203125,-0.1106301930386573,0.02582242352068424,0.054497606123983855
1733515996143304700,6.5283046875,-0.1140583408564329,-0.013435820156335829,0.07283551910817623
1733515996153382000,6.5383818359375,-0.11703647988438605,-0.0009650456398725509,0.06653408087641001
1733515996163460000,6.548460205078125,-0.0905132146179676,0.03029576954245567,0.062114510868489736
1733515996173537000,6.558537109375,-0.04818265082351863,0.05832827032804489,0.07192132687270641
1733515996183614000,6.568614013671875,-0.0008843085538595914,0.0652858343809843,0.08994622838497161
1733515996193691100,6.578691162109375,0.03588613689541816,0.048317748445272445,0.11578151138722896
1733515996203768000,6.58876806640625,0.08769457700066267,0.03247895880043507,0.133806705160439
1733515996213845000,6.598844970703125,0.11249233364872634,0.017001403683423996,0.1719762768179178
1733515996223923000,6.6089228515625,0.10501754078865051,0.016135726764798162,0.20090806453078985
1733515996234000000,6.618999755859375,0.05716865196414291,-0.016295885762572286,0.15953385161310432
1733515996244077000,6.6290771484375,0.006642506754398345,-0.026259645894169806,0.08739011416137218
1733515996254154000,6.639154052734375,-0.005583937612175941,-0.009824059399962424,-0.00395838223695755
1733515996264231000,6.64923095703125,-0.004566796458885074,-0.0262859493792057,-0.08802402815073727
1733515996274308900,6.659308837890625,-0.004970701084658503,-0.05527180536687374,-0.1562196124985814
1733515996284385800,6.6693857421875,0.007046411380171776,-0.093449852591753,-0.18447861551642417
1733515996294463000,6.679462890625,0.04508943404853344,-0.08932721970379352,-0.1611769426450133
1733515996304540000,6.689539794921875,0.07177979951016604,-0.03976911580860615,-0.08087006474286318
1733515996314616800,6.699616943359375,0.07556983944289386,0.017687632381916046,0.016254092447459696
1733515996324694000,6.709694091796875,0.04506188845448195,0.060418520605564116,0.10064210218340158
1733515996334772000,6.71977197265625,0.011871128122881054,0.0950531961351633,0.17840894021391868
1733515996344849000,6.729848876953125,-0.03757255561240017,0.12059095749557018,0.22328853090405462
1733515996354925800,6.73992578125,-0.10858889646939933,0.10505378114581107,0.22548019572943448
1733515996365002800,6.750002685546875,-0.17322766511850057,0.07426525965034961,0.18207155437469483
1733515996375080000,6.760079833984375,-0.21903430752567946,0.036387656676769256,0.12756693398803473
1733515996385156900,6.770156982421875,-0.2140430751096457,0.01395253750681877,0.04698562305867671
1733515996395234800,6.78023486328125,-0.15773096690960228,-0.007580079865455627,-0.006243570564687251
1733515996405311700,6.790311767578125,-0.06680909842550754,0.005945756661891937,-0.03562280978411436
1733515996415389000,6.800388916015625,0.03668861238472163,0.0519838697373867,-0.021387655943632126
1733515996425465900,6.8104658203125,0.1078015454839915,0.10478840820789337,0.02958294509798288
1733515996435542800,6.820542724609375,0.13208565352149307,0.119030284050107,0.08863952970057726
1733515996445621000,6.83062109375,0.13768880729079247,0.09011866234242916,0.14040829538255928
1733515996455698000,6.840697998046875,0.13023447269685565,0.013354571613669394,0.16931816352456808
1733515996465775000,6.850775146484375,0.12558986176140605,-0.0633469752728939,0.19401625919044016
1733515996475852000,6.86085205078125,0.08331957678683102,-0.08703414033055305,0.17596563871502877
1733515996485929000,6.870928955078125,0.004778977904841304,-0.045022798553109165,0.10364566791355609
1733515996496006000,6.881005859375,-0.08086034706644714,0.012076222240924835,0.04175093727558851
1733515996506083800,6.891083740234375,-0.14290040445923805,0.06397066012918949,-0.008044482506811619
1733515996516161000,6.9011611328125,-0.19605331797599793,0.07860299659371375,-0.04176818067133426
1733515996526238000,6.911238037109375,-0.20610760593526065,0.03887187470793724,-0.060011108848452566
1733515996536315000,6.92131494140625,-0.193365686327219,-0.025543022057414055,-0.04575812709033489
1733515996546392000,6.93139208984375,-0.15113639095015824,-0.031520927423238754,0.005497136111557483
1733515996556470000,6.941469970703125,-0.12132036774866282,-0.00943126069009304,0.07272241412252187
1733515996566547000,6.951546875,-0.09814765501916407,0.017230536264181136,0.13239479253590106
1733515996576623900,6.961623779296875,-0.05767243676781654,0.051315176695585246,0.14845628502070904
1733515996586700800,6.97170068359375,0.00737082102894783,0.09905366394817829,0.13958587308377027
1733515996596778000,6.981778076171875,0.09987024102807045,0.12201193020939827,0.12068711134642363
1733515996606855000,6.99185498046875,0.14383797757029532,0.0815203453451395,0.10177432108372449
1733515996616932900,7.001932861328125,0.12508695374056697,-0.02972586070001125,0.08964432282894849
1733515996627009800,7.012009765625,0.08433240709118545,-0.11736848831772803,0.051883039711415765
1733515996637087000,7.0220869140625,0.0857558640230447,-0.11870587440133094,-0.005557049605250358
1733515996647164000,7.032163818359375,0.08708908538818359,-0.05322422518730163,-0.04274111735671758
1733515996657240800,7.04224072265625,0.05001929166615009,0.02990063274502754,-0.06332125630974769
1733515996667318800,7.05231884765625,-0.022243469055369496,0.04555062181949615,-0.04268354195058346
1733515996677395700,7.062395751953125,-0.06218794143088162,0.021601590955257415,-0.011183949576318263
1733515996687473000,7.072472900390625,-0.07151040798425674,0.03354161959588527,0.034035248331725595
1733515996697549800,7.0825498046875,-0.0697569153804332,0.0466553681910038,0.06965484324544667
1733515996707626800,7.092626708984375,-0.06408588400669396,0.07650222492218017,0.08309212470650672
1733515996717704000,7.102703857421875,-0.09082008861005306,0.07465455122888087,0.08650485575944185
1733515996727782000,7.112781982421875,-0.1199362929791212,0.06711772598326206,0.10075988334417342
1733515996737859000,7.122859130859375,-0.09848024797439575,0.04825637364685535,0.11119272229224443
1733515996747936000,7.13293603515625,-0.05688683934807777,0.015599720191955565,0.14385375966131686
1733515996758013000,7.143012939453125,-0.008557984986901282,-0.05378244359195232,0.15328794296085835
1733515996768090000,7.153090087890625,0.022953590086102486,-0.09761047940254211,0.12963351112902163
1733515996778168000,7.16316796875,0.0572995118021965,-0.07986205674409866,0.0725835901737213
1733515996788245000,7.173244873046875,0.09767886846363544,-0.014683774390816688,0.00286561856418848
1733515996798322000,7.183322021484375,0.11822196334190666,0.03403027989566326,-0.04183013999164104
1733515996808398800,7.19339892578125,0.11678922712504863,0.04897708913683891,-0.06133885032087564
1733515996818476000,7.20347607421875,0.07638364004381,0.04648994849622249,-0.040464112335443496
1733515996828553000,7.213552978515625,0.04697692829556763,0.057549687170982355,0.011688391967117786
1733515996838631000,7.223630859375,0.010815993046760558,0.060036243289709086,0.08801964423656464
1733515996848707800,7.233707763671875,-0.04422726426124572,0.05627192232012748,0.12875760507732628
1733515996858785000,7.243784912109375,-0.11505144354701041,0.049771454384922975,0.12193301975429058
1733515996868862000,7.253862060546875,-0.13838679949231444,0.061492871838808055,0.09365531203597784
1733515996878939000,7.26393896484375,-0.09776479318141937,0.0896335091739893,0.0789171771094203
1733515996889015800,7.274015869140625,-0.04296528150141239,0.0905611454129219,0.057848962378501886
1733515996899093800,7.28409375,0.0029167642295360565,0.049753334206342696,0.07432517314404248
1733515996909171000,7.2941708984375,0.0293751475661993,-0.010227964025735855,0.09568184942752123
1733515996919248000,7.304247802734375,0.03570727319717407,-0.01179272912442684,0.10350275231152772
1733515996929324800,7.31432470703125,0.03445997654981911,0.015042086309194564,0.09907733708471059
1733515996939402000,7.324402099609375,-0.006737199300527573,0.016308160722255705,0.07441752760261297
1733515996949480000,7.33447998046875,-0.05151566770374775,-0.016732523614168167,0.03353869698643684
1733515996959556900,7.344556884765625,-0.09442834223508834,-0.05198328521549701,-0.031029929035902022
1733515996969633800,7.3546337890625,-0.07065992863476275,-0.03540215277075767,-0.07860153528898954
1733515996979710700,7.364710693359375,-0.02219071595482528,0.02787818700671196,-0.1032008467555046
1733515996989788000,7.374787841796875,0.013805311055853963,0.053985272687673565,-0.07611264108270406
1733515996999864800,7.38486474609375,0.012515709636732935,0.06884849529862404,-0.018635434626042842
1733515997009942800,7.39494287109375,-0.013722820404171943,0.06612403877079487,0.04936112001836299
1733515997020019700,7.405019775390625,-0.00981470704972744,0.08482114045619964,0.13933189832270146
1733515997030097000,7.415096923828125,0.0065806204993277785,0.07539981663823127,0.2147781844511628
1733515997040173800,7.425173828125,-0.020337270107865332,0.014050737184286117,0.23044717048704622
1733515997050250800,7.435250732421875,-0.020437150285765527,-0.07448737796843051,0.21636136198937891
1733515997060328700,7.44532861328125,0.021792218156531453,-0.12389876686930655,0.149590257486701
1733515997070405600,7.455405517578125,0.06783778388611972,-0.07891162415146827,0.048319794271886346
1733515997080482800,7.46548291015625,0.07463760009407996,0.014620646026730537,-0.042213878612220285
1733515997090559700,7.475559814453125,0.009678586514666677,0.051664720785617825,-0.07990998753905296
1733515997100636700,7.48563671875,-0.0854202753931284,0.07183715572059154,-0.08528495857566594
1733515997110713600,7.495713623046875,-0.1342670161485672,0.0669505527228117,-0.05307780245393514
1733515997120791600,7.50579150390625,-0.1561555342864245,0.048348143583536146,-0.00026858780831098556
1733515997130868700,7.51586865234375,-0.12076741004101932,-0.00298632233440876,0.05095335764586925
1733515997140945700,7.525945556640625,-0.05874320780448615,-0.01756196017563343,0.08406973756700754
1733515997151022600,7.536022705078125,0.016291794109344483,-0.006192424899339676,0.10565846904069184
1733515997161099800,7.546099853515625,0.07948445560336112,0.0334533567905426,0.1346560154661536
1733515997171176700,7.5561767578125,0.10156995761804281,0.07502163097560405,0.14370529110133648
1733515997181255000,7.5662548828125,0.0750800100993365,0.08880348809063435,0.13247370299100875
1733515997191331800,7.576331787109375,0.03873626562952995,0.06683832451999187,0.10875175888091325
1733515997201408800,7.58640869140625,-0.0031504999201744793,0.016831892335414884,0.0873234786659479
1733515997211486000,7.59648583984375,-0.01565875690281391,-0.015126841983199118,0.06474836650341749
1733515997221563000,7.60656298828125,-0.005671031373739242,-0.011394669717550278,0.06088029289841652
1733515997231640800,7.616640869140625,-0.0197935916852206,0.012286650121212005,0.07009703405499458
1733515997241717800,7.6267177734375,-0.03230352916829288,0.04595043479204178,0.06663695672899485
1733515997251794700,7.636794677734375,-0.03922784853875637,0.08102642434835433,0.07692717233598231
1733515997261871900,7.646871826171875,-0.037895723152160644,0.10469254661798477,0.09182137460708617
1733515997271948800,7.65694873046875,-0.004219078999757766,0.05926525891721248,0.09569675473570823
1733515997282025700,7.667025634765625,0.01981419608183205,-0.029735213050246238,0.070950436013937
1733515997292103700,7.677103759765625,0.03000007453151047,-0.12377718631625174,0.027007249391078948
1733515997302180900,7.687180908203125,0.021212883898615836,-0.15589607963263988,-0.02028817026913166
1733515997312257800,7.6972578125,-0.0016273089408874511,-0.14012860165834426,-0.0851955267265439
1733515997322334700,7.707334716796875,-0.0335748642783612,-0.0868400790631771,-0.12679711865931748
1733515997332411600,7.71741162109375,-0.0646492169778794,-0.017121230670809746,-0.11121376508027314
1733515997342489600,7.727489501953125,-0.10899572370462118,0.032492402803897855,-0.0805988465860486
1733515997352566800,7.73756689453125,-0.12671433574669064,0.07737199349403381,-0.01426145732551813
1733515997362643700,7.747643798828125,-0.10858319738097488,0.11881050381958484,0.04893120416849851
1733515997372720600,7.757720703125,-0.08105506592094898,0.119783732765913,0.10288929658830165
1733515997382797800,7.7677978515625,-0.04643441891670227,0.08836334310770035,0.13210194706916809
1733515997392874800,7.777874755859375,-0.009644611179828642,0.02491875267922878,0.14484890817850826
1733515997402952700,7.78795263671875,0.02359137653298676,-0.02016132901906967,0.14356763619631527
1733515997413029600,7.798029541015625,0.05878251690156758,-0.022784663259983063,0.14331599952280522
1733515997423106600,7.8081064453125,0.0673562839794904,0.0050385786890983575,0.15402181019335984
1733515997433183700,7.818183837890625,0.03454692418090999,0.0499491490393877,0.14472206692844627
1733515997443260700,7.8282607421875,-0.005558876236155629,0.08249883498847484,0.13195026363879442
1733515997453339000,7.8383388671875,-0.02184358301758766,0.09059972385764122,0.1287590663820505
1733515997463415800,7.848415771484375,-0.02468779346756637,0.06951718834042549,0.12218407190591096
1733515997473492700,7.85849267578125,-0.004670914420485496,0.0520621956706047,0.11482523357570171
1733515997483570000,7.86856982421875,0.0356318698734045,0.017870587733387944,0.11597118874043226
1733515997493646800,7.878646728515625,0.10763327624499797,-0.0007470189750194549,0.11491583446860312
1733515997503723800,7.888723876953125,0.1566495283484459,-0.010156067833304404,0.12097352707237005
1733515997513801700,7.8988017578125,0.1859106941461563,-0.03191489517688751,0.13137041792422532
1733515997523879000,7.90887890625,0.15492102405540645,-0.05951251167654991,0.10360592042505741
1733515997533955800,7.918955810546875,0.11090316476114094,-0.08073065627217292,0.044810324846208095
1733515997544032800,7.92903271484375,0.054987727728486056,-0.053984688165783876,-0.03308598478287458
1733515997554109700,7.939109619140625,-0.01742277090065181,-0.02353402032256126,-0.13201280748099087
1733515997564187000,7.949186767578125,-0.08242803477458656,0.01090308680832386,-0.19834464378356934
1733515997574264800,7.959264892578125,-0.13953122028708456,0.029627076500654218,-0.22382746008634566
1733515997584341800,7.969341796875,-0.15484868947155772,0.02923895396590233,-0.20563860018402336
1733515997594418700,7.979418701171875,-0.12294365810155868,0.03137245886325836,-0.1236161505356431
1733515997604496000,7.989495849609375,-0.0826706844240427,0.008489011403918266,-0.03756459150165319
1733515997614572800,7.99957275390625,-0.03431720707826316,-0.01653846234679222,0.048804655179381366
1733515997624650800,8.009650634765626,-0.00721643418483436,-0.011446107643842697,0.11478314799964427
1733515997634727700,8.019727783203125,0.008338862343505024,0.007046411380171776,0.1346586458146572
1733515997644804600,8.0298046875,-0.000936915523931384,0.04338379917442799,0.1326508131235838
1733515997654881800,8.0398818359375,-0.01574636212103069,0.056980362850427624,0.09408347432017326
1733515997664958700,8.049958740234375,-0.005578603849932551,0.026833646389842033,0.055769525755941865
1733515997675035600,8.06003564453125,0.019177067222073674,-0.030398060873150824,0.03083440646380186
1733515997685113600,8.070113525390624,0.058904097454622384,-0.05838613799512386,0.03359305752217769
1733515997695190800,8.080190673828126,0.06449030008912086,-0.02599719556570053,0.012784955032169818
1733515997705267700,8.090267822265625,0.04241641544699669,0.04844809682667255,-0.006503390544652939
1733515997715344600,8.1003447265625,-0.014169395127892493,0.11304068824648857,0.012306523865461348
1733515997725421600,8.110421630859374,-0.10116970625407994,0.1524970848441124,0.04169190056473016
1733515997735498800,8.120498779296875,-0.16544840941913425,0.14621289000809193,0.08605272807776927
1733515997745577000,8.130576904296875,-0.2015571760892868,0.10898410633206367,0.10641805523633956
1733515997755654000,8.14065380859375,-0.16576975032798946,0.06443067885637282,0.12014379824995994
1733515997765730800,8.150730712890624,-0.09916881476044655,0.049343584361672396,0.11418342854082583
1733515997775807700,8.160807861328125,-0.019859058136865497,0.07779284925460815,0.1096229887574911
1733515997785885000,8.170885009765625,0.013204934009909628,0.08874152877032757,0.109067400701344
1733515997795963000,8.180962890625,0.004465820302441716,0.05006546889543533,0.09752426242381333
1733515997806039800,8.191039794921876,-0.02135192704312503,-0.008640987095236778,0.07826309711486101
1733515997816116700,8.20111669921875,-0.029564532658457755,-0.06145137078464031,0.06288783332854508
1733515997826194000,8.21119384765625,-0.03191314161121845,-0.0730593909919262,0.07733721444159745
1733515997836270800,8.221270751953124,-0.03372165233790874,-0.039245968717336654,0.0947661958873272
1733515997846347800,8.23134765625,-0.031873978644609446,0.0036661212921142577,0.1181412262558937
1733515997856425700,8.24142578125,-0.03247603619098663,0.07576631186306476,0.09509382040649651
1733515997866502700,8.251502685546875,0.0013759645283222197,0.148240011921525,0.07411240717619658
1733515997876579800,8.261579833984374,0.005712605493143201,0.14884031590223312,0.06359510481506586
1733515997886656800,8.27165673828125,0.01853409314341843,0.07372048524916172,0.061388826942443846
1733515997896733200,8.281733154296875,0.029649799789115784,-0.0061263739258050915,0.05114508082568645
1733515997906811100,8.29181103515625,0.0757510412286967,-0.05061316590607166,0.04526186800599098
1733515997916888300,8.301888427734376,0.0840863233756274,-0.05196341147124767,0.034087563040852545
1733515997926965200,8.31196533203125,0.06220365045666694,-0.025548282754421232,0.03426262734681368
1733515997937042200,8.322042236328125,-0.01817629268169403,-0.02135609176158905,0.024569500850141045
1733515997947119400,8.332119384765624,-0.08936112197339534,0.017001988205313682,0.02616524560898542
1733515997957196300,8.3421962890625,-0.14283143087625502,0.05361643937528133,0.00905658215880394
1733515997967274200,8.352274169921875,-0.16867548170685767,0.07223755321502685,-0.0016068506747484207
1733515997977351200,8.36235107421875,-0.16027992074005304,0.09501695577800273,-0.002590601015090942
1733515997987428000,8.372427978515624,-0.14308160624504088,0.08885434149503707,0.019401742823421955
1733515997997505300,8.38250537109375,-0.09695238081999122,0.039757425370812415,0.04817541736513376
1733515998007582200,8.392582275390625,-0.027850056890770792,-0.03524374733865261,0.07840747402161359
1733515998017659100,8.4026591796875,0.07858078476190566,-0.09299451003968714,0.09731325002163647
1733515998027737300,8.4127373046875,0.1844862143009901,-0.13864917675554753,0.10527969885617494
1733515998037814300,8.422814208984375,0.24242285496294497,-0.1591711557805538,0.09790653973966837
1733515998047891500,8.432891357421875,0.24332068058550357,-0.16701485501825808,0.0612885814383626
1733515998057968400,8.442968505859374,0.19488485871851444,-0.09495791906714439,0.015447452239692211
1733515998068045300,8.45304541015625,0.1153841095674783,0.006714987468719482,-0.025385785669088362
1733515998078123300,8.463123291015625,0.022773630409315227,0.08091828779876231,-0.039143092864751816
1733515998088200400,8.473200439453125,-0.06304353534691036,0.10288111328184604,-0.023463000912964344
1733515998098277400,8.48327734375,-0.09402560665309428,0.09330138403177261,0.012714520144462584
1733515998108354300,8.493354248046876,-0.0934364085882902,0.10673135896921157,0.0927180311858654
1733515998118431200,8.50343115234375,-0.06545066955387592,0.11737491805851459,0.18031740418374537
1733515998128508400,8.51350830078125,-0.038591231135651466,0.10356091223955154,0.26261779399067164
1733515998138586400,8.52358642578125,0.003700608083605766,0.048480245530605315,0.3013207418724894
1733515998148663300,8.533663330078125,0.06369819986335933,0.0037543840974569318,0.2738347690537572
1733515998158740200,8.543740234375,0.14242635720670221,0.0030617256581783295,0.20115619407296179
1733515998168817400,8.5538173828125,0.21662680799253284,0.030852818903326987,0.10588438675105571
1733515998178894300,8.563894287109376,0.20676234351694583,0.055585693621635436,0.011930384029448031
1733515998188972300,8.57397216796875,0.11057641702480614,0.04908522568643093,-0.05095481895059347
1733515998199049200,8.58404931640625,-0.023010873231291768,0.026101824983954428,-0.06636281596273183
1733515998209126100,8.594126220703124,-0.14159282899200915,0.02780921342372894,-0.06382832904905081
1733515998219203300,8.604203369140626,-0.22605748416073618,0.00005903671085834503,-0.09208908563256263
1733515998229280300,8.6142802734375,-0.2685240223597735,-0.035761049211025235,-0.11529518917500972
1733515998239357200,8.624357177734375,-0.28613749352693557,-0.049041386544704434,-0.15210662422180174
1733515998249435100,8.63443505859375,-0.25865970401465893,-0.045185880160331725,-0.20419892276972532
1733515998259512000,8.644511962890626,-0.2255600560326129,-0.052204234489798544,-0.2576791685447097
1733515998269589200,8.65458935546875,-0.18338906671404837,-0.06255845524370669,-0.2906897500038147
1733515998279666200,8.664666259765625,-0.10938340784795582,-0.08844868330359458,-0.29296617050319906
1733515998289743000,8.6747431640625,-0.03802249133698642,-0.12474047839045524,-0.2408873159587383
1733515998299820300,8.6848203125,0.02406125906705856,-0.12100246090590953,-0.15275602804124355
1733515998309898500,8.6948984375,0.04706928275413811,-0.08690262290537357,-0.05065203661173582
1733515998319975400,8.704975341796874,0.02970255288966,-0.01911269674897194,0.04903700263053178
1733515998330052400,8.71505224609375,-0.024200959798693654,0.050186464926600456,0.13682488393783568
1733515998340129300,8.72512939453125,-0.09058218820095061,0.06974398283362389,0.21831249605715272
1733515998350206500,8.73520654296875,-0.13905717303454876,0.1029746367841959,0.2466781743198633
1733515998360284400,8.745284423828124,-0.1860153235644102,0.11010112766325474,0.20952683979421852
1733515998370361300,8.755361328125,-0.16413849586434662,0.08968202449083328,0.1366790457263589
1733515998380438300,8.765438232421875,-0.07387187641859054,0.08787117567658424,0.0848079887136817
1733515998390515200,8.77551513671875,0.02824585127532482,0.09081015173792839,0.08393938918560742
1733515998400592400,8.78559228515625,0.10362696321308612,0.09055120854079723,0.09662263740897178
1733515998410669300,8.79566943359375,0.12185936999619007,0.08033727304041385,0.13844956253021953
1733515998420747300,8.805747314453125,0.10199906975030898,0.08429740884304046,0.19994389567375181
1733515998430824200,8.81582421875,0.052773558810353276,0.06320844358503819,0.2772922160312533
1733515998440901400,8.8259013671875,-0.01611059232354164,0.0304383928835392,0.3091121264010668
1733515998450978300,8.835978271484375,-0.10418401257395744,-0.022640286353230475,0.2555874569624662
1733515998461055200,8.84605517578125,-0.18509411706626414,-0.062037061718106266,0.10403642079681158
1733515998471133200,8.85613330078125,-0.18584354719407856,-0.06297580387294292,-0.09162614429593086
1733515998481210000,8.866210205078126,-0.1522965938359499,-0.056276598495244974,-0.27432021448314187
1733515998491287300,8.876287353515625,-0.14313896245546637,-0.05980769523084163,-0.41698856375217436
1733515998501364200,8.8863642578125,-0.10125738453753291,-0.07068564759790896,-0.48997781211733815
1733515998511441200,8.896441162109374,-0.04876724577844142,-0.07197276479899883,-0.4682105092063546
1733515998521518300,8.906518310546875,-0.016253215664625165,-0.053773675763607025,-0.3528027995675802
1733515998531596300,8.91659619140625,-0.00003039513826370239,-0.006215221253037452,-0.19635785388052462
1733515998541673200,8.926673095703125,-0.005904913194850087,0.06486380957663058,-0.034332769973576066
1733515998551750100,8.936750244140624,-0.024355346642807123,0.1332651456296444,0.1265150868475437
1733515998561827000,8.9468271484375,-0.024526027034595606,0.15783493874073026,0.24263211379945276
1733515998571904300,8.956904296875,-0.023684826970100402,0.13267360947728157,0.3285299435764551
1733515998581981200,8.966981201171874,0.01757891131043434,0.08027940537333488,0.35335604953616856
1733515998592059400,8.977059326171876,0.10881919809393584,0.028809330376982686,0.34204584323167797
1733515998602136300,8.98713623046875,0.23213928829245267,-0.0029530045866966244,0.2936412932857871
1733515998612213200,8.997213134765625,0.31745902592055497,-0.016519173124432563,0.2302268057346344
1733515998622290400,9.00729052734375,0.35552842513918875,-0.0006745382606983184,0.19558043976724146
1733515998632367400,9.017367431640626,0.32460955526232715,0.025005261918902396,0.19414660757184027
1733515998642445300,9.0274453125,0.24821305573694408,0.02655482944846153,0.19846622433662414
1733515998652522200,9.037522216796875,0.15815532980151473,0.05103109905719757,0.19639263293296097
1733515998662599400,9.047599365234374,0.09259820419847965,0.07012275301814079,0.18602555269747972
1733515998672676400,9.05767626953125,0.05379296498596668,0.07837327949106693,0.17209347345679998
1733515998682753300,9.067753173828125,0.04219897330403328,0.07175064648091793,0.12293868966549634
1733515998692830200,9.077830322265624,0.03463701361715794,0.06217559340596199,0.06693652419745921
1733515998702908200,9.087908203125,0.05386544570028782,0.03338672129511833,0.016194763475656508
1733515998712985300,9.0979853515625,0.05599785461910069,0.007992752319574355,0.01561433323919773
1733515998723062300,9.108062255859375,0.045001244308426974,-0.018237082958221434,0.023444296212494373
1733515998733139200,9.11813916015625,0.007447393396496772,-0.016025836649537085,0.05216770187169313
1733515998743216400,9.12821630859375,-0.037413419527933,0.000886135184764862,0.08430091597437858
1733515998753293300,9.138293212890625,-0.10756788285858929,-0.011629647517204285,0.09427198262959718
1733515998763371300,9.148371337890625,-0.1598380952566862,-0.024874329015612602,0.07229132922887802
1733515998773448200,9.1584482421875,-0.1804788052905351,-0.028571429967880247,0.033115795399248596
1733515998783525000,9.168525146484376,-0.15149762547798454,-0.01758241844177246,-0.014625614462792872
1733515998793602300,9.178602294921875,-0.08973989215791225,0.03764788587093353,-0.06633008273690938
1733515998803679200,9.18867919921875,-0.027776553263142705,0.09015431817770003,-0.0896808554470539
1733515998813757200,9.198757080078124,-0.036916064465045924,0.11699614787399767,-0.08647329157739878
1733515998823834000,9.208834228515625,-0.05918050324320793,0.05686638108193874,-0.0566764114677906
1733515998833911300,9.218911376953125,-0.05284143641479313,-0.018176877203583717,-0.020696166548132895
1733515998843988200,9.22898828125,-0.00936469825990498,-0.06039338616430759,0.014845979215204716
1733515998854065200,9.239065185546876,0.03496609944105148,-0.09362111750543117,0.035998949620127674
1733515998864142000,9.24914208984375,0.0729359838079661,-0.11584113261997699,0.028602409628033638
1733515998874220300,9.25922021484375,0.07184709259271621,-0.1014671548306942,-0.017586510095000268
1733515998884297500,9.26929736328125,0.08223112396299838,-0.02602291452884674,-0.045207507470250125
1733515998894374400,9.27937451171875,0.07480769596397877,0.07295125444233418,-0.049317573137581346
1733515998904451300,9.289451416015625,0.01931435680091381,0.10520634135901927,-0.03853489783853292
1733515998914528300,9.2995283203125,-0.0384510189473629,0.06628770489990711,-0.013115209899842738
1733515998924605400,9.30960546875,-0.06119878426305949,0.036355507972836494,0.034214696551859373
1733515998934683400,9.319683349609376,-0.05430149902999401,0.04291209000945091,0.0867427561685443
1733515998944760300,9.32976025390625,-0.06935469125509262,0.08672785086035728,0.1297311262845993
1733515998954837200,9.339837158203125,-0.1097444962453097,0.11620353619158268,0.16103490382581948
1733515998964914400,9.34991455078125,-0.15480112400278448,0.10966624337732792,0.1630266621649265
1733515998974991400,9.359991455078125,-0.16158055500984192,0.12338964830338954,0.16546528748869896
1733515998985069300,9.3700693359375,-0.13568382414393126,0.0957856020629406,0.13788491438478231
1733515998995146200,9.380146240234374,-0.10320369629971682,0.03909399302601814,0.09635726447105407
1733515999005223200,9.39022314453125,-0.07707790591828524,-0.017757775008678436,0.03961509429067373
1733515999015300400,9.40030029296875,-0.04097724948935211,-0.059788406008481974,-0.029289515109360217
1733515999025377300,9.410377197265625,-0.008738017728924751,-0.06104278998374939,-0.08098580007702112
1733515999035454200,9.4204541015625,0.02751695247888565,-0.03137187434136867,-0.10350713622570037
1733515999045532400,9.430532470703126,0.06859313229806721,-0.009866729497909545,-0.1003945571631193
1733515999055609300,9.440609375,0.07496960852742195,-0.02903495582640171,-0.037466099563241005
1733515999065686500,9.4506865234375,0.05373867751546204,-0.050718964368104934,0.037974049085378644
1733515999075763500,9.460763427734374,0.020585107389092444,-0.05814823758602142,0.09415069433748721
1733515999085840400,9.47084033203125,0.010891396370530129,-0.06672960344851017,0.09911065483242273
1733515999095918300,9.48091845703125,0.04057750958204269,-0.020417349606752396,0.048723406636714935
1733515999105995500,9.49099560546875,0.07257723349817097,0.015308628290891647,-0.007262684479355811
1733515999116072400,9.501072509765624,0.09125095430798828,0.011251461854577064,-0.02788286318182945
1733515999126149400,9.5111494140625,0.0728285779107362,-0.026868717703223226,-0.03711830903887749
1733515999136226300,9.521226318359375,0.06591127280294895,-0.02861000841259956,-0.010141162525117396
1733515999146303500,9.531303466796874,0.05567037623040378,0.005309796845912933,0.04390490043908357
1733515999156381400,9.54138134765625,0.040998365342617034,0.06329670639038086,0.10282967535555362
1733515999166458400,9.551458251953125,-0.009043211220577359,0.11035130303204059,0.1342658471047878
1733515999176535300,9.561535400390625,-0.05772613971643149,0.14271686458587646,0.1533741599395871
1733515999186612500,9.571612548828124,-0.09827690742202103,0.1370551855623722,0.14810060345083476
1733515999196689400,9.581689453125,-0.1025520274579525,0.09047931234836577,0.14661504106819628
1733515999206766300,9.591766357421875,-0.0859603736191988,-0.0011468319475650788,0.11810147876739502
1733515999216844300,9.60184423828125,-0.04001293450184166,-0.07727963903546332,0.058144438193738456
1733515999226921200,9.611921142578124,0.031039792842790483,-0.12924129694104194,-0.00032762451916933057
1733515999236998400,9.621998291015625,0.09230879279784858,-0.1393997028619051,-0.026342355741560457
1733515999247075300,9.632075439453125,0.11861052426807582,-0.11481354313790798,-0.05645195506215095
1733515999257152300,9.64215234375,0.10942425131499767,-0.05915186167061329,-0.08696633579134941
1733515999267230200,9.652230224609376,0.06721475661695003,0.02576981655061245,-0.08200286816507578
1733515999277307400,9.662307373046875,-0.007430953718349337,0.09832418062984943,-0.05336421817988157
1733515999287384300,9.67238427734375,-0.08957673748545349,0.13704817129969596,-0.009874620543420315
1733515999297461200,9.682461181640624,-0.17474859107546506,0.14234627770781516,0.03847352304011583
1733515999307538400,9.692538330078126,-0.19375263981819152,0.10487667101323604,0.0748234780550003
1733515999317615600,9.70261572265625,-0.1353382986418903,0.05165478391349315,0.09675736970454454
1733515999327693600,9.712693603515625,-0.058122445557639,-0.014138415467739104,0.1104702532365918
1733515999337770500,9.7227705078125,-0.0057568830262869596,-0.07343991474211216,0.12662877635508776
1733515999347847400,9.732847412109376,0.04668810141682624,-0.08434592415988444,0.1146577680543065
1733515999357924400,9.74292431640625,0.08671206876933574,-0.04129062628746032,0.09421177687495946
1733515999368001500,9.75300146484375,0.09618249242603778,0.04168050238788128,0.0920052067413926
1733515999378078500,9.763078369140626,0.0645277094900608,0.10637421609461307,0.09921908364295959
1733515999388156400,9.773156494140625,-0.0030943858187645673,0.10351122787892818,0.10837445000112056
1733515999398233300,9.7832333984375,-0.06796345609240234,0.05981529401540756,0.11578180364817381
1733515999408310500,9.793310546875,-0.07690196482948958,0.04248597355186939,0.09980155970603227
1733515999418387500,9.803387451171876,-0.01518105638846755,0.04405775291323662,0.0939662776812911
1733515999428464400,9.81346435546875,0.012826748347282408,0.021514497193694113,0.08937661180347203
1733515999438542300,9.823542236328125,-0.006301803557947278,-0.01656067417860031,0.05560118345171213
1733515999448619300,9.833619384765624,-0.02693542626388371,-0.03285129924416542,0.005782090532779693
1733515999458696400,9.843696533203126,-0.016964067347720265,-0.0425683911383152,-0.049930152077972884
1733515999468773400,9.8537734375,-0.005309869911149144,-0.043590135401487345,-0.09454203174263238
1733515999478850300,9.863850341796875,-0.020574659060314297,-0.033871874463558195,-0.10697773494571447
1733515999488927500,9.873927490234376,-0.04776427928097546,-0.021081366473436353,-0.1076841296494007
1733515999499005400,9.88400537109375,-0.0692729312557727,-0.004034954604506492,-0.07822773354053497
1733515999509082400,9.894082275390625,-0.10278883188851178,0.03571721006929874,-0.03786182088255882
1733515999519159300,9.9041591796875,-0.11082819982878864,0.07859364424347877,0.010771569383144377
1733515999529236200,9.914236328125,-0.1280319211512804,0.09241524884700775,0.06042845747768879
1733515999539313400,9.9243134765625,-0.13223755614757537,0.07451777310669422,0.0905240282729268
1733515999549390300,9.934390380859375,-0.1237870501231402,0.04579436744749546,0.10240063628852367
1733515999559468500,9.944468505859374,-0.0746148037403822,-0.0003004442512989044,0.09359744436889886
1733515999569545500,9.95454541015625,-0.0016705635607242584,-0.048343467408418654,0.09647299980521201
1733515999579622400,9.964622314453125,0.07330364807657896,-0.06705693570673465,0.0830345493003726
1733515999589699600,9.974699462890625,0.1217664310157299,-0.020081249520182608,0.052932256503403184
1733515999599776500,9.984776611328124,0.10158880844898521,0.06348784504830837,0.04500350933074951
1733515999609854500,9.9948544921875,0.02843647847659886,0.0866875188499689,0.057656070154905315
1733515999619931400,10.004931396484375,-0.039946810463070866,0.07731003417372703,0.0729953858450055
1733515999630008600,10.015008544921875,-0.07929382840208708,0.05562544111013412,0.08006371679604053
1733515999640085500,10.02508544921875,-0.07887545685954392,0.02745557768046856,0.06521656853705644
1733515999650162400,10.035162353515625,-0.05437924044132232,-0.00125613754093647,0.04690671260356903
1733515999660239400,10.0452392578125,-0.043138884502649306,-0.030528993776440617,0.019584405913949013
1733515999670317300,10.0553173828125,-0.00926708310432732,-0.050263621816039085,0.008437573477625847
1733515999680394500,10.06539453125,0.003274491626024246,-0.04775894551873207,-0.010141162525117396
1733515999690471400,10.075471435546875,0.023302622719481587,-0.014938625934720038,-0.02935118216872215
1733515999700548400,10.08554833984375,0.038576764218881725,0.01476385388970375,-0.04413987823873758
1733515999710625500,10.09562548828125,0.0614087737519294,0.02701017200052738,-0.0670356006577611
1733515999720703500,10.105703369140626,0.06792955382280051,0.023448095604777335,-0.0717842564895749
1733515999730780400,10.115780517578125,0.059387423992156976,0.032138182538747784,-0.0647653176382184
1733515999740857300,10.125857421875,0.07490187705345451,0.03280687558054924,-0.006245324130356312
1733515999750934300,10.135934326171874,0.06403788014650344,0.018771335965394972,0.07429448574483394
1733515999761011500,10.146011474609375,0.01308518008776009,-0.0236544318318367,0.1126189557030797
1733515999771088400,10.15608837890625,-0.028576617599651216,-0.04779518587589263,0.09963175609707832
1733515999781166300,10.166166259765625,-0.053358592156693335,-0.04871346976459026,0.04951514153629541
1733515999791243300,10.1762431640625,-0.057840779072046274,-0.0135112234801054,-0.02280424474328756
1733515999801320200,10.1863203125,-0.05216974769830703,0.016633154892921446,-0.11102408772706984
1733515999811397400,10.1963974609375,-0.044939211922883984,0.01606792222559452,-0.15604805532395838
1733515999821474300,10.206474365234374,-0.022824922205135226,-0.0047451487004756925,-0.1511497618883848
1733515999831551200,10.21655126953125,-0.019230697105452416,-0.01527706410884857,-0.09641747022569179
1733515999841629400,10.22662939453125,-0.0021849428236484524,-0.056022915995121,-0.028766660279035565
1733515999851706600,10.23670654296875,-0.008559811617806553,-0.049400867506861686,0.026951135289669036
1733515999861783600,10.246783447265624,0.005232128499820828,-0.00599310293495655,0.060548576726019376
1733515999871860500,10.256860595703126,0.011895093520358203,0.03983165965080261,0.07330021401047707
1733515999881937400,10.2669375,0.003430485905334353,0.09046236121356487,0.0855979700475931
1733515999892015400,10.277015380859375,-0.03930792803764343,0.12552139963507652,0.09555559269934892
1733515999902092500,10.287092529296874,-0.10572817327603697,0.13377835584878922,0.1216205928042531
1733515999912169500,10.29716943359375,-0.1545399157833308,0.10937982765138149,0.1487991071090102
1733515999922246400,10.307246337890625,-0.13704057251513002,0.0637000264942646,0.16720277880579232
1733515999932323300,10.3173232421875,-0.09473061311729251,0.012361468923091888,0.17492548201233146
1733515999942400500,10.327400390625,-0.03041099341996014,0.01856616878211498,0.1522439868658781
1733515999952478500,10.337478515625,-0.002531564304232597,0.05736790086328983,0.12830138574242592
1733515999962555400,10.347555419921875,0.023920389291644095,0.08659107273817061,0.09875643456727266
1733515999972632300,10.35763232421875,0.023517726774886248,0.07847498629987239,0.0840647691309452
1733515999982709500,10.36770947265625,0.06207205996625125,0.05186228918433189,0.07172931143194436
1733515999992786400,10.377786376953125,0.08946217119507491,0.024491467177867886,0.07106617134809494
1733516000002863400,10.38786328125,0.12100721014626324,0.0030430209577083584,0.09190642254203557
1733516000012941300,10.39794140625,0.13202771278917788,-0.010537176105380058,0.0973430606380105
1733516000023018200,10.408018310546876,0.11617029150910675,-0.01170037466585636,0.0936976898729801
1733516000033095400,10.418095458984375,0.09133739048242569,-0.03170797442793846,0.07421879016011954
1733516000043172400,10.42817236328125,0.07858721450269222,-0.040429625543951984,0.024701602797210214
1733516000053249300,10.438249267578126,0.07398118201196194,-0.04220540304481983,-0.03188274647295475
1733516000063327200,10.4483271484375,0.0797118346184492,-0.027968203377723693,-0.07805792993158102
1733516000073404400,10.458404296875,0.07557283511757851,-0.02952595421373844,-0.09439210187792778
1733516000083481300,10.4684814453125,0.028404914294555782,-0.03749649470150471,-0.0809977827757597
1733516000093558300,10.478558349609376,-0.018366773752495645,-0.047345688542723655,-0.059948272745311254
1733516000103635200,10.48863525390625,-0.008977087181806565,-0.047291328006982804,-0.02187982337474823
1733516000113712400,10.49871240234375,0.008217866312339901,-0.03415419853627682,0.003276245191693306
1733516000123790600,10.50879052734375,0.03576346036382019,-0.03145487644970417,0.029603403364121914
1733516000133867500,10.518867431640626,0.06815759042501449,-0.03359656465351581,0.048526715020835394
1733516000143944400,10.5289443359375,0.102068043333292,-0.030369419300556182,0.06888882730901241
1733516000154021400,10.539021484375,0.09892105054445564,-0.010727145719528198,0.09657412209212779
1733516000164098600,10.5490986328125,0.06601064152419567,0.0255453601449728,0.09173340406268835
1733516000174175500,10.559175537109375,0.0016215367872267961,0.042589433926343914,0.05337853896617889
1733516000184253400,10.56925341796875,-0.06890870105326176,0.05565817433595657,0.0023208441630005834
1733516000194330400,10.579330322265625,-0.11529511610977351,0.045375265252590176,-0.026731062798202036
1733516000204407600,10.589407470703126,-0.10745148993730544,0.010930559337139129,-0.03431552657783031
1733516000214484500,10.599484375,-0.06573591623604297,-0.023394904112815855,-0.01549099912047386
1733516000224561400,10.6095615234375,-0.007198387071490287,-0.024668577310442922,0.02681231134086847
1733516000234639400,10.619639404296874,0.03947568581998348,0.014866729742288589,0.07943944741785526
1733516000244716300,10.62971630859375,0.05213759899437427,0.07266893036961555,0.11035422564148903
1733516000254793500,10.63979345703125,0.004552767933532595,0.08617606219649314,0.13891805682480335
1733516000264870400,10.649870361328125,-0.07156060380153358,0.08202011156082153,0.15980156263858078
1733516000274947300,10.659947265625,-0.1589887849509716,0.04727496139407158,0.147350369605422
1733516000285024500,10.6700244140625,-0.21930494116060434,0.02710603359043598,0.08989654402434825
1733516000295102500,10.6801025390625,-0.21719306357316673,0.042274961149692536,0.027949206416308877
1733516000305179400,10.690179443359375,-0.15824052386693654,0.07130699436664581,-0.03532733396887779
1733516000315256300,10.70025634765625,-0.09004325901865959,0.09535130229890346,-0.0488750900670886
1733516000325333200,10.710333251953125,-0.01079495025873184,0.09103460814356804,-0.00734334850013256
1733516000335410400,10.720410400390625,0.05019530582018196,0.06731354081630707,0.08195084571689366
1733516000345488400,10.73048828125,0.08272102637179195,0.039622400814294814,0.1715346705302596
1733516000355565300,10.7405654296875,0.08918576540648937,0.006445522877573967,0.2372039512708783
1733516000365642200,10.750642333984375,0.1085245990615338,0.006920154651999473,0.24578473261147735
1733516000375719400,10.760719482421875,0.12536883942186833,0.022248656687140465,0.183050336278975
1733516000385796400,10.77079638671875,0.14490882167220115,0.020564649122953412,0.09203414057493209
1733516000395873300,10.780873291015626,0.12905249637067318,0.018164602243900298,-0.00006108253747224807
1733516000405951500,10.790951416015625,0.0932972923785448,0.008712298765778542,-0.06316548122614622
1733516000416028400,10.8010283203125,0.05814524191133678,0.0023918635725975034,-0.102664840182662
1733516000426105600,10.811105712890624,0.001474091140553355,0.023629881912469862,-0.08687368907183408
1733516000436182500,10.8211826171875,-0.05076638370640576,0.02231470766067505,-0.04682517179995775
1733516000446259500,10.831259521484375,-0.12426175496280192,0.009909984117746353,0.004733166001737118
1733516000456336400,10.84133642578125,-0.18012685004770754,0.0016308160722255706,0.030309505806863306
1733516000466414300,10.851414306640624,-0.22695699028372762,0.01134089370369911,0.028600656062364577
1733516000476491500,10.861491455078125,-0.22102650425620377,0.04435702812075615,0.010996610310673713
1733516000486568400,10.871568359375,-0.1803986527264118,0.05407412001490593,0.0008344049975275993
1733516000496645400,10.881645263671874,-0.11347498801052569,0.0171101247549057,0.0035530163064599034
1733516000506722600,10.89172265625,-0.04549216963052749,-0.0390174206584692,-0.009036123892664909
1733516000516800500,10.901800537109375,0.012970467666909099,-0.07827566433548927,-0.02395019990801811
1733516000526877400,10.91187744140625,0.08295651562809944,-0.08108370749354361,-0.0333162864074111
1733516000536954400,10.921954345703124,0.13343356099911033,-0.06634498804509639,-0.055909811009466646
1733516000547031300,10.93203125,0.14519823307283222,-0.0334141938239336,-0.07183335632830858
1733516000557108500,10.9421083984375,0.13252411800399422,0.011698036578297615,-0.0848486129850149
1733516000567185400,10.952185302734375,0.08164316800720989,0.02552957805395126,-0.07769611088186502
1733516000577263400,10.962263427734374,0.002006079125404358,0.01712882945537567,-0.06547288138568401
1733516000587340300,10.97234033203125,-0.05034655085913837,0.018650339934229848,-0.03158990100622177
1733516000597417500,10.98241748046875,-0.05007825531177222,0.013397826233506202,0.009266425517201422
1733516000607494400,10.992494384765624,-0.021139745597168802,0.01188859071433544,0.03802519475072622
1733516000617571300,11.0025712890625,0.013234233169630169,0.004590250399708748,0.07880553342849016
1733516000627648300,11.012648193359375,0.04545074164159596,0.003767828100919723,0.12554448824971914
1733516000637726200,11.022726318359375,0.06472169769220054,0.01525485227704048,0.1747460337921977
1733516000647803400,11.032803466796874,0.0743003309637308,0.009122633132338524,0.20328765314370392
1733516000657880300,11.04288037109375,0.07284896311163902,0.0010655834048986434,0.20406945117115974
1733516000667957200,11.052957275390625,0.0635690205257386,0.020351298633217812,0.16497253553569316
1733516000678034400,11.063034423828125,0.06748239457719028,0.06548398730158805,0.1272191434636712
1733516000688112400,11.0731123046875,0.04725574523694813,0.089693714928627,0.08557078977972268
1733516000698189600,11.083189453125,0.022921514447405932,0.07611117977797985,0.05559504597187042
1733516000708266500,11.0932666015625,0.012495397501066326,0.0427729737997055,0.03688450028300285
1733516000718343400,11.103343505859375,0.013582608215883373,0.016344401079416274,0.054288055026531216
1733516000728420600,11.113420654296876,0.01674604068286717,0.015429039800167082,0.08831833492219447
1733516000738497500,11.12349755859375,0.012011340311169624,-0.006930091524124145,0.08236001103967427
1733516000748575500,11.133575439453125,0.025911855369806287,-0.04336743256151676,0.03449877419024706
1733516000758652400,11.14365234375,0.06450374409258365,-0.05112286899387836,-0.012810089473426342
1733516000768729300,11.153729248046876,0.11139752414934337,-0.019041385078430173,-0.04052987104803323
1733516000778806500,11.163806640625,0.13469196356236934,0.02716565482318401,-0.030366788952052592
1733516000788883500,11.173883544921875,0.08659392228238284,0.03220832516551018,0.005856909334659576
1733516000798960400,11.18396044921875,0.0020231033254414794,0.022751345512270926,0.03750380122512579
1733516000809038300,11.194038330078126,-0.04938384330682456,0.020488661277294158,0.07172405073493719
1733516000819115500,11.204115478515625,-0.025580358393117782,0.0035182372540235518,0.09958265625834464
1733516000829192400,11.2141923828125,0.009191022193431854,-0.010743512332439422,0.09540127892047166
1733516000839269400,11.224269287109376,0.036442674799636005,-0.025631284862756728,0.07745441108047962
1733516000849346300,11.23434619140625,0.031215880062058565,0.026388240709900854,0.03326689430773258
1733516000859423500,11.244423583984375,0.004514335619285702,0.09100304396152496,0.01625701505690813
1733516000869501400,11.25450146484375,-0.07340184775404632,0.11490180594325065,0.03415449079722166
1733516000879578400,11.264578369140626,-0.15338373148553072,0.0906786343127489,0.04411445153653622
1733516000889655300,11.2746552734375,-0.17118198463506995,0.03374678677916527,0.030765140619874
1733516000899732700,11.284732666015625,-0.1231131694495678,0.013673136043548584,0.02879822446107864
1733516000909810000,11.294809814453124,-0.049068786008283495,0.04522913478016853,0.018400456826388835
1733516000919888000,11.304887939453126,-0.006459039946272969,0.053419455498456954,0.043971535934507845
1733516000929964800,11.31496484375,-0.018737945152446627,0.05281447534263134,0.060813949663937085
1733516000940041700,11.325041748046875,-0.022618732108548284,0.03726443951129913,0.07946049020588397
1733516000950118700,11.33511865234375,-0.026417393739148972,0.005807809495925903,0.07328735452890396
1733516000960195800,11.34519580078125,0.014614216285943985,-0.01061199490725994,0.0570315085157752
1733516000970272800,11.355272705078125,0.02642864578552544,-0.016041618740558622,0.040026305440068244
1733516000980350700,11.365350830078125,0.04469437031634152,-0.024854455271363256,0.011042787539958953
1733516000990427600,11.375427734375,0.05897365555949509,-0.03029401597678661,-0.03377952000498771
1733516001000504800,11.3855048828125,0.06455233247466385,-0.015218027397990226,-0.057545887778699394
1733516001010581800,11.395581787109375,0.05936521216034889,-0.0009773205995559692,-0.046176937024295324
1733516001020658700,11.40565869140625,0.03231368523612618,-0.03696282621622085,-0.02977963671386242
1733516001030735600,11.415735595703126,-0.012980989060923456,-0.08692132760584353,-0.01475508606135845
1733516001040813800,11.425813720703125,-0.04185235182344913,-0.08615034323334693,-0.005890811604261398
1733516001050891000,11.43589111328125,-0.030613164928555488,-0.045106969705224036,-0.01788958469480276
1733516001060968000,11.445968017578124,-0.032961262424662706,0.00516132828593254,-0.03942950859069824
1733516001071044900,11.456044921875,-0.056610360494256017,0.02208791316747665,-0.07008329779058695
1733516001081122000,11.4661220703125,-0.06604622429423034,0.03998129725456238,-0.0810343153938651
1733516001091200000,11.476199951171875,-0.08499766606688498,0.06036591363549232,-0.04036386683136225
1733516001101277000,11.48627685546875,-0.07483451090566813,0.06731587890386581,0.018160802851617336
1733516001111353900,11.496353759765626,-0.05787767701633274,0.04020984531342983,0.0774421361207962
1733516001121430800,11.5064306640625,-0.03281045577712357,0.0026619126856327053,0.13045096499174832
1733516001131508000,11.516508056640625,0.0004816460371017456,-0.009753332251310348,0.18663871615976094
1733516001141585000,11.5265849609375,0.025967384949326513,-0.0018155249893665312,0.21032295860797165
1733516001151662800,11.536662841796876,0.046889834534004325,0.007446224352717399,0.17569003664404154
1733516001161739800,11.54673974609375,0.06043138008713722,0.01045125138759613,0.09698533324152231
1733516001171816700,11.556816650390624,0.0739431150238961,0.00976326912343502,0.04868658175766468
1733516001181894000,11.566893798828126,0.062776554973796,-0.0019756839871406555,0.01662818645685911
1733516001191970800,11.576970703125,0.04372581754513084,-0.020630700096487996,-0.022306524354219436
1733516001202047700,11.5870478515625,0.03627257892973721,-0.009105681997537612,-0.06922726548314094
1733516001212125700,11.597125732421874,0.046916064953804015,0.0235498024135828,-0.06779664815813302
1733516001222203000,11.607202880859376,0.056990884244441986,0.05842588548362255,-0.01764730037152767
1733516001232279800,11.61727978515625,0.04389635180644691,0.03997545203566551,0.038464755211770535
1733516001242356700,11.627356689453125,0.007882862204313277,0.023240590333938597,0.0920531375363469
1733516001252433700,11.63743359375,-0.03399462406039238,0.02950198881626129,0.14946809241175651
1733516001262511600,11.64751171875,-0.04882051033563912,0.021567688685655593,0.16362287449240684
1733516001272588800,11.6575888671875,-0.08452478785812854,-0.005274725532531738,0.1403083421394229
1733516001282665700,11.667665771484375,-0.11875256308726966,-0.01784896042346954,0.06293342603594064
1733516001292742700,11.67774267578125,-0.09238887229673563,0.010085925206542015,-0.024414310288429258
1733516001302819800,11.68781982421875,-0.046550665707513685,0.03844458920657635,-0.06168664084523916
1733516001312896800,11.697896728515625,-0.017301190347597,0.0358890595048666,-0.04692863217443227
1733516001322975000,11.70797509765625,-0.02095510974526405,0.018906945043802262,0.008636895442008971
1733516001333052000,11.718052001953126,-0.06426635514013469,0.03653554071485996,0.05883797341585159
1733516001343128800,11.72812890625,-0.04431201993525028,0.08633680571615696,0.11439560998678207
1733516001353206000,11.7382060546875,-0.011446619100496172,0.10615852751731872,0.14142594799250363
1733516001363283000,11.748282958984374,-0.0031289456754922864,0.08715747444927692,0.1429723006516695
1733516001373359900,11.75835986328125,-0.008903510488942265,0.016645429852604865,0.07321691964119673
1733516001383437800,11.768437744140625,0.013285086574032903,-0.016170213556289673,0.0013788871377706526
1733516001393514800,11.7785146484375,0.03290565977990627,-0.0062730889201164245,-0.036248248206079005
1733516001403592000,11.788592041015624,0.01814180589020252,0.03682721713781357,-0.051502808222174644
1733516001413668900,11.7986689453125,-0.041449543176218864,0.05320785857439041,-0.04529986192882061
1733516001423745800,11.808745849609375,-0.09893208339512348,0.018674889853596686,-0.02317863101363182
1733516001433823700,11.81882373046875,-0.11787351523041724,-0.035324411359429354,0.012384557537734507
1733516001443901000,11.82890087890625,-0.06575929711163044,-0.05425473727881908,0.03783347157090902
1733516001453977900,11.838977783203125,-0.01776537379324436,-0.011357844838500022,0.061056818509101864
1733516001464054800,11.8490546875,-0.01930266636312008,0.02983575081527233,0.05229717347025871
1733516001474131700,11.859131591796874,-0.1047609356790781,0.032065117302536965,0.014027356308698653
1733516001484209000,11.869208984375,-0.15418635310530662,-0.008960720568895339,-0.012634440645575522
1733516001494286800,11.879286865234375,-0.1557388432443142,-0.012779986596107483,-0.029860885256528854
1733516001504363800,11.88936376953125,-0.13767185615599153,-0.028991701206564902,-0.025748481501638887
1733516001514440700,11.899440673828124,-0.10823533379137515,-0.047297757747769356,-0.01625146209895611
1733516001524518000,11.909517822265625,-0.09241532191224396,-0.005414426264166832,-0.026278350594639777
1733516001534594800,11.9195947265625,-0.05473579879403114,0.0635386984527111,-0.020753741954267022
1733516001544671700,11.929671630859374,-0.0321848712246865,0.08944178599417209,0.02100917802006006
1733516001554749700,11.939749755859374,-0.030618352560326457,0.06236322493255138,0.05162818816751241
1733516001564826600,11.94982666015625,-0.040755131171271206,0.02771218279004097,0.06597527794986963
1733516001574903800,11.95990380859375,-0.03176058139801025,0.021795652222633362,0.06079436818063259
1733516001584980700,11.969980712890624,0.005907689673826098,0.048726329246163366,0.0627414105951786
1733516001595057700,11.9800576171875,0.016205796326324344,0.08082534881830215,0.09694324766546487
1733516001605136000,11.990135986328125,0.02068747178502381,0.06511866112053394,0.12887977015227078
1733516001615212800,12.000212890625,0.036085458859801293,0.050260699206590646,0.16198182928711174
1733516001625290000,12.0102900390625,0.07996252144388855,0.022808628657460212,0.1701864707916975
1733516001635367000,12.020366943359376,0.12463526445031166,-0.02684241421818733,0.15913345411866903
1733516001645443800,12.03044384765625,0.1504266352456063,-0.046860535374283786,0.12930559434890745
1733516001655521000,12.04052099609375,0.1686737281411886,-0.03316109584569931,0.07319470780938864
1733516001665599000,12.050598876953124,0.17192250080406665,-0.004160626810789108,0.04916121353209019
1733516001675676000,12.060676025390626,0.13379530698359013,-0.004437690186500549,0.027289865724742412
1733516001685752800,12.0707529296875,0.06850713451504707,-0.0035638299614191055,0.015002923342585562
1733516001695829800,12.080829833984374,0.014002733324095606,0.00021510405540466307,0.004176116640865803
1733516001705907000,12.090906982421876,-0.025513138375803827,-0.00725099404156208,0.01689618974328041
1733516001715984000,12.10098388671875,-0.06559395048208534,0.002422258710861206,0.023005904795229435
1733516001726061800,12.111061767578125,-0.06747194624841213,0.003011456775665283,0.001432078629732132
1733516001736138800,12.121138671875,-0.06717442460656166,0.006122282272577285,-0.00897854848653078
1733516001746216000,12.1312158203125,-0.06206745685636997,0.022272037562727928,-0.024210896670818327
1733516001756292900,12.14129296875,-0.05994089315645396,-0.000993102690577507,-0.04105740205347538
1733516001766369800,12.151369873046875,-0.08307217789702116,-0.02572130123376846,-0.05728957493007183
1733516001776447700,12.16144775390625,-0.11039974528364836,-0.014330138647556305,-0.055607905453443525
1733516001786524700,12.171524658203126,-0.12357903339564799,0.01198971300125122,-0.026154139693081377
1733516001796601900,12.181601806640625,-0.14577749426551162,0.014903554621338843,-0.001407236449420452
1733516001806678800,12.1916787109375,-0.15430851818025113,-0.0044148938328027725,-0.013838263477385043
1733516001816755700,12.201755615234376,-0.13393208510577678,-0.017941314882040024,-0.0170534261316061
1733516001826833000,12.2118330078125,-0.06779277570061386,0.022748422902822495,-0.01614800172448158
1733516001836910800,12.221910888671875,0.0038701924968510865,0.0905699132412672,-0.0026937691286206245
1733516001846987800,12.23198779296875,0.04741232403814792,0.11370470511317253,0.015334054993093012
1733516001857064700,12.242064697265626,0.050347208446264266,0.07958499336838722,0.05294482372403145
1733516001867141600,12.2521416015625,0.045783261531591415,0.033120763835310936,0.09437953465729951
1733516001877218800,12.26221875,0.06979534769468008,-0.012488894695043563,0.13995178378671408
1733516001887297000,12.272297119140624,0.0837204857379198,-0.03478255956768989,0.16240356183052063
1733516001897374000,12.2823740234375,0.061276598739624016,-0.05952946281135082,0.1459872645586729
1733516001907451000,12.292450927734375,0.022034721675515175,-0.07398527366518974,0.08062281198352575
1733516001917527800,12.30252783203125,-0.0025099369943141934,-0.05367606060802936,0.006998188324272632
