time,seconds_elapsed,z,y,x
1733515644232252400,0.03425244140625,-0.10738310087621211,-0.02057239403799176,-0.2175657693430781
1733515644242329300,0.044329345703125,-0.0457055201202631,-0.005786474446952343,-0.15706490421630442
1733515644252406300,0.05440625,0.0056231005787849425,-0.0032167700894176958,-0.12909282838106154
1733515644262483500,0.0644833984375,0.016997896552085875,0.06675371497645974,-0.1097471996590495
1733515644272559400,0.074559326171875,0.04931961896419525,0.09687675830051302,-0.1270767393182963
1733515644282636300,0.08463623046875,0.15717501352727412,0.1464706641614437,-0.11924014567481353
1733515644292713500,0.09471337890625,0.23303777150213717,0.16492402021884917,0.01818000074243173
1733515644302790400,0.104790283203125,0.2605044550985098,0.0045353053420782085,0.22193497913694007
1733515644312867300,0.114867431640625,0.2304623680561781,-0.22713950724378226,0.3416619584806263
1733515644322944500,0.124944580078125,0.16175181992352008,-0.29157457001432774,0.2768204885999672
1733515644333021400,0.135021484375,0.07076748066246509,-0.15409692125618457,0.07591390364021063
1733515644343098400,0.145098388671875,0.017198387560248374,0.1156501400925219,-0.07901312089771963
1733515644353175300,0.15517529296875,-0.061390580508112906,0.24019889530315994,-0.09834768936960026
1733515644363251500,0.16525146484375,-0.10909516549110412,0.1847629854157567,-0.027626075409166513
1733515644373328400,0.175328369140625,-0.049101007777452466,0.06595876520648598,0.025100054929731413
1733515644383405600,0.185405517578125,0.10739829844534396,0.10176321516782044,0.14283100161799228
1733515644393482500,0.195482421875,0.31001871985197066,0.11044614170864224,0.3192578920360654
1733515644403559400,0.205559326171875,0.3235761205613613,-0.09467588725537061,0.36351876630596813
1733515644413636400,0.21563623046875,0.14551906252503394,-0.4234814329028129,0.21331656919969244
1733515644423713500,0.225713623046875,-0.15349661727547645,-0.6585220686599612,-0.1289477025556378
1733515644433790500,0.23579052734375,-0.3252455150783062,-0.592716448188573,-0.3489973428700119
1733515644443867400,0.245867431640625,-0.16441665521860122,-0.24975816628709435,-0.20642995149111373
1733515644453943600,0.255943603515625,0.023237667724490166,0.10974895322471856,-0.15761318574883043
1733515644464020500,0.2660205078125,0.12614333092570304,0.3772133104637265,-0.1897047161342576
1733515644474097400,0.276097412109375,0.18377075950801372,0.37549686193466186,-0.12521368539277464
1733515644484174600,0.286174560546875,0.15834639539420603,0.16197379211112856,0.016160313216783104
1733515644494251500,0.29625146484375,0.07311725865900516,-0.07628828991055488,0.18629213121179491
1733515644504328400,0.306328369140625,-0.03148117993474007,-0.1705781004577875,0.2790357717629522
1733515644514405400,0.3164052734375,-0.20371289281845092,-0.126024088460207,0.2490813995366916
1733515644524482600,0.326482666015625,-0.2848427775412798,0.02058832225948572,0.11875537609886377
1733515644534560300,0.336560302734375,-0.26369477557241916,0.15853168883323668,0.0184488260127604
1733515644544637200,0.34663720703125,-0.2294242571800947,0.19891937493160367,0.029758009403944012
1733515644554713300,0.35671337890625,-0.22657003679275511,0.15281696444824336,0.07593896501623093
1733515644564790300,0.366790283203125,-0.28974633167386055,0.042545156393200154,0.03595934826210141
1733515644574867200,0.3768671875,-0.4044090681642294,-0.0802963565081358,-0.08521766549311578
1733515644584944000,0.386944091796875,-0.5614852974921465,-0.28125790479183194,-0.215892137042433
1733515644595021300,0.397021240234375,-0.6192068340986967,-0.4353608173973858,-0.33970662316177036
1733515644605098200,0.40709814453125,-0.5832809497147798,-0.4847638768613338,-0.4811257760873064
1733515644615175200,0.417175048828125,-0.4343272365659475,-0.4879723175138235,-0.4876327102959156
1733515644625252400,0.42725244140625,-0.2527022569149732,-0.5305715421818197,-0.26416681353095917
1733515644635329300,0.437329345703125,-0.12202303612530231,-0.6575792348518967,0.0395848635491915
1733515644645405200,0.4474052734375,-0.005591536396741867,-0.7206584990993141,0.28462170040281487
1733515644655482400,0.457482421875,0.17805588899254798,-0.5899070898562669,0.3966168068528175
1733515644665559300,0.467559326171875,0.42795302535891533,-0.31910861975848676,0.44473684076890346
1733515644675636200,0.47763623046875,0.5946393790751695,-0.39131957722753286,0.4371552995987236
1733515644685713400,0.48771337890625,0.6913397578954696,-0.23636793883815407,0.03688379931339295
1733515644695790300,0.497790283203125,0.7078530858010054,0.1192982873365283,-0.49436735231317575
1733515644705867300,0.5078671875,0.46426761679947376,0.26735826651602984,-0.5988603943036869
1733515644715944200,0.517944091796875,0.13543839801549912,0.30832682124227284,-0.31024471062757075
1733515644726021400,0.528021484375,-0.09491524896919727,0.2846322035305202,0.12246533653270453
1733515644736098300,0.538098388671875,-0.1596644922554493,0.25006942419335243,0.4336971585014835
1733515644746174200,0.54817431640625,-0.24208909296393394,0.39008287503942846,0.49530203934740274
1733515644756251400,0.55825146484375,-0.37907062876820563,0.3364114906065166,0.3896925970802083
1733515644766328300,0.568328369140625,-0.374454074883461,0.2780292981341481,0.31695783493276686
1733515644776405200,0.5784052734375,-0.26713994759023185,0.22788608782738445,0.346346463035047
1733515644786482400,0.588482421875,-0.03429389926791191,-0.013041267880797385,0.3320808409910649
1733515644796559400,0.598559326171875,0.08654957168400287,-0.2571000534825027,0.13959102418292313
1733515644806636300,0.60863623046875,0.07830138329863548,-0.46095177024975414,0.002074796980060637
1733515644816713200,0.618713134765625,0.0887222395479679,-0.3934486982107162,-0.11036266467627137
1733515644826790400,0.628790283203125,0.0995318028539419,-0.16901669635996222,-0.20876674214191734
1733515644836866300,0.6388662109375,-0.1055062010884285,-0.2904581332050264,-0.2505119437964633
1733515644846943500,0.648943603515625,-0.3067880673676729,-0.6944856547057628,-0.1984166495738551
1733515644857020400,0.6590205078125,-0.35595337255299087,-1.4092692704223095,0.0702882457781583
1733515644867097300,0.669097412109375,-0.3357937970995903,-2.005967920114845,0.32992786420825865
1733515644877174300,0.67917431640625,-0.09610124388337135,-2.127115196318924,0.5136342167105525
1733515644887251500,0.68925146484375,0.270360663202405,-1.4361115385100245,0.5546557802656665
1733515644897328400,0.699328369140625,0.5183499201208353,-0.2481033848173916,0.4247757835622877
1733515644907405300,0.7094052734375,0.4647667984932661,0.9774687758550047,-0.06194781253207474
1733515644917482500,0.719482421875,0.30115678348243236,1.5791789700992405,-0.7728564499787985
1733515644927559400,0.729559326171875,0.20014204859435558,1.452268161932379,-1.322831780810654
1733515644937635000,0.739635009765625,-0.09677928927540778,0.9085033761784433,-1.369037651668489
1733515644947712300,0.749712158203125,-0.4029261361300945,0.4198248100914061,-0.8556736302014439
1733515644957789200,0.7597890625,-0.46709144204854963,0.22236513244882225,-0.03610226386412978
1733515644967866000,0.7698662109375,-0.356259077501297,0.24818390270769594,0.615923866905272
1733515644977943300,0.779943359375,-0.21460721179842948,0.4383792884357273,0.9755305743340402
1733515644988020200,0.790020263671875,-0.14478314946591853,0.7246269643388689,1.0198440555740147
1733515644998097200,0.80009716796875,-0.08863923743963241,0.8759202263511717,0.7798498890627175
1733515645008174000,0.810174072265625,0.07116612459123134,0.9148444157682358,0.44385845049917694
1733515645018251300,0.820251220703125,0.060714288681745526,0.7171097205765545,0.2060978882588446
1733515645028327200,0.8303271484375,-0.03636427580118179,0.1828457536175847,0.12714907390214503
1733515645038404400,0.840404296875,-0.15800678817629812,-0.11675021028891205,0.029348113428801295
1733515645048481300,0.850481201171875,-0.20741408542394638,-0.2928635869115591,-0.01426401460878551
1733515645058558200,0.86055810546875,-0.131395260104537,-0.26326719781011343,-0.032427667004615066
1733515645068635100,0.87063525390625,-0.04872983637750149,-0.1082126835681498,-0.08732062912173569
1733515645078712300,0.88071240234375,-0.042803368937969204,0.008756868559867143,-0.1798680529810488
1733515645088789200,0.890789306640625,-0.04076572563052177,0.15299436684176324,-0.3849213275577873
1733515645098866200,0.9008662109375,0.018127777364850044,0.18009733169227837,-0.45761882643476126
1733515645108943000,0.910943115234375,0.03570551963150501,0.022275398563593625,-0.41797618655003604
1733515645119019300,0.921019287109375,0.01625146209895611,-0.0218722245901823,-0.3842671744979918
1733515645129096200,0.93109619140625,-0.02436813305914402,-0.12271569456458091,-0.1946267923042178
1733515645139173400,0.94117333984375,-0.08971417319476604,-0.2723736104600131,-0.0229698836337775
1733515645149250300,0.951250244140625,-0.10804477965533733,-0.4561079834803939,0.11472608405016362
1733515645159327200,0.9613271484375,-0.2209761623084545,-1.2272417013198136,0.589486014899984
1733515645169404200,0.971404052734375,-0.17821429442465303,-1.0517362274624407,0.6425334952808917
1733515645179481300,0.9814814453125,-0.06240414146482944,-0.6538778961159288,0.5316528346125036
1733515645189558300,0.991558349609375,0.020377602118253707,-0.3550327505767345,0.2568125417780131
1733515645199635200,1.00163525390625,0.11079729323387146,-0.16857859720364213,-0.07065251251328736
1733515645209712400,1.01171240234375,0.05837912373244762,-0.14407383215278385,-0.3599047770598903
1733515645219788300,1.021788330078125,-0.018313070803880692,-0.22663579550534485,-0.4936944945529103
1733515645229865200,1.031865234375,-0.04217383886277675,-0.24051585229784248,-0.4578974241804331
1733515645239942400,1.0419423828125,0.023200258323550223,-0.10996946410760283,-0.2838033149583265
1733515645250019300,1.052019287109375,0.08365677285194396,0.08923355007097125,-0.1567577379632741
1733515645260096300,1.06209619140625,0.07797989625930786,0.36104879599586126,-0.15773337806239723
1733515645270173200,1.072173095703125,0.0693418317735195,0.5734867009311914,-0.2049008604940027
1733515645280250400,1.08225048828125,0.0942863034158945,0.5815510571822524,-0.1983674401372671
1733515645290327300,1.092327392578125,0.02565174312889576,0.44160380344018335,-0.07823752428218722
1733515645300404200,1.102404296875,-0.10333236418068409,0.1585148838289082,0.1676245113492012
1733515645310480400,1.11248046875,-0.18045359778404235,-0.06952054934129119,0.5027149094197899
1733515645320557300,1.122557373046875,-0.22343992207348345,-0.20329057575315235,0.8209174471840261
1733515645330634200,1.13263427734375,-0.29970483110845086,-0.23847061020582913,0.8953411122664808
1733515645340711400,1.14271142578125,-0.32249826219677924,-0.2003738115236163,0.7222622079689055
1733515645350788400,1.152788330078125,-0.2819271823555231,-0.13964388688132165,0.4806402941253036
1733515645360865300,1.162865234375,-0.23318507101833819,-0.011938567335903644,0.2545180741652846
1733515645370942500,1.1729423828125,-0.2046200707912445,0.06659574793577194,0.056705564497038716
1733515645381019400,1.183019287109375,-0.13182722178101539,0.022322014184296128,-0.11516257577128708
1733515645391096300,1.193096435546875,-0.1463362241268158,0.08261924649775028,-0.33551271513588726
1733515645401172200,1.203172119140625,-0.12386720268726348,-0.0283219852514565,-0.4205472791470587
1733515645411249200,1.213249267578125,-0.044263504618406294,-0.3797771696023643,-0.32753136099316177
1733515645421326000,1.223326171875,0.05502747521698475,-0.5936142738111316,-0.23626718187741935
1733515645431403300,1.2334033203125,0.18789631500542162,-0.5894786353111267,-0.24916202702485024
1733515645441480200,1.243480224609375,0.2249193469762802,-0.5694026464879512,-0.21704861360117791
1733515645451557000,1.25355712890625,0.2418815876930952,-0.515621956461668,-0.1329965578213334
1733515645461634000,1.263634033203125,0.27084873898029327,-0.4867601652450859,-0.010040843955799936
1733515645471711200,1.273711181640625,0.1809960340976715,-0.4460660435460508,0.0493915151566267
1733515645481788200,1.2837880859375,0.21033026513159273,-0.40918008195832367,0.03591872399076819
1733515645491864300,1.2938642578125,0.28010347405970093,-0.5059788065865636,0.06566299713030457
1733515645501941200,1.303941162109375,0.19408990894854067,-0.5326688067220151,0.07845116703286767
1733515645512018200,1.31401806640625,0.0012999766826629637,-0.3502886247895658,-0.0038924773938953873
1733515645522095000,1.32409521484375,-0.20606617794632912,-0.37587957764193414,-0.08561419053003191
1733515645532172300,1.33417236328125,-0.20818565431833266,-0.616420856641978,-0.11295534805059432
1733515645542249000,1.3442490234375,-0.13326163849830627,-0.6252854233600199,-0.04014613242745399
1733515645552326000,1.354325927734375,-0.16142741027474403,-0.34303616944327947,0.06589278729818761
1733515645562403000,1.364403076171875,-0.15248948605954646,-0.1177544188953936,0.08333353224694728
1733515645572480000,1.37447998046875,-0.05313713142573833,0.08805690750703216,0.12180033328533171
1733515645582557000,1.384556884765625,-0.0037982232391834255,0.0835104962490499,0.15435089601725338
1733515645592632800,1.3946328125,0.11066402224302291,-0.008134791138768195,0.22679434706792234
1733515645602709800,1.404709716796875,0.16497545814514158,-0.3831492763839662,0.5367635286897421
1733515645612786700,1.41478662109375,0.07280395492613315,-0.5997198972098529,0.8600041336864233
1733515645622864000,1.42486376953125,-0.026280104160308838,-0.3510097786709666,0.8196769456036388
1733515645632941000,1.434941162109375,-0.21777064426541326,0.2343395017504692,0.4527341231331229
1733515645643018000,1.44501806640625,-0.37549744645655153,0.8291628590904175,-0.09566592120602727
1733515645653095000,1.455094970703125,-0.38016310018002986,0.5485108112372458,-0.3737149469539523
1733515645663172000,1.465172119140625,-0.0786708011329174,-0.0778776049286127,-0.11097235753983259
1733515645673249000,1.4752490234375,0.12721066789627075,-0.16086276212930678,0.5317484770067036
1733515645683325000,1.485324951171875,0.04894903208613395,0.08525105630606412,0.8893168835408986
1733515645693401900,1.49540185546875,0.14392390228807925,0.7885694212868809,0.5570008455544709
1733515645703478800,1.505478759765625,0.13928338300585746,1.3033733393639326,0.16126096766665576
1733515645713555700,1.5155556640625,0.06791501384079456,1.1551662067987023,-0.33256095265820623
1733515645723633000,1.5256328125,0.03088789021670818,0.4129937950275838,-0.5017759480692446
1733515645733709800,1.535709716796875,0.0336059170037508,-0.37273543439731,-0.044211189909279344
1733515645743786800,1.545786865234375,-0.12571604542434214,-0.6613435558214783,0.5074520940095186
1733515645753864000,1.555864013671875,-0.11237082616090774,-0.300109320256114,0.7418591080382466
1733515645763940900,1.56594091796875,-0.03682312548458576,0.5777487422898412,0.33692630826085807
1733515645774016800,1.576016845703125,-0.0906739581376314,1.2861055398292838,-0.35455212745293974
1733515645784094000,1.586093994140625,-0.08342354861795902,1.182930558167398,-0.5604642838813364
1733515645794171000,1.5961708984375,0.06674246293008328,0.1274748717904091,-0.16754384732842445
1733515645804247800,1.606247802734375,0.25944705500006676,0.014277093286067247,0.2829328522667289
1733515645814324700,1.61632470703125,0.23982582420706747,1.02296503713876,0.3323604616500437
1733515645824402000,1.62640185546875,0.12788286806941032,1.1504910545945166,-0.0915906345911324
1733515645834478800,1.636478759765625,0.15768237852752207,0.87995649612993,-0.4936100311398506
1733515645844555800,1.6465556640625,0.11806640745401381,0.8998524522110819,-0.376858944068104
1733515645854633000,1.656633056640625,-0.11150807185173034,0.8123229295790195,-0.33835692558586594
1733515645864708900,1.666708984375,-0.07196048983931541,0.6831950298845768,-0.3231033884830773
1733515645874785800,1.676785888671875,0.06395780064761639,0.7887089758880436,-0.3319143253177404
1733515645884863000,1.686863037109375,0.042379006046056746,0.41436449885889887,-0.24203166368827222
1733515645894940000,1.69693994140625,-0.05181786552071571,0.1976977241821587,0.096767233511433
1733515645905016800,1.707016845703125,-0.08896130900084973,0.3945893926784396,0.437216089875251
1733515645915094000,1.717093994140625,-0.12715396927297115,0.35150764519050715,0.5677672273058444
1733515645925171000,1.7271708984375,-0.1736065083682537,0.04969780462682247,0.6192583450902253
1733515645935248000,1.737247802734375,0.013211948272585868,0.29340149318054315,0.5852367599576711
1733515645945324800,1.74732470703125,-0.12768529967069625,0.3722486737936735,0.28295776751227675
1733515645955401000,1.75740087890625,-0.331118791025877,0.45339200251996514,0.37986806275621054
1733515645965478000,1.767477783203125,-0.13976035286784172,0.5212330743417144,0.12934680314213037
1733515645975554800,1.777554931640625,0.09741174196004868,0.360933645183593,-0.15592625557519493
1733515645985632000,1.787632080078125,0.21536358312368392,0.17173837640881537,-0.2535585814833641
1733515645995709000,1.797708984375,0.06570376753211021,0.013094605503231287,-0.27696908502411094
1733515646005785900,1.807785888671875,-0.10948679515719413,-0.10773849018514156,-0.29279844925347714
1733515646015863000,1.817863037109375,-0.18126257607936858,-0.06202946293354034,-0.15966774365846068
1733515646025940000,1.82793994140625,-0.18150223005414007,-0.010671762270480395,-0.08184358595013617
1733515646036017000,1.838016845703125,-0.11417582975625991,-0.0020756372302770613,-0.11151515917964279
1733515646046093800,1.84809375,-0.05881693062782287,-0.01775090687647462,-0.05344535712469369
1733515646056170000,1.858169921875,0.06380407139062881,-0.1712820109434426,0.11201255077514796
1733515646066247000,1.868246826171875,0.2228098074764013,-0.3681019293777644,0.3375060809101909
1733515646076324000,1.878323974609375,0.21897066770493984,-0.3890983940467238,0.4167848213410005
1733515646086401000,1.888401123046875,0.10994506031870842,-0.5260103717461228,0.3212881557546556
1733515646096478000,1.89847802734375,-0.07068214046657086,-0.5956432954207063,0.3169529760945588
1733515646106555000,1.908554931640625,-0.2519710200309753,-0.48582756057009097,0.1892220471838489
1733515646116632000,1.918632080078125,-0.3011298954755068,-0.3973715707428753,0.012312770943157374
1733515646126709000,1.928708984375,-0.32208617426455016,-0.35104075833112,-0.1546197395538911
1733515646136786000,1.938785888671875,-0.3070323975175619,-0.3577735737174749,-0.20742862540595233
1733515646146861800,1.94886181640625,-0.236173146918416,-0.4518779446952045,-0.40329314281158146
1733515646156938800,1.958938720703125,0.08682078984081745,-0.43704219461306926,-0.6256687966544181
1733515646167015700,1.969015625,0.2761222954690456,-0.4649864325933158,-0.5281722259551287
1733515646177092900,1.9790927734375,0.18626432988941669,-0.4061592728324234,-0.4054337715694681
1733515646187169800,1.989169677734375,0.17402385699748993,-0.2832262822553515,-0.33418617923986166
1733515646197246700,1.999246826171875,0.04853577511012554,0.10898308341875672,-0.27711280434373764
1733515646207324000,2.009323974609375,-0.027196049961447713,-0.026448884855955836,-0.14139825626797972
1733515646217400800,2.01940087890625,-0.26928748101294037,-0.5235784684240817,0.04684197680428624
1733515646227477800,2.029477783203125,-1.1840893728137016,-0.8238874029055238,0.09831365923583507
1733515646237554000,2.039553955078125,-0.7510089214384555,-0.5412177316196263,0.5418344387458637
1733515646247630800,2.049630859375,-0.2264782668560743,-0.658047875276953,0.6223217512488365
1733515646257707800,2.059707763671875,0.15260522139370442,-0.6378758787333965,0.5820055594841018
1733515646267785000,2.069784912109375,0.4598848716706037,-0.4230630613602698,0.2575464090105146
1733515646277862000,2.07986181640625,0.6123889707773924,0.17747750458270312,-0.35131190342269836
1733515646287938800,2.089938720703125,-0.06070318276584148,0.7478253229662776,-1.2396129609845579
1733515646298015700,2.100015625,-1.0414029033660888,0.7386217335522174,-1.521121187275648
1733515646308093000,2.110093017578125,-1.0508148748338222,0.7626669182673096,-1.6142682575285434
1733515646318169900,2.120169921875,-0.6823375362724066,0.7829970279820263,-1.5866934373825787
1733515646328245800,2.130245849609375,-0.40960663680732246,0.5973929155670106,-1.2719032653450966
1733515646338323000,2.140322998046875,-0.2556190211445093,0.24682445092275737,-0.8882347873926162
1733515646348399900,2.15039990234375,0.01741641422510147,-0.12457856582701206,-0.3733175816668197
1733515646358476800,2.160476806640625,0.29156244118511676,-0.39117461579889057,0.167909666699823
1733515646368554000,2.170553955078125,0.4760328733950853,-0.7719904807992279,0.4457201892504468
1733515646378631000,2.180630859375,0.9603110125660895,-0.9031612844981253,0.6374260891392827
1733515646388707800,2.190707763671875,1.7527537681549787,-1.11772597232908,0.8272012766938656
1733515646398784800,2.20078466796875,2.254487484517693,-1.432830032621324,0.8997433658134192
1733515646408862000,2.210862060546875,1.3834721274733544,-1.6411561183236538,0.4092779893748462
1733515646418937900,2.220937744140625,-0.2791659009486437,-1.614299675580114,0.19597038893289864
1733515646429015000,2.23101513671875,-1.3234990125477313,-0.0837980810187757,1.1564821117028594
1733515646439092000,2.241092041015625,-1.36760878790915,1.620430871811509,1.927336135818064
1733515646449169000,2.2511689453125,-0.8911217410057782,2.034795078409463,1.5980980439722536
1733515646459245800,2.261245849609375,-0.24335575189888475,1.0555082933470605,0.5981852349884808
1733515646469323000,2.271322998046875,-0.03928104003071785,0.32019612273424863,-0.15291295390231535
1733515646479400000,2.28139990234375,0.060002341020107264,0.2908445021741092,-0.34789402127061037
1733515646489476900,2.291476806640625,0.13388123170137406,0.22413228825181722,-0.3450756393816322
1733515646499553800,2.3015537109375,0.10808511166572571,-0.05498889677226543,-0.18513609304446726
1733515646509630000,2.3116298828125,-0.05338204609751701,-0.1715488451860845,0.026768581796996295
1733515646519707000,2.321706787109375,-0.3032815205514431,-0.35002325185164807,0.19683887886311857
1733515646529784000,2.3317841796875,-0.41800095566511153,-0.6878207899890839,0.3791724451748654
1733515646539861000,2.341861083984375,-0.3336158685386181,-0.9911037718452512,0.6065423636410385
1733515646549938000,2.35193798828125,-0.1612450394451618,-0.9627439388014376,0.7156403786763549
1733515646560014800,2.362014892578125,-0.045324411848187446,-0.7619543860837816,0.6364167659662664
1733515646570092000,2.372092041015625,-0.015962123763561247,-0.5783092987820506,0.31429000396300105
1733515646580169000,2.3821689453125,-0.05979834288060665,-0.4233725657008588,-0.19783793637044728
1733515646590246000,2.392245849609375,-0.15630290686786175,-0.3386193759143352,-0.7174295271154493
1733515646600323000,2.402322998046875,-0.22036066075861452,-0.7527329687520862,-0.930901451273635
1733515646610399000,2.41239892578125,0.03407294999361038,-0.5122160935409367,-0.9304423093292862
1733515646620476000,2.422475830078125,0.21826514978408812,0.06590703501924872,-0.6602570026937872
1733515646630553000,2.432552978515625,0.11252397089600562,0.5593291423715651,-0.49833501383513207
1733515646640630000,2.442630126953125,0.12093582541048525,0.8235098017647862,-0.6126287708826362
1733515646650707000,2.45270703125,0.18372224419116973,0.6426613594442605,-0.7127784133739768
1733515646660784000,2.4627841796875,0.25677637448608875,0.15924772814810276,-0.5833234371496364
1733515646670861000,2.472861083984375,0.3103244248002767,-0.08774827994927764,-0.4154746520578861
1733515646680938000,2.48293798828125,0.2666647312939167,-0.11315101675316691,-0.21877218599077314
1733515646691015000,2.493014892578125,0.09841595056653023,-0.22001257797330617,-0.034274829241260886
1733515646701091000,2.503091064453125,-0.06820610574185848,-0.2575619719058275,0.13219444765821098
1733515646711168000,2.51316796875,-0.23010580970346925,-0.0958200888544321,0.37325701058600097
1733515646721245000,2.523244873046875,-0.43787879156768317,-0.08332505667954683,0.5655204347597435
1733515646731322000,2.533322021484375,-0.3319406288027763,0.09643573653474449,0.4945040208375081
1733515646741399000,2.54339892578125,-0.18379004873037338,0.38315702129900453,0.375765522808209
1733515646751476000,2.55347607421875,-0.1248468613743782,0.5305873242728412,0.22328798291478305
1733515646761553200,2.56355322265625,-0.11182020654082298,0.4498500921294093,0.12730547004025428
1733515646771630000,2.573630126953125,-0.07800503070056437,0.05228139137923717,0.09539199963547289
1733515646781707000,2.58370703125,0.06267886675298213,0.01686257973462343,0.01857391369715333
1733515646791783200,2.593783203125,0.15712182203531264,0.36622999802604317,-0.0670943085750565
1733515646801860000,2.603860107421875,0.19838672935962676,0.4175862373843789,-0.15715397073924542
1733515646811937000,2.61393701171875,0.08265197972357273,-0.04750716271474957,-0.21250954539943484
1733515646822014200,2.62401416015625,0.015087679016590118,-0.5534240099810064,-0.16092797285262495
1733515646832091100,2.634091064453125,-0.12845569952130317,-0.6851645763918757,0.004642966967634856
1733515646842168000,2.64416796875,-0.177039405426383,-0.6244149241358041,0.10413524152878671
1733515646852245000,2.654244873046875,-0.1730529661387205,-0.6541238337010145,0.010831409811601042
1733515646862322200,2.664322265625,-0.08769172745645046,-0.48280704370513555,-0.08236300671435892
1733515646872399000,2.674399169921875,0.013147066342830657,-0.17545535110533236,-0.22555267644375562
1733515646882475000,2.68447509765625,-0.0718827484279871,0.13747326484397052,-0.32164014753010123
1733515646892552000,2.694552001953125,-0.17683657633066177,0.30845453927516936,-0.23711948785781858
1733515646902628900,2.70462890625,-0.22755846330821514,0.18339228158444165,-0.12229757875036447
1733515646912705800,2.714705810546875,-0.21339608244299887,0.15732713534906506,-0.2018023830220103
1733515646922783000,2.724782958984375,-0.17180618094801903,0.39696401285529137,-0.24159878869634122
1733515646932860000,2.73485986328125,-0.10471534297168254,0.5721442002810537,-0.31985625978801396
1733515646942936800,2.744936767578125,-0.15496844339370727,0.5878177163615822,-0.23743257239498197
1733515646953014000,2.755013916015625,-0.18083762866556644,0.4095604595780372,-0.052564080778136846
1733515646963091000,2.765091064453125,0.026992636343836782,0.10177022943049668,0.24813816386982798
1733515646973166800,2.775166748046875,0.3679214582443237,0.192054603728652,0.538988182469271
1733515646983244000,2.785244140625,0.8206845152109861,0.39550241587013,0.7164883738078176
1733515646993321000,2.795321044921875,2.328547576984763,0.7240859893299639,0.522828234578669
1733515647003398000,2.80539794921875,3.947773749181628,1.5889325946114956,0.03191160724125802
1733515647013474800,2.815474853515625,-2.257356902474165,0.21039237058237195,-0.4488785802161321
1733515647023552000,2.825552001953125,-2.3364152416199446,0.40896804664283987,-0.37107517303489146
1733515647033629000,2.83562890625,-1.9982389332979917,0.40794688690155745,-0.12495881558256224
1733515647043705900,2.845705810546875,-1.8382073612958192,0.15763444773256777,-0.010492478447128086
1733515647053783000,2.855782958984375,-1.0948860717505216,-0.0467073906391859,0.20051037045009434
1733515647063859000,2.86585888671875,-0.4896896428257227,-0.16424392900019882,0.3180471280068159
1733515647073936000,2.875935791015625,-0.2522767249792814,-0.18943448435813187,0.27632833943516016
1733515647084013000,2.886012939453125,-0.021572364860773085,0.1766390079319477,0.2106189093472436
1733515647094090000,2.896090087890625,0.3852759131491184,0.4179156154692173,0.061995487598702305
1733515647104167000,2.9061669921875,0.736917852243781,0.5271367454275488,-0.0759164974560961
1733515647114244000,2.916244140625,0.9624877720832824,0.5386614712655544,-0.20674754780661314
1733515647124321000,2.926321044921875,0.9967939463108777,0.5760907459497452,-0.3107765890145674
1733515647134398000,2.93639794921875,0.871121740028262,0.38645781641006466,-0.28405159063097085
1733515647144475000,2.946474853515625,0.6480085656911134,0.24585487523823976,-0.11663031023629009
1733515647154551000,2.956551025390625,0.3636690614968538,0.370365928786993,0.13720624793823807
1733515647164628000,2.9666279296875,0.030021044254302978,0.24731939483284948,-0.06098137865271419
1733515647174705200,2.976705078125,-0.05410802228450775,-0.2036459650620818,-0.3978453987997025
1733515647184782000,2.986781982421875,0.1781114185720682,-0.38686990434229374,-0.48940245991479603
1733515647194859000,2.99685888671875,0.644269963684678,-0.0273404268682003,-0.41955600308738644
1733515647204936000,3.00693603515625,1.2166782217293977,0.4520449718251824,-0.3612623656813055
1733515647215013000,3.01701318359375,1.987374424934387,0.5593082457140087,-0.31488946769349274
1733515647225090000,3.027090087890625,1.661449695420265,0.4259390551880002,-0.2907069933995604
1733515647235167000,3.0371669921875,-0.4878536595702171,0.2974219808682799,-0.3883045037226751
1733515647245243100,3.0472431640625,-0.674035571873188,0.004676175117492676,0.2602399224108085
1733515647255320000,3.057320068359375,-0.5643301655292511,-0.4799097148284316,1.1796231871850789
1733515647265397000,3.06739697265625,-1.2715133892446755,-0.4525096667274833,1.0912317870266734
1733515647275474200,3.07747412109375,-1.4619348388135431,0.2678375744655728,-0.010567132852226496
1733515647285551000,3.087551025390625,-0.9577461305141448,0.48587797558307644,-0.4055285371808335
1733515647295628000,3.0976279296875,-0.5065262113362551,0.36155221547335387,-0.33854587228670713
1733515647305705000,3.107705078125,-0.06668342621922492,0.27348493270277974,-0.27765423601036887
1733515647315782100,3.1177822265625,0.3018114479988813,0.21620441786199807,-0.12391667698533274
1733515647325859000,3.127859130859375,0.44780163516700267,0.014800386507809161,0.0336270602564793
1733515647335935200,3.137935302734375,0.36226796252727506,-0.13850567663162947,0.06315120610562153
1733515647346012200,3.14801220703125,0.17591887696385383,-0.357570160099864,-0.03994359102610033
1733515647356089000,3.158089111328125,0.00020399813950061797,-0.5224141008198261,0.02060026385902893
1733515647366166000,3.168166015625,-0.33711014039516446,-0.3738859196066856,0.1496520889428444
1733515647376243200,3.1782431640625,-0.567899840709567,-0.44285131928324695,0.19989382772063835
1733515647386320100,3.188320068359375,-0.6351169354140758,-0.5900856612935662,0.2373007444425486
1733515647396397000,3.19839697265625,-0.5870616372972727,-0.7038897351279855,0.24108411717247216
1733515647406474200,3.20847412109375,-0.45040743375122544,-0.7388932439699769,0.22884830218935384
1733515647416551200,3.21855126953125,-0.2894254291564226,-0.6041662090942264,0.1418018229670357
1733515647426626800,3.228626708984375,-0.22077391773462293,-0.4563511445865035,-0.000712701146886684
1733515647436704000,3.2387041015625,-0.22619068208634852,-0.3417980059504509,-0.05904746971437707
1733515647446781000,3.248781005859375,-0.25755028146803377,-0.22494418915659187,-0.1978528234123252
1733515647456857900,3.25885791015625,-0.21825579743385315,-0.12337269716858863,-0.3138946114372462
1733515647466935000,3.26893505859375,-0.15214929431974886,-0.0026060908451676365,-0.3272681069470942
1733515647477012000,3.279011962890625,-0.028589550146460533,0.08943769434094428,-0.29621308000255375
1733515647487089000,3.2890888671875,0.10712181959152221,0.34616029281318184,-0.2419471637425944
1733515647497165800,3.299165771484375,0.14818798947334288,0.5290104303449392,-0.10978506571771576
1733515647507243000,3.309242919921875,0.2570171975046396,0.450639488941431,-0.04198965966859832
1733515647517319000,3.31931884765625,0.27714520877599713,0.48702685335725543,0.030428857870213686
1733515647527395800,3.329395751953125,0.2496276717752218,0.4949696290552616,-0.020582897165697066
1733515647537472800,3.33947265625,0.16074351966381073,0.28164310471713544,-0.2067750934006646
1733515647547549700,3.3495498046875,0.0065080667197704315,0.14804565839320422,-0.2611801258703694
1733515647557626600,3.359626708984375,-0.12049918755888939,0.33935879610478875,-0.2701071998979896
1733515647567703800,3.369703857421875,-0.27406945459246634,0.49304830560386176,-0.24534666998777538
1733515647577780700,3.37978076171875,-0.28335867646336554,0.3763803667709231,-0.1425473715041764
1733515647587857700,3.389857666015625,-0.1556651934862137,0.3598378127709031,0.014175651338743045
1733515647597934800,3.399934814453125,-0.13060381746590136,0.34138942514955994,0.172670871485956
1733515647608010800,3.4100107421875,-0.15146715727448462,0.2449047349065542,0.33122159381322563
1733515647618087700,3.420087646484375,-0.18971125547289847,-0.03540741346776485,0.3762542561732232
1733515647628164900,3.430164794921875,-0.06870411839187145,-0.5013187058210372,0.37695498832110313
1733515647638241800,3.44024169921875,0.037649054914712904,-0.8643181974932551,0.3986676019027829
1733515647648318700,3.450318603515625,-0.10944061792790889,-0.6083949327051639,0.4474791982796043
1733515647658395600,3.460395751953125,-0.22265607821941374,-0.6644324617475271,0.38121140365656464
1733515647668472800,3.470472900390625,-0.16514380044937133,-0.8768778193369507,0.17899212866304443
1733515647678549800,3.4805498046875,-0.3085270199894905,-0.9570590250328183,0.04079431240418926
1733515647688626700,3.490626708984375,-0.2964940523684025,-0.9701415017068385,-0.024570213236194103
1733515647698704000,3.500703857421875,-0.09844809927046298,-0.977115724633634,-0.09378987993476912
1733515647708779800,3.51077978515625,-0.01175707328915596,-1.1572726775586604,-0.10234375500213354
1733515647718856700,3.520856689453125,0.06059270812869071,-1.0802832536414264,-0.09609579139011912
1733515647728934000,3.530933837890625,0.11312427487671374,-0.8435977732867002,0.028608528841566293
1733515647739010800,3.5410107421875,0.16753040332496166,-0.7022443060085177,0.2358279867425561
1733515647749087700,3.551087646484375,0.34018823266625403,-0.530085073839128,0.35980292412061243
1733515647759165000,3.5611650390625,0.6564426320374012,-0.39055852972716093,0.40614392913281916
1733515647769241900,3.571241943359375,0.9236392782509326,-0.2803366982936859,0.4271171955892816
1733515647779318800,3.58131884765625,0.7295686585247516,-0.05743541314154863,0.25506500399094073
1733515647789395700,3.591395751953125,0.5518745885819196,-0.12551263180673122,0.16342824696945027
1733515647799471900,3.601471923828125,0.412311804112792,-0.1441287772104144,0.1360363365091849
1733515647809548800,3.611548828125,0.1287070439338684,-0.045964755578339095,0.0813396093502175
1733515647819625700,3.621625732421875,-0.10746551846265792,0.044450551623106,0.08534506386560388
1733515647829703000,3.631702880859375,-0.24527765987217426,0.12409633526802062,0.15035845624706706
1733515647839779800,3.64177978515625,-0.41125615758001804,0.22529490229040383,0.15107935440014117
1733515647849856800,3.651856689453125,-0.5555465550929307,0.3232398743443191,0.09537081985012627
1733515647859934000,3.661933837890625,-0.531235705178976,0.37578123183399437,-0.02683550042021088
1733515647870011000,3.672010986328125,-0.43356209741234775,0.33146073633134365,-0.16112208891892804
1733515647880087800,3.682087890625,-0.3457230704396963,0.2632474701963365,-0.36637426533494144
1733515647890164700,3.692164794921875,-0.3223036164075136,0.113146194447577,-0.5139426250725985
1733515647900240600,3.70224072265625,-0.40578269460499283,-0.060169806541502474,-0.5476522947117686
1733515647910317600,3.712317626953125,-0.5404442630290984,-0.2165568845614791,-0.4921775871839374
1733515647920394800,3.722394775390625,-0.6755640966147184,-0.33613018944710493,-0.3831938827106729
1733515647930471700,3.7324716796875,-0.8365133679836988,-0.39805473070144654,-0.2297800848804414
1733515647940548600,3.742548583984375,-0.9834908126235008,-0.423368474047631,-0.06653954250281677
1733515647950625500,3.75262548828125,-1.0461287628442049,-0.35592692293748257,0.09537067371965385
1733515647960702700,3.76270263671875,-1.041801547294855,-0.22604235965684055,0.22659926288723944
1733515647970779600,3.772779541015625,-1.003707086700201,-0.08786167719587683,0.26900628945138305
1733515647980856600,3.782856689453125,-0.9417828377068043,0.07185337620303034,0.2173868691122159
1733515647990932700,3.7929326171875,-0.8021206845164298,0.23952231121584772,0.08899870926863514
1733515648001009700,3.803009765625,-0.5614695154011249,0.3641761342361569,-0.06969469119864516
1733515648011086600,3.813086669921875,-0.2181651965409517,0.46379459246024485,-0.2728468539949506
1733515648021163800,3.823163818359375,0.09109422937631606,0.5084846519276499,-0.4153643600838259
1733515648031240700,3.83324072265625,0.2849415617406368,0.5173772756963968,-0.4812249621454626
1733515648041317600,3.843317626953125,0.398695366692543,0.5135394510991871,-0.5088652852756902
1733515648051394800,3.853394775390625,0.5249345592081547,0.48342532173395153,-0.4897162020390853
1733515648061471700,3.8634716796875,0.5888835920274257,0.4426230634853244,-0.4261151789398864
1733515648071548700,3.873548583984375,0.5089952317982912,0.35319662119075657,-0.29120602896288034
1733515648081625600,3.88362548828125,0.34901042154729367,0.2806013405792415,-0.09683891050815582
1733515648091701800,3.89370166015625,0.18441314906477926,0.2025206142939627,0.04689611814431846
1733515648101778700,3.90377880859375,0.038032501274347305,0.11489698363766074,0.12320440966328605
1733515648111855900,3.91385595703125,-0.026306407645344733,-0.003339811947196722,0.17200110073192043
1733515648121932800,3.923932861328125,0.027142273947596548,-0.025881606362015006,0.1521502076352015
1733515648132009700,3.934009765625,0.10009528195559977,-0.09446034480854869,0.11848731801351532
1733515648142086700,3.944086669921875,0.09204115483760833,-0.17369082565084099,0.07207120650506112
1733515648152163800,3.954163818359375,0.018362170642614365,-0.1920972738265991,0.05131036352314986
1733515648162240800,3.96424072265625,-0.13534370546936988,-0.1560002706594765,0.026024732026597483
1733515648172317700,3.974317626953125,-0.3190074974715709,-0.10493570772409438,-0.02677610751632601
1733515648182394600,3.98439453125,-0.4418722451180219,-0.05009513338133693,-0.11567129247840494
1733515648192470800,3.994470703125,-0.4680862983047962,0.005408434914797544,-0.1887966979112476
1733515648202547700,4.004547607421875,-0.417272641390562,0.07897650608122349,-0.25687822742536665
1733515648212625000,4.014625,-0.2658411399513483,0.14129516121968627,-0.2940981336751953
1733515648222701800,4.024701904296875,-0.04708616082370281,0.18960706444606185,-0.3000285283711739
1733515648232778800,4.03477880859375,0.1780640722990036,0.22407456671521067,-0.2895789026850834
1733515648242855700,4.044855712890625,0.3900035261929035,0.1979772717759013,-0.23093820540700105
1733515648252932900,4.054932861328125,0.5665408273160457,0.2211557566590607,-0.13782427937188185
1733515648263009800,4.065009765625,0.6521124938786029,0.20229586562737822,-0.08946302971160039
1733515648273086700,4.075086669921875,0.6466817010015249,0.2098613324455917,-0.0834069445430301
1733515648283163000,4.085162841796875,0.579617751032114,0.22162045156136154,-0.07707732139639556
1733515648293239800,4.09523974609375,0.4427735778719187,0.19802710226699707,-0.05384419284970499
1733515648303316700,4.105316650390625,0.30197628317177294,0.19881109225153923,-0.014697601986769586
1733515648313394000,4.115393798828125,0.16127426553964613,0.16176263357847928,0.002633535974519327
1733515648323470800,4.125470947265625,0.016139233896136283,0.07169497077092528,-0.021304763433150947
1733515648333547800,4.1355478515625,-0.15688041449487208,-0.03352481459155678,-0.04977896183794364
1733515648343624700,4.145624755859375,-0.3197773128002882,-0.13714943971708415,-0.09939549052263609
1733515648353702000,4.155701904296875,-0.449220269793272,-0.14743161814808844,-0.14329075548369435
1733515648363778800,4.16577880859375,-0.5705553236544132,-0.10659209662899374,-0.14896452680379152
1733515648373855700,4.175855712890625,-0.7060439905524254,-0.08609890530705451,-0.1374603322971612
1733515648383932000,4.185931884765625,-0.7995324215888977,-0.061318830446153876,-0.12196545158601366
1733515648394008800,4.1960087890625,-0.8374614624887704,-0.08046411429047584,-0.11254493148564361
1733515648404085800,4.206085693359375,-0.826354377540946,-0.07831073564887046,-0.06373533526966348
1733515648414163000,4.216162841796875,-0.7918874597936868,-0.06703750035390257,0.07933340236064977
1733515648424239900,4.226239990234375,-0.7217658758193254,-0.11574044872447847,0.2117695224207826
1733515648434316800,4.23631689453125,-0.5947749881535768,-0.12221958161070942,0.340672728247568
1733515648444394000,4.24639404296875,-0.44440147133469576,-0.1465204946525395,0.4347605134166777
1733515648454471000,4.256470947265625,-0.26899288198053833,-0.16760332243070006,0.5402697832450271
1733515648464547800,4.2665478515625,-0.06788871035575866,-0.19758944150209426,0.6365226374935359
1733515648474624800,4.276624755859375,0.12738076376616955,-0.1055481405340135,0.6822250888738781
1733515648484702000,4.286701904296875,0.25925182468891145,-0.13901684102416037,0.6935179056521504
1733515648494777600,4.296777587890625,0.2922399020552635,-0.16679361348301172,0.695542762543261
1733515648504854800,4.306854736328125,0.28126667262017724,-0.1023698027588427,0.6922855873782188
1733515648514931700,4.316931640625,0.1876455551147461,-0.016762626491487024,0.6816666512735188
1733515648525008600,4.327008544921875,0.056528527429699896,0.04432561006918549,0.6208974905993789
1733515648535085600,4.33708544921875,-0.06718260791301726,0.135341659642756,0.5027200605189427
1733515648545162500,4.34716259765625,-0.09188216488361359,0.27082302001714703,0.36324469860494135
1733515648555239400,4.357239501953125,0.018475567889213562,0.3640221127182245,0.20602149855438617
1733515648565316400,4.36731640625,0.21730594936311243,0.43549613421484823,0.007487926336284726
1733515648575393500,4.3773935546875,0.4208084143012762,0.47228316547274585,-0.1776760228294879
1733515648585470500,4.387470458984375,0.5387082330167293,0.472074929549545,-0.3226142167266458
1733515648595546400,4.39754638671875,0.5119622649103402,0.45076267692968247,-0.4051662432070821
1733515648605623600,4.40762353515625,0.33733693488836286,0.3837096867457032,-0.4243441141467541
1733515648615700500,4.417700439453125,0.12472995699644088,0.30036694827899335,-0.40020124121084805
1733515648625777400,4.42777734375,-0.10578560255169868,0.19138956394866108,-0.3374261475417763
1733515648635854600,4.4378544921875,-0.28684827214479447,0.11337065085321664,-0.2936267350374721
1733515648645931500,4.447931640625,-0.36246553092598915,0.0872970290504396,-0.26681714537665246
1733515648656008400,4.458008544921875,-0.308884162864089,0.10560637352727353,-0.26014314750544726
1733515648666085400,4.46808544921875,-0.17204057422578334,0.15645736677721142,-0.2784144067279063
1733515648676162600,4.47816259765625,-0.02512450438439846,0.1835336628165096,-0.28856168846655633
1733515648686239500,4.488239501953125,0.04577040205001831,0.20877149138227105,-0.27022556558065114
1733515648696315600,4.498315673828125,0.022628011393547056,0.250232505800575,-0.2223264444062486
1733515648706392600,4.508392578125,-0.065599722635746,0.2856415267035365,-0.15579736849851905
1733515648716469500,4.518469482421875,-0.2183487364143133,0.29035452670007944,-0.09370309670045972
1733515648726546400,4.52854638671875,-0.30873686334788797,0.3552149022106081,-0.09297954079941846
1733515648736623600,4.53862353515625,-0.2759539531648159,0.31945414526052773,-0.10205756760505028
1733515648746700500,4.548700439453125,-0.18129355573952197,0.19317162505984306,-0.16272727735955267
1733515648756777500,4.558777587890625,-0.011343816313147544,0.31949834972843527,-0.14477060051159932
1733515648766854400,4.5688544921875,0.10606500401496886,0.3460931458611041,-0.041247599996486674
1733515648776931600,4.578931640625,0.13793021483123302,0.3456305698506534,0.013497268019989132
1733515648787008500,4.589008544921875,0.10974164670109748,0.2986168897412717,0.04551521257939748
1733515648797084400,4.59908447265625,0.046565351819992065,0.20108115607537327,0.05513225989886559
1733515648807161300,4.609161376953125,0.03774667007029056,0.1115766070432961,-0.00375413750228472
1733515648817238300,4.61923828125,0.13679507332146168,0.18680472037643192,-0.03047182022910565
1733515648827315500,4.6293154296875,0.3157692462027073,0.05318886161297559,-0.042498285044170914
1733515648837392400,4.639392333984375,0.4576198493480682,0.04445917332097888,-0.001931260323524475
1733515648847469300,4.64946923828125,0.44883448534607884,0.002722556831687689,0.09183606071956456
1733515648857546200,4.659546142578125,0.287568987634778,-0.09226137345954775,0.17311605797018856
1733515648867623400,4.66962353515625,0.03844692729413509,-0.23816095973476767,0.2810251920145005
1733515648877700400,4.679700439453125,-0.2691127089679241,-0.29080628905557093,0.3528204448221251
1733515648887777300,4.68977734375,-0.56140404894948,-0.2950475798871368,0.30557386927232144
1733515648897853400,4.699853515625,-0.7821808892935515,-0.2694430369008332,0.18075469962246715
1733515648907930400,4.709930419921875,-0.8101005773544311,-0.21150369282513856,0.10268020214857533
1733515648918007300,4.72000732421875,-0.5678022255539894,-0.261050033217296,0.03282500489228405
1733515648928084500,4.73008447265625,-0.2179085914313793,-0.23816380927897987,-0.06785229646866209
1733515648938161400,4.740161376953125,0.10745207445919513,-0.1428488204024732,-0.1185636985848192
1733515648948238300,4.75023828125,0.311476517444849,-0.17523798202760515,-0.19093970128931104
1733515648958315300,4.760315185546875,0.39203883141279217,-0.08377323883846402,-0.2708901669692248
1733515648968392400,4.770392333984375,0.361492301979661,-0.04594605087786913,-0.4006937739681452
1733515648978469400,4.780469482421875,0.27703239605128765,0.02142199660465121,-0.4617277230583131
1733515648988546300,4.79054638671875,0.1942804630845785,0.11219459281116724,-0.4572018431317061
1733515648998622500,4.80062255859375,0.1424842248737812,0.17062559286132453,-0.39187428850084544
1733515649008699400,4.810699462890625,0.20285364564061165,0.146399717817083,-0.36999629175700244
1733515649018776300,4.8207763671875,0.3240338012009859,0.004104731905087829,-0.4164847789485007
1733515649028853500,4.830853515625,0.4582341818541288,-0.17973127485886214,-0.3853570886265486
1733515649038930400,4.840930419921875,0.6071908176124096,-0.2683661283843219,-0.21165784220723435
1733515649049007400,4.85100732421875,0.7494038243293761,-0.33587665307745335,-0.013542714596912264
1733515649059084300,4.861084228515625,0.897875306919217,-0.45688159820139407,0.11953710106108337
1733515649069161500,4.871161376953125,1.0665765075892208,-0.5648867034334689,0.21251674232520162
1733515649079238400,4.88123828125,1.1870084751307963,-0.8341586946163326,0.21366238696267828
1733515649089315300,4.8913154296875,1.2034481532782315,-1.0913835435222834,0.25413687456166373
1733515649099392500,4.901392578125,1.0621645363658665,-1.243319268156588,0.38278782266043127
1733515649109468400,4.911468505859375,0.8051829946964979,-1.3853797146603464,0.49781215900480746
1733515649119545300,4.92154541015625,0.5237959105670452,-1.512403920073807,0.5359331788128242
1733515649129622500,4.93162255859375,0.33263620985150333,-1.542201384705305,0.5035448574379087
1733515649139699500,4.941699462890625,0.24069968443214892,-1.6414232448272406,0.4248643020959571
1733515649149776400,4.9517763671875,0.0966045172303915,-1.6341247583821414,0.4223310938239097
1733515649159853600,4.961853515625,-0.06111936235129833,-1.5035858228459953,0.4641377798747271
1733515649169930500,4.971930419921875,-0.20129297219514847,-1.3676938358440995,0.47345235538259145
1733515649180007400,4.98200732421875,-0.32546997148394585,-1.0970475606333463,0.45383401066642254
1733515649190084400,4.99208447265625,-0.33965514870285984,-0.8053538212187588,0.3875110152574256
1733515649200160500,5.002160400390625,-0.29229017093777654,-0.5297578146461397,0.30304721860522404
1733515649210237400,5.012237548828125,-0.20711773282587528,-0.24886793944910168,0.2214852443417534
1733515649220314600,5.022314697265625,-0.08504676590561866,-0.041775998651608824,0.15963902902062982
1733515649230391600,5.0323916015625,0.034925767430663106,0.11885310085229575,0.1872551492913626
1733515649240468500,5.042468505859375,0.126494044059515,0.37976884016543627,0.23899558392800388
1733515649250545400,5.05254541015625,0.1932832687407732,0.22807298870161175,0.21066526923961937
1733515649260622600,5.06262255859375,0.27916648547053335,0.036318610028550025,0.2042359303118661
1733515649270699500,5.072699462890625,0.3409258992910385,0.045238560195639724,0.27479499238803984
1733515649280776400,5.0827763671875,0.38407588970959183,0.09701755501069127,0.3308072773912921
1733515649290853400,5.092853271484375,0.379991250744462,0.09369542485065757,0.3828787888795137
1733515649300930600,5.1029306640625,0.27543957390189167,0.049979398047178984,0.4035402129078284
1733515649311006500,5.11300634765625,0.1491068578839302,0.023592034120112657,0.320900836937502
1733515649321083600,5.123083740234375,0.021363106024265287,-0.09477072593197226,0.14471402975246309
1733515649331160600,5.13316064453125,-0.15010229866206645,-0.26015871040076016,-0.08786410661498084
1733515649341237500,5.143237548828125,-0.31870705322027204,-0.3957487187813967,-0.3028685375700705
1733515649351314400,5.153314453125,-0.42145314194560046,-0.34028292521238324,-0.34261684805266557
1733515649361391600,5.1633916015625,-0.43941140796244144,-0.23182854184284804,-0.26023506357260046
1733515649371468500,5.173468505859375,-0.4101163398951292,-0.2642237678825855,-0.21452932425662874
1733515649381545500,5.18354541015625,-0.3443284012109041,-0.28211510614305735,-0.19844530941275879
1733515649391622700,5.19362255859375,-0.2713829919874668,-0.26422318336069583,-0.17364917846620082
1733515649401699600,5.203699462890625,-0.17918576980531215,-0.1593526498273015,-0.18557238383619112
1733515649411775200,5.213775146484375,-0.05019581727683544,-0.018184768249094485,-0.2609767670516856
1733515649421852400,5.223852294921875,0.022186697366833687,0.08017141495421529,-0.29726936585614455
1733515649431929300,5.233929443359375,-0.05017243640124797,0.024877397755533454,-0.41679326037578285
1733515649442006300,5.24400634765625,-0.17093465881049633,-0.08223433883339167,-0.5266588622501119
1733515649452083500,5.25408349609375,-0.3280044583976269,-0.13185045652613042,-0.5477667879369109
1733515649462160400,5.264160400390625,-0.47015901292562484,-0.06893120514601468,-0.4065287637319416
1733515649472237300,5.2742373046875,-0.5378671060174703,-0.00989025650396943,-0.2806705698905513
1733515649482314200,5.284314208984375,-0.5224404043048619,0.028977234289795158,-0.23428683998147024
1733515649492391400,5.294391357421875,-0.40387832228839393,0.1071278109408915,-0.22812188761094584
1733515649502468400,5.30446826171875,-0.26127134781777855,0.202243112526834,-0.22666938724769278
1733515649512544500,5.31454443359375,-0.11098024858534336,0.35634675578474995,-0.18714251922974362
1733515649522621400,5.324621337890625,0.034062428599596024,0.45213484206572174,-0.14328169539440422
1733515649532698400,5.334698486328125,0.12846563639342784,0.5168352777741849,-0.08888864562343805
1733515649542775800,5.34477587890625,0.1501011296182871,0.5914467205137014,0.06676460169665516
1733515649552853000,5.35485302734375,0.10882336281239986,0.5010599087543786,0.006101038555148989
1733515649562930000,5.364929931640625,0.05302724131047725,0.3429863389521837,0.044495815536938606
1733515649573006800,5.3750068359375,-0.016775193712115288,0.261931711422652,0.11981275793099776
1733515649583083800,5.385083740234375,-0.0789578013807535,0.15995646093934773,0.14684393618693575
1733515649593161000,5.395160888671875,-0.12334405559599398,0.1140501575499773,0.16372653579628094
1733515649603238000,5.40523779296875,-0.17289456070661544,0.05625102566257119,0.14587198588224126
1733515649613313800,5.415313720703125,-0.22018647323548793,0.005667816503345966,0.13736839796369896
1733515649623391000,5.425390869140625,-0.24602234075963494,-0.02420490532144904,0.1364540230651386
1733515649633468000,5.435468017578125,-0.2918418426483869,-0.0896308788254857,0.05783387440722435
1733515649643544800,5.445544921875,-0.3208662770807743,-0.15033917615786194,-0.0988701240748167
1733515649653622000,5.4556220703125,-0.3709580494612455,-0.1440809925459325,-0.2369371170282364
1733515649663699000,5.465698974609375,-0.4193400953143835,-0.10890300391986965,-0.35204712236206975
1733515649673775900,5.47577587890625,-0.47155952737331386,-0.06327317938432098,-0.43145109660774467
1733515649683852800,5.485852783203125,-0.4868775080144405,-0.06097264735698699,-0.41960934070982037
1733515649693930000,5.495929931640625,-0.46236265996098513,-0.0966341817162931,-0.2608560632814653
1733515649704007000,5.5060068359375,-0.3998363534212112,-0.1202218319222331,-0.24144177150372415
1733515649714083800,5.516083740234375,-0.32334289632737634,-0.1716124119415879,-0.1650436645431444
1733515649724160000,5.526159912109375,-0.2581798115432262,-0.20746815369874239,-0.09303544483827426
1733515649734237000,5.53623681640625,-0.18522446544766424,-0.21273279622867702,-0.17239214587612076
1733515649744313900,5.54631396484375,-0.15073475134670733,-0.2617562087252736,-0.28004580732202156
1733515649754391000,5.55639111328125,-0.11365911240577697,-0.3326816564284265,-0.35463987880162895
1733515649764468000,5.566468017578125,-0.07013502797782421,-0.28948607330247755,-0.3396472576573491
1733515649774545000,5.576544921875,-0.07346329561769963,-0.08966448883414269,-0.2864671273401007
1733515649784622000,5.5866220703125,-0.14339315641224384,0.10078370261117815,-0.20457181120272724
1733515649794699000,5.596698974609375,-0.16846563834846018,0.22439298501461744,-0.048587185636954376
1733515649804776000,5.60677587890625,-0.1564747563034296,0.2129690892025828,0.14171156913400626
1733515649814852900,5.616852783203125,-0.1476999136954546,0.13736600507721303,0.3483228776745498
1733515649824930000,5.626929931640625,-0.10919745682179927,0.24070742934718728,0.5910246226441115
1733515649835006000,5.637005859375,-0.0752460873812437,0.15993278780281542,0.5457868661660701
1733515649845083000,5.647082763671875,-0.06875204918682574,0.19807123366966842,0.5396707213733345
1733515649855160000,5.65716015625,-0.03756254567503929,0.23215528957918286,0.5309404850920662
1733515649865237000,5.667237060546875,-0.001247369712591171,0.20320903494954107,0.5137055649137124
1733515649875314000,5.67731396484375,0.02590951728224754,0.23089169938415288,0.46428610230423506
1733515649885391000,5.68739111328125,0.04442249457240104,0.22612419272139667,0.36670240131076426
1733515649895468000,5.697468017578125,0.026812603601813315,0.2268264957718551,0.244970858945325
1733515649905545000,5.707544921875,0.0569201570957899,0.2134691476792097,0.09351310882000252
1733515649915622000,5.717621826171875,0.07673135750293732,0.220658182400465,-0.031238895611464975
1733515649925699000,5.727698974609375,0.08909399546980858,0.21295403776392338,-0.1507743892373517
1733515649935774700,5.737774658203125,0.08111351810991764,0.20937354892864823,-0.2380813916925341
1733515649945852000,5.747851806640625,0.08297346676290035,0.15780848912522197,-0.31786395345963536
1733515649955928800,5.7579287109375,0.0887917976528406,0.11828034246563911,-0.3338889863915741
1733515649966005800,5.768005859375,0.11639175224006175,0.10397183112800121,-0.28114006883213294
1733515649976082700,5.778082763671875,0.12094167062938213,0.06314049291536211,-0.23023341813851148
1733515649986159900,5.788159912109375,0.11051087750792503,0.011217851845920085,-0.17994805941469966
1733515649996236800,5.79823681640625,0.07764145808517932,-0.015024989043921232,-0.11551195546453819
1733515650006313700,5.808313720703125,0.029696050083637234,-0.025655688651651142,-0.055823146506166085
1733515650016391000,5.818390869140625,-0.013101473635435103,-0.021119652657210827,0.01252286089672707
1733515650026467800,5.8284677734375,-0.04949906718432903,-0.017210662519931794,0.0692095745628234
1733515650036544800,5.838544677734375,-0.07743161472678184,-0.02657251123562455,0.11202690809406339
1733515650046621000,5.848620849609375,-0.10682429794967174,-0.01985065563470125,0.1329219125493895
1733515650056697900,5.85869775390625,-0.13890578186511993,-0.017205109561979768,0.16086648845635354
1733515650066774800,5.86877490234375,-0.1446931330949068,-0.014611878198385237,0.15834458702960982
1733515650076852000,5.87885205078125,-0.09600129064023494,-0.03036503538638353,0.16565215183030813
1733515650086929000,5.888928955078125,-0.0522106642305851,-0.05345511133372784,0.16306951492596417
1733515650097005800,5.899005859375,-0.020225626426935196,-0.08602671685367821,0.15453838141337037
1733515650107082800,5.909082763671875,-0.04889759415984153,-0.09217413356751203,0.13413225645353086
1733515650117160000,5.919159912109375,-0.11638766058683395,-0.06672317370772361,0.08418939102445729
1733515650127236900,5.92923681640625,-0.21164660842716693,-0.025189678575098514,0.022238098760507998
1733515650137313800,5.939313720703125,-0.2857043628066778,0.020987550710141658,-0.05806855994593352
1733515650147390700,5.949390625,-0.29811200895905493,0.04265957655310631,-0.11825137209948151
1733515650157467000,5.959466796875,-0.25536358507871626,0.05633987298980355,-0.15193970668967813
1733515650167543800,5.969543701171875,-0.14228314934372902,0.013002397175133228,-0.17601028157435356
1733515650177621000,5.97962109375,-0.018045944300293923,-0.012907996889948843,-0.15795637316331265
1733515650187698000,5.989697998046875,0.0523193853020668,-0.03971387849003076,-0.12207320454311556
1733515650197774800,5.99977490234375,0.08995382716953754,-0.04643558796048164,-0.08486267804298549
1733515650207851800,6.009851806640625,0.08815759140253067,-0.03821326466873288,-0.06242131179533898
1733515650217929000,6.019928955078125,0.03488134376704693,-0.006670271544158458,-0.04572923435599077
1733515650228006000,6.030005859375,-0.012879355317354202,0.007139058099687099,-0.03509861466336297
1733515650238082800,6.040082763671875,-0.06072597911953926,0.04385024764239788,-0.02245988371844869
1733515650248160000,6.050159912109375,-0.08754033628702163,0.058779082835465665,-0.015912724814016836
1733515650258237000,6.06023681640625,-0.08894728047549724,0.05934139289334416,-0.01762324592579389
1733515650268312800,6.070312744140625,-0.1034141972452402,0.06670300770252943,-0.033720008370094
1733515650278390000,6.08039013671875,-0.08292962762117385,0.029369594608247278,-0.04096240811324678
1733515650288467000,6.090467041015625,-0.07845978873074054,-0.03091536274552345,-0.03761985165311489
1733515650298543900,6.1005439453125,-0.09319558556973934,-0.00510360674932599,-0.026143928826320915
1733515650308621000,6.11062109375,-0.07497428470253945,-0.01108238889798522,0.0011353829675441374
1733515650318698000,6.120697998046875,-0.05300093782544136,-0.007092004087567329,0.04063558274509851
1733515650328775000,6.13077490234375,-0.022401801422238347,-0.03262669670805335,0.09859892418431118
1733515650338851800,6.140851806640625,0.011169628790020942,-0.07807312750071287,0.11695872020674869
1733515650348929000,6.150928955078125,0.009884265154600143,-0.07004910326004028,0.13800387372248804
1733515650359006000,6.161005859375,-0.019850947895646093,-0.11373071633726357,0.10049950624178162
1733515650369083000,6.171082763671875,-0.011603344032168388,-0.1100657640889287,0.04022665031775832
1733515650379159000,6.181158935546875,-0.01407411805987358,-0.10688830309659242,-0.05254355401333887
1733515650389236000,6.191236083984375,0.022997429227828978,-0.07061506657972931,-0.11564621283607557
1733515650399313000,6.20131298828125,0.06018295828402042,-0.06934665407910942,-0.16960889009945093
1733515650409390000,6.21139013671875,0.104102764031291,-0.12061521515399216,-0.20682547188103198
1733515650419467000,6.221467041015625,0.11103110198974608,-0.11795929381772875,-0.2167819254890084
1733515650429544000,6.2315439453125,0.05082359378635883,-0.10179697130694985,-0.21345557581158353
1733515650439620900,6.241620849609375,-0.026081951239705085,-0.09891571678221225,-0.18386070281378925
1733515650449698000,6.251697998046875,-0.1270072542786598,-0.05160393050909042,-0.15392887121289967
1733515650459775000,6.26177490234375,-0.2389882043391466,-0.010132394696772098,-0.11839149295622482
1733515650469852000,6.271851806640625,-0.3328051366776228,0.005912438914179801,-0.08276956908809951
1733515650479929000,6.28192919921875,-0.33904490785002706,-0.002705897957831621,-0.06515995211214758
1733515650490004700,6.292004638671875,-0.27989246165752407,-0.008233867599070072,-0.07035154767218045
1733515650500081700,6.30208154296875,-0.16292904700934885,-0.03445537343993783,-0.07513857188615948
1733515650510158800,6.312158935546875,-0.030513796207308767,-0.060592561998218296,-0.06130111212637275
1733515650520235800,6.32223583984375,0.08378244505822659,-0.08287468256354331,-0.05550901165623218
1733515650530312700,6.332312744140625,0.18128946408629415,-0.12036737787276505,-0.0533576788412407
1733515650540389600,6.3423896484375,0.25413608911037444,-0.11088526377826928,-0.034523744234722105
1733515650550466600,6.352466552734375,0.2865793920755386,-0.08557648886814713,-0.044856264613475645
1733515650560543500,6.36254345703125,0.219973707267642,0.005542436558008194,-0.06185659971782006
1733515650570620400,6.372620361328125,0.12471008325219153,0.08138868178948759,-0.07582712953905575
1733515650580697600,6.382697509765625,-0.012781740161776542,0.12366568876579404,-0.0583539892911911
1733515650590774500,6.3927744140625,-0.08619359785318374,0.15276377295628188,-0.024005409827129915
1733515650600850400,6.402850341796875,-0.11594342395067214,0.13778627631589768,0.014389184491569175
1733515650610927400,6.41292724609375,-0.11061901405751705,0.10106675733625889,0.08092313750381581
1733515650621004300,6.42300439453125,-0.07603168480098248,0.03882657426148653,0.15884559535430742
1733515650631081200,6.433081298828125,-0.025746435675024985,-0.05753887351602316,0.22318625783966853
1733515650641158400,6.443158447265625,0.0060632455617189406,-0.09518675938695668,0.26765573335895315
1733515650651235300,6.4532353515625,0.028975919115543362,-0.11816373034864663,0.3109411319265142
1733515650661312300,6.463312255859375,0.0311398191511631,-0.08869009084403515,0.3353376508299261
1733515650671389400,6.473389404296875,0.0002402384966611862,-0.05223214541003108,0.32152021094486116
1733515650681466400,6.48346630859375,-0.04720540328919887,-0.02713160642310977,0.2951454142384231
1733515650691543300,6.493543212890625,-0.10581482864618301,-0.006318243236094713,0.26048569559911267
1733515650701620200,6.5036201171875,-0.1316921972244978,0.004867898297309875,0.224531114843674
1733515650711696400,6.5136962890625,-0.12951543770730495,0.06992591527178883,0.3178980383923277
1733515650721773300,6.523773193359375,-0.10831365972459316,-0.06677797263488174,0.12707506795101797
1733515650731850500,6.5338505859375,-0.049556350329518314,-0.2248646941795945,-0.054530047088861465
1733515650741927400,6.543927490234375,-0.007828501668572425,-0.191294579141587,-0.06811338595710695
1733515650752004400,6.55400439453125,0.041697453522682185,-0.08016469295248389,0.014655014087213203
1733515650762081300,6.564081298828125,0.06952946330010891,-0.05134776379093527,-0.0045231217139400535
1733515650772158500,6.574158447265625,0.08638356746733188,-0.024463702388107775,-0.043947543137567116
1733515650782235400,6.5842353515625,0.12482757215201853,-0.00495353075414896,-0.047018940806388854
1733515650792312300,6.594312255859375,0.164704239988327,-0.034656595100462435,-0.01854100694139488
1733515650802389500,6.604389404296875,0.1790402238547802,-0.08081585033759474,0.013111054314533247
1733515650812466400,6.614466552734375,0.1629787313699722,-0.11633899913951753,0.045845759708015243
1733515650822542300,6.624542236328125,0.07031973689496517,-0.12328019657954573,0.054323719994956624
1733515650832619500,6.63461962890625,-0.08274141157269477,-0.11211232135519385,0.03467184746852144
1733515650842696400,6.644696533203125,-0.2448229018419981,-0.07725596589893102,0.01329286117182346
1733515650852773400,6.6547734375,-0.3938023339539766,-0.0316124050989747,-0.037493572092056275
1733515650862850300,6.664850341796875,-0.44164895775616164,0.010385784935951232,-0.0890057326644659
1733515650872927500,6.674927490234375,-0.4353571641355753,0.03752630531787872,-0.13560911493990568
1733515650883004400,6.68500439453125,-0.3603355331599712,0.0657421998463571,-0.16204331368338315
1733515650893081300,6.695081298828125,-0.21009996350705623,0.08057225084006786,-0.16081709635667502
1733515650903158500,6.705158447265625,-0.07375672560632228,0.07503682854473591,-0.15047656620140187
1733515650913235500,6.7152353515625,0.05497253015935421,0.07326835756748915,-0.1285649137831293
1733515650923312400,6.7253125,0.1391588798433542,0.05311287376731634,-0.08708620844450779
1733515650933388500,6.735388427734375,0.17854922546744345,0.016447423062473536,-0.05806643648750614
1733515650943465500,6.745465576171875,0.16977029120624065,0.016368804868310688,-0.03528496069845278
1733515650953542400,6.75554248046875,0.1499175897449255,0.03083002254962921,-0.0362791274015326
1733515650963619600,6.76561962890625,0.0896767637938261,0.038978257691860196,-0.04774330499160569
1733515650973696500,6.775696533203125,0.011276596295833587,0.07524974064305424,-0.08307650701226667
1733515650983773400,6.7857734375,-0.0768453392714262,0.16087036091387272,-0.10490184198711067
1733515650993850400,6.795850341796875,-0.1206862345635891,0.07997706142589449,-0.13039467736040242
1733515651003927600,6.805927490234375,-0.10843991645276546,0.12100216864496469,-0.10915654942267573
1733515651014004500,6.81600439453125,-0.11188567299246788,0.09098024760782718,-0.10105314893601462
1733515651024081400,6.826081298828125,-0.052532735791802405,0.04488222103863954,-0.09095762478406541
1733515651034158600,6.83615869140625,-0.028881811091303822,0.00520209868773818,-0.06892180713000708
1733515651044234500,6.846234375,0.012250409764051437,-0.018635873017460107,-0.04527358127667103
1733515651054311400,6.8563115234375,0.028972411984205245,-0.036088673730194566,-0.026346899485937318
1733515651064388600,6.866388671875,0.03785597566366195,-0.036191841843724246,-0.04245334079074673
1733515651074465500,6.876465576171875,0.0435007035523653,-0.026523849788308143,-0.07079759723951574
1733515651084542500,6.88654248046875,0.040838790866732595,-0.02290624381303787,-0.11729336812174879
1733515651094619400,6.896619384765625,0.023846739533543587,-0.030377018085122106,-0.14217750614532268
1733515651104696600,6.906696533203125,-0.03571954815685749,-0.05945698209702968,-0.15328639032458885
1733515651114773500,6.9167734375,-0.11873159336447715,-0.09820771464332938,-0.1744698471993208
1733515651124850400,6.926850341796875,-0.19882628982067108,-0.12252265621051192,-0.1771446558991447
1733515651134927600,6.936927734375,-0.2501058106809854,-0.1658309059306979,-0.16445179959721862
1733515651145004500,6.947004638671875,-0.2184311540007591,-0.19430983530953524,-0.13922284845765678
1733515651155081500,6.95708154296875,-0.14570903213918207,-0.19998510446697473,-0.09776033620201051
1733515651165157400,6.967157470703125,-0.07496084069907664,-0.1986347127713263,-0.06363856949745678
1733515651175234300,6.977234375,-0.013579028019309044,-0.18263021117076278,-0.020985518583259543
1733515651185311200,6.987311279296875,0.017995675417780875,-0.16977043733671307,0.005451506871543824
1733515651195388400,6.997388427734375,0.029636428850889206,-0.159450557243824,0.026170296243438494
1733515651205465300,7.00746533203125,0.014725275444984436,-0.16750994505882263,0.04474750700937584
1733515651215542300,7.017542236328125,-0.02847030768096447,-0.15056027156263588,0.06256170664671808
1733515651225619200,7.027619140625,-0.05073533098101616,-0.11749898282960057,0.07258755852936301
1733515651235696400,7.0376962890625,-0.06099018301367759,-0.062328738141059874,0.06759867333404254
1733515651245773300,7.047773193359375,-0.0745230338037014,-0.03146291362568736,0.03240082466346211
1733515651255850200,7.057850341796875,-0.07407470551431179,-0.013044190490245819,0.013834480068122502
1733515651265926400,7.067926513671875,-0.09083879331052302,-0.00957856020629406,-0.020082824989338405
1733515651276003300,7.07800341796875,-0.1184983691304922,-0.006567103430628776,-0.06774467594230081
1733515651286080300,7.088080322265625,-0.15663082364797593,-0.020039894596487282,-0.10222252150895074
1733515651296157400,7.098157470703125,-0.19969898100197314,-0.020526070678234098,-0.11705817112638614
1733515651306234400,7.108234375,-0.2204787341803312,-0.0055842298731207845,-0.11621668793410062
1733515651316311300,7.118311279296875,-0.1899105774372816,0.007730886512994766,-0.11504785421728156
1733515651326388500,7.128388427734375,-0.11872867075502871,0.018793986188620326,-0.11947672177650966
1733515651336465400,7.13846533203125,-0.03453530680835247,0.043966567498445505,-0.10505627449699677
1733515651346542300,7.148542236328125,0.05008125098645687,0.048787557914108035,-0.06780756684436928
1733515651356619300,7.158619384765625,0.10795593232810496,0.058044923342019314,-0.020337687949684914
1733515651366696400,7.168696533203125,0.11345920591950416,0.059207829641550774,0.05083931651187595
1733515651376773400,7.1787734375,0.08728314665555953,0.046074061171710486,0.10810097595513797
1733515651386849300,7.188849365234375,0.025102877074480057,0.037273499600589274,0.14750798045308328
1733515651396926500,7.198926513671875,-0.042704000216722486,0.025611703379452226,0.1915903106851503
1733515651407003400,7.20900341796875,-0.07977437846064567,0.03939502179920673,0.21328672205070032
1733515651417080300,7.219080322265625,-0.0902168620198965,0.046355654592067,0.20312150279656052
1733515651427157500,7.229157470703125,-0.05356032527387142,0.07044234036132693,0.18049213969614356
1733515651437234400,7.239234375,0.02036883428990841,0.08790814668610691,0.1599970669443719
1733515651447311400,7.249311279296875,0.09363046985566616,0.10692921962887048,0.12003158831344916
1733515651457388300,7.25938818359375,0.13410744167268276,0.10372063284590839,0.09849412123612128
1733515651467465500,7.269465576171875,0.10946282975971698,0.08748977514356374,0.06820868129143491
1733515651477542400,7.27954248046875,0.05605448017716407,0.060948389698565,0.02133757885736413
1733515651487619300,7.289619384765625,-0.004396773654222488,0.043875820475071665,-0.020525593470910097
1733515651497695500,7.299695556640625,-0.05521452222168445,0.026529695007205006,-0.047212728079129004
1733515651507772400,7.3097724609375,-0.08057984962463378,0.01302124800607562,-0.07692625902052969
1733515651517849300,7.319849365234375,-0.049613633474707604,0.011924831071496009,-0.09340701809702441
1733515651527926500,7.329926513671875,-0.016360183170437814,0.0013480536080896853,-0.09158435098081827
1733515651538003500,7.34000341796875,0.007984569013118743,-0.008976502659916877,-0.06441322083149571
1733515651548080400,7.350080322265625,0.026218729361891745,-0.048015258367359634,-0.02497871412198292
1733515651558157600,7.360157470703125,0.024587913289666176,-0.05043810160011053,-0.00896720510860905
1733515651568234500,7.370234375,-0.018559154519438743,-0.0772301008053124,0.024912071776692753
1733515651578311400,7.3803115234375,-0.07465747383832931,-0.10392156224548817,0.048489561348222195
1733515651588388400,7.390388427734375,-0.12331775211095809,-0.10691066105887294,0.07900459966454655
1733515651598465500,7.400465576171875,-0.16043430758416652,-0.11509236007928847,0.0979783993994817
1733515651608541400,7.41054150390625,-0.16610592347979544,-0.10483151669725775,0.0917881847235374
1733515651618618400,7.420618408203125,-0.16131225946247577,-0.06953428560569883,0.0769196466166526
1733515651628695600,7.430695556640625,-0.13813888914585112,-0.04846183309108019,0.054654504585592074
1733515651638772500,7.4407724609375,-0.10983750829100608,-0.03491320021003484,0.03576645147192757
1733515651648849400,7.450849365234375,-0.07460837399959563,-0.019185177463293075,0.007746910632611252
1733515651658926600,7.460926513671875,-0.061470660006999966,-0.011059446413815021,-0.017255474342615342
1733515651669003500,7.47100341796875,-0.044670331853628155,-0.0000032148703932762145,-0.04512778416438959
1733515651679080400,7.48108056640625,-0.0298632233440876,-0.012801613906025886,-0.058517052632104605
1733515651689157400,7.491157470703125,-0.009031447717547415,-0.006044686991721391,-0.09183781428523362
1733515651699234600,7.501234619140625,-0.01300970369875431,-0.019650456887483597,-0.08980467362296767
1733515651709311500,7.5113115234375,-0.015759294667840002,-0.016962240716814993,-0.09197067428412847
1733515651719387600,7.5213876953125,-0.013101473635435103,-0.02949950459823012,-0.08611727208080701
1733515651729464600,7.531464599609375,-0.013890578186511992,-0.018821312586963176,-0.06800793455494568
1733515651739541500,7.54154150390625,-0.016688099950551986,-0.021742168469727038,-0.06112062729320023
1733515651749618400,7.551618408203125,-0.015019874477386473,-0.0025455928295850753,-0.038590614647720935
1733515651759695600,7.561695556640625,-0.007785831570625305,0.010220657502114773,-0.017144221104041207
1733515651769772500,7.5717724609375,-0.002159223860502243,0.022046265982836485,-0.008003851385612507
1733515651779849500,7.581849365234375,-0.015722469788789748,0.001420095930993557,-0.03152240471098339
1733515651789926700,7.5919267578125,-0.010500351226329804,0.0028308395117521284,-0.049297617194941266
1733515651800003600,7.602003662109375,-0.036703883019089695,-0.04423267108872533,-0.0530550882986281
1733515651810080500,7.61208056640625,-0.042483635464310644,-0.059791913139820095,-0.06687259668235201
1733515651820157400,7.622157470703125,-0.04276303692758083,-0.04388371152058244,-0.08951993839745409
1733515651830233600,7.632233642578125,-0.024380992540717124,-0.02985898556038737,-0.10702233213926665
1733515651840310500,7.642310546875,-0.011093056422471999,-0.0154980133831501,-0.13661287602181546
1733515651850387500,7.652387451171875,-0.012590016981959343,0.022808336396515368,-0.12893208486139773
1733515651860464600,7.662464599609375,-0.005891980648040771,0.03900251535028219,-0.11800839365646243
1733515651870541600,7.67254150390625,-0.020132687446475027,0.031489363241195674,-0.12165039428747258
1733515651880618500,7.682618408203125,-0.048179216757416723,0.023866028755903244,-0.0976804119667504
1733515651890695700,7.69269580078125,-0.06180266844034195,-0.008136252443492411,-0.06705693114015739
1733515651900772600,7.702772705078125,-0.08249825046658515,-0.052203649967908855,-0.028420659852959215
1733515651910849500,7.712849609375,-0.10394552764296532,-0.06317658714205027,-0.004490758380875923
1733515651920926500,7.722926513671875,-0.11136661755442619,-0.053147945080697534,0.026716362985991872
1733515651931003600,7.733003662109375,-0.11111410409808158,-0.02448708326369524,0.034809109647898004
1733515651941079600,7.74307958984375,-0.0961035819709301,-0.019343875156342984,0.05155474390538875
1733515651951156700,7.75315673828125,-0.07429448574483394,0.00731134592667222,0.06495930127378087
1733515651961233700,7.763233642578125,-0.026142156994342802,0.019864099638164042,0.06377767657404765
1733515651971310600,7.773310546875,0.016417466315627096,0.0180349845148623,0.05268337347598281
1733515651981387500,7.783387451171875,0.05012918178141117,0.010623685345053672,0.05012327719700988
1733515651991464700,7.793464599609375,0.07122808391153812,0.00343465062379837,0.05064812762159854
1733515652001541600,7.803541748046875,0.06591536445617675,-0.00965761679187417,0.050947471327777015
1733515652011618600,7.81361865234375,0.036682255709171295,-0.008790916959941386,0.04363448143329005
1733515652021695500,7.823695556640625,-0.002972293809056282,-0.011199877797812223,0.062285926479217595
1733515652031772700,7.833772705078125,-0.01613631128668785,-0.014242314233630895,0.05470848609542008
1733515652041848300,7.843848388671875,-0.02320727258622646,-0.0010837035834789276,0.05438921841264236
1733515652051925500,7.853925537109375,-0.008846154278516769,-0.005331424155831337,0.0522610746769933
1733515652062002400,7.86400244140625,0.02166939549446106,-0.032765666787326335,0.05010206544562243
1733515652072079400,7.874079345703125,0.04177051875889301,-0.04330518098026514,0.04777101041586138
1733515652082156500,7.884156494140625,0.03177636348903179,-0.04090659540593624,0.07211841578080784
1733515652092233500,7.8942333984375,-0.008823357924818993,-0.037974633607268334,0.07809294644603505
1733515652102310400,7.904310302734375,-0.03285714446306229,-0.05413987872749567,0.06597117259691003
1733515652112387300,7.91438720703125,-0.046431496307253836,-0.05945289044380188,0.06331409135002176
1733515652122464500,7.924464599609375,-0.06528349629342556,-0.04106646214276552,0.10405895228902809
1733515652132541400,7.93454150390625,-0.08956044393777847,0.16843714290633796,0.1721425550292246
1733515652142618400,7.944618408203125,-0.07620996397733688,-0.347272491838783,-0.0627352091832552
1733515652152695300,7.9546953125,-0.09326865080595016,-0.035440438954532145,-0.0005509392804931848
1733515652162771500,7.964771484375,-0.12502923220396042,0.02221709250509739,0.04333084514448419
1733515652172848400,7.974848388671875,-0.10138941341936587,-0.08113792189881205,0.048988176786433905
1733515652182925600,7.984925537109375,-0.09040800067782402,-0.03213146053701639,0.06996693683534394
1733515652193002500,7.99500244140625,-0.07687281180024147,-0.027427959021180868,0.05578020241358317
1733515652203079400,8.005079345703125,-0.07370002698302268,-0.02685381239503622,0.0704506652316777
1733515652213156400,8.01515625,-0.06248831261694431,-0.015435615671426057,0.059101446657627815
1733515652223233500,8.025233642578126,-0.03980301807820797,-0.016956103236973285,0.02881439471116755
1733515652233310500,8.035310546875,-0.01740589283108711,-0.02931114241927862,-0.011586027571186423
1733515652243387400,8.045387451171875,0.008986439532041549,-0.04010916141793132,-0.0481162208240712
1733515652253464600,8.055464599609374,0.01175356615781784,-0.040228988405317065,-0.08094277378604747
1733515652263541500,8.06554150390625,-0.0036772272080183026,-0.0701141313202679,-0.0770064937830437
1733515652273617400,8.075617431640625,-0.02215688675045967,-0.009472323352843523,-0.036357553799450396
1733515652283694600,8.085694580078124,-0.03415302949249744,0.0033417116433382033,-0.024514108267938716
1733515652293771500,8.095771484375,-0.056065001571178434,0.009483867660164833,-0.010798416290874592
1733515652303848400,8.105848388671875,-0.055927638927102084,0.03511325282678008,-0.03367691129717277
1733515652313925600,8.115925537109375,-0.052768298113346095,0.048178632235527034,-0.04842510867672972
1733515652324002600,8.12600244140625,-0.03939911345243454,0.02890826070681214,-0.0566424817987252
1733515652334079500,8.13607958984375,-0.033195582637190815,0.038730128149688244,-0.06914108503703027
1733515652344156400,8.146156494140625,-0.0022469021439552304,0.021945874348282813,-0.08094207053314895
1733515652354233600,8.156233642578124,-0.009031447717547415,0.00036971009522676466,-0.07175596654342953
1733515652364310500,8.166310546875,-0.021150340056419373,-0.02715060338452458,-0.0538270042528864
1733515652374386400,8.176386474609375,-0.0219376910418272,-0.05354731966182589,-0.04807882512286305
1733515652384463600,8.186463623046874,-0.021180735194683074,-0.08122735374793409,-0.06489500843249262
1733515652394540500,8.19654052734375,-0.011615618991851807,-0.09997896209955215,-0.0626301961725112
1733515652404617500,8.206617431640625,-0.03139934687018394,-0.11923910449519753,-0.05366721514787059
1733515652414694700,8.216694580078125,-0.06070201372206211,-0.1335306646980345,-0.05992960001088213
1733515652424771600,8.226771484375,-0.10262918434739113,-0.12132394794523715,-0.03879671797933988
1733515652434848500,8.2368486328125,-0.1759849279373884,-0.13031287169530986,0.026051172508951274
1733515652444925400,8.246925537109375,-0.2370271333992481,-0.11972542670741676,0.028534047966403884
1733515652455002600,8.257002685546874,-0.2766863590925932,-0.11229907609894871,0.015625375223020092
1733515652465079600,8.26707958984375,-0.2869084778994322,-0.1317166010133922,0.013080604377342387
1733515652475156500,8.277156494140625,-0.2727729850411415,-0.1310759650222957,0.011357575410441495
1733515652485232600,8.287232666015624,-0.21169220113456247,-0.12561843026876449,-0.026697516721626742
1733515652495309600,8.2973095703125,-0.1353074651122093,-0.10678060493841766,-0.03231736133082304
1733515652505386500,8.307386474609375,-0.03272387347221374,-0.09059095602929591,-0.03496951524084434
1733515652515463700,8.317463623046875,0.09053893358111381,-0.06083017014637589,-0.023040985241765156
1733515652525540600,8.32754052734375,0.18886252968907355,-0.0345044732786715,0.0066571198016405105
1733515652535617500,8.337617431640625,0.2554799049347639,0.014755232191830872,0.02258950144748669
1733515652545694700,8.34769482421875,0.2760299410104751,0.07422858090177178,0.05342611356810666
1733515652555772000,8.35777197265625,0.24915011739134788,0.10988470843359828,0.08317837821785361
1733515652565848800,8.367848876953126,0.21674013217389582,0.11782543830499052,0.12096269515110179
1733515652575925800,8.37792578125,0.16468495076596737,0.09902619141936302,0.15837180383009836
1733515652586003000,8.3880029296875,0.11896598664224146,0.072168287371099,0.17006710046203807
1733515652596078800,8.398078857421876,0.0726408733189106,0.06147855105251074,0.15382391300108283
1733515652606155800,8.40815576171875,0.019865560942888258,-0.007977408619970082,0.18779820665949953
1733515652616233000,8.41823291015625,-0.006877484554052352,-0.021794337048381567,0.19068338844068347
1733515652626310000,8.428309814453126,-0.03264613206088543,-0.032133652494102716,0.16206463046604766
1733515652636386800,8.43838671875,-0.05450315908193588,-0.03301365019902587,0.13100012330710886
1733515652646463700,8.448463623046875,-0.08487374742627143,-0.02724558819159865,0.10609128923369571
1733515652656541000,8.458541015625,-0.11276245582699775,-0.031780893533676864,0.09071309370477683
1733515652666617900,8.468617919921876,-0.1284101068139076,-0.01998304984271526,0.08909724687281996
1733515652676694800,8.47869482421875,-0.1453518892645836,-0.006482932278513908,0.09916971894274465
1733515652686772000,8.48877197265625,-0.1346586458146572,-0.019381138426810503,0.10531145483446307
1733515652696847600,8.49884765625,-0.10162731382846832,-0.00811214091554284,0.10023188654785044
1733515652706924800,8.5089248046875,-0.07487666954696177,-0.0006362520769238472,0.09584457484171725
1733515652717001700,8.519001708984375,-0.03553191663026809,0.0117640875518322,0.0798600931158755
1733515652727078700,8.52907861328125,-0.01398001003563404,0.04154299361333251,0.04056899291544687
1733515652737155600,8.539155517578125,-0.003572597789764404,0.045587154437601564,-0.023905022759153505
1733515652747232800,8.549232666015625,-0.020091770914196967,0.05659487066417932,-0.06745373017170932
1733515652757309700,8.559309814453124,-0.03902385039925575,0.08491524848043919,-0.11714115496841258
1733515652767386600,8.56938671875,-0.0736561878412962,0.10677665941566228,-0.16221346435220912
1733515652777463600,8.579463623046875,-0.10754618248343467,0.10087021185085177,-0.1908455932650715
1733515652787540700,8.589540771484375,-0.11530220343768596,0.048721653071045874,-0.2169640405902639
1733515652797617700,8.59961767578125,-0.1303670861005783,0.04569032255113124,-0.2244896320558153
1733515652807693800,8.60969384765625,-0.10040390951335429,0.033588819738477466,-0.23223067463664337
1733515652817770800,8.619770751953125,-0.0928442879140377,0.005671469765156507,-0.18021144132493064
1733515652827847700,8.62984765625,-0.08161211528182029,-0.021782792741060257,-0.12531675304160453
1733515652837924600,8.639924560546875,-0.0522977579921484,-0.06095891109257936,-0.053278905383450904
1733515652848001800,8.650001708984375,-0.056585226052999496,-0.08803045789152383,0.008667496076249517
1733515652858078700,8.66007861328125,-0.06908931831717491,-0.10733297812417149,0.044808964006183664
1733515652868155600,8.67015576171875,-0.07496084069907664,-0.10645371107161045,0.05440171713461168
1733515652878232800,8.68023291015625,-0.06556348227858542,-0.10509469767808914,0.036278517763467966
1733515652888309800,8.690309814453125,-0.05654606308639049,-0.08160612393245101,-0.007961651074301334
1733515652898386700,8.70038671875,-0.037405309286713595,-0.06311842721402645,-0.0459787064718781
1733515652908463600,8.710463623046875,-0.02911737341284752,-0.04127338289171457,-0.09244627417293377
1733515652918539800,8.720539794921875,-0.01483399651646614,-0.050001025357097384,-0.11053989353985524
1733515652928616700,8.73061669921875,-0.03699205231070518,-0.07072407991215586,-0.10174183445307426
1733515652938694000,8.74069384765625,-0.08864040648341179,-0.08475055943801998,-0.08002464516097679
1733515652948770800,8.750770751953125,-0.11675474033355712,-0.09635536477491259,-0.04379552178047597
1733515652958847700,8.76084765625,-0.12932488357126712,-0.10332403474375605,-0.015671949744527226
1733515652968924700,8.770924560546876,-0.1312993985146284,-0.10127031708434224,-0.0028163469079852802
1733515652979001900,8.781001953125,-0.1276841306269169,-0.0901776990532875,-0.0019172529185918392
1733515652989078800,8.791078857421875,-0.07829846068918704,-0.07361702487468719,-0.005273152917486731
1733515652999155700,8.80115576171875,-0.0038549218624830245,-0.051447863164544104,-0.00948965808013454
1733515653009232600,8.811232666015625,0.058470309147238726,-0.037881840757280585,-0.01380737743206555
1733515653019309800,8.821309814453125,0.09232757056355476,-0.049642567308247086,0.0016299701137875672
1733515653029385700,8.8313857421875,0.10959843883812427,-0.03928367037922144,0.0332690931146848
1733515653039463000,8.841462890625,0.07588613885045051,-0.008532119893282652,0.09612235060348175
1733515653049539800,8.851539794921875,0.060467620444297786,0.003336743207275867,0.10314836764959617
1733515653059616800,8.86161669921875,0.008939677780866623,0.009347235668450594,0.13935036556115374
1733515653069693700,8.871693603515626,-0.09071662823557854,0.013373130183666943,0.1719252955493517
1733515653079771000,8.88177099609375,-0.13425240310132502,0.029558395178616047,0.19096812366619706
1733515653089847800,8.891847900390625,-0.13169687339961528,0.02836845474168658,0.17862716780817134
1733515653099924700,8.9019248046875,-0.1111304707109928,0.04243278205990791,0.15317383332820608
1733515653110002000,8.912001953125,-0.09583937807679176,0.04927548756152391,0.09511166659044101
1733515653120078800,8.922078857421875,-0.06093406891226768,0.06917085912078619,0.04196825155438855
1733515653130154800,8.93215478515625,-0.014148352339863775,0.08423983343690633,-0.02592228086569812
1733515653140232000,8.94223193359375,0.017314707416296003,0.08656403860077261,-0.09749574871538207
1733515653150308900,8.952308837890625,0.018135960671305656,0.06688391722738743,-0.11196320434124209
1733515653160385800,8.9623857421875,-0.018297288712859152,0.06714490625113248,-0.07158149589251261
1733515653170462700,8.972462646484376,-0.05190028310716152,0.055856765647977584,-0.06920900830724276
1733515653180540000,8.982539794921875,-0.06701017395555972,0.06676745124086737,-0.0596990517911734
1733515653190616800,8.992616943359375,-0.1099982518106699,0.0397242537535727,-0.031325281553552485
1733515653200693800,9.00269384765625,-0.11609247703254222,-0.002876870610564947,-0.029449461761291602
1733515653210771000,9.01277099609375,-0.11164075832068919,-0.021327304058521984,-0.015094326811440987
1733515653220847900,9.022847900390625,-0.11445815382897853,-0.03399930023550987,0.03847562366565689
1733515653230923800,9.032923828125,-0.08258183709681034,-0.04761822187379002,0.06326046146664302
1733515653241000700,9.043000732421875,-0.05064473008811474,-0.05140636211037636,0.0603522504363209
1733515653251077600,9.05307763671875,0.014319032731652259,-0.037342619314044714,0.05300791098892223
1733515653261154600,9.063154541015624,0.03929389951229095,-0.05469269030466675,0.06970338596175424
1733515653271231700,9.073231689453126,0.030566987699270246,-0.07197612579986452,0.06995591311783064
1733515653281308700,9.08330859375,-0.01270341422855854,-0.031529110729694367,0.029164628354366867
1733515653291385600,9.093385498046874,-0.10807459027171135,-0.031671295679360625,0.03024280409606872
1733515653301462500,9.103462646484376,-0.022096680995821953,-0.10292056850939989,0.02781319547910243
1733515653311539700,9.113539794921875,-0.004314356067776679,-0.13140285888910294,0.000027302423812216147
1733515653321616600,9.12361669921875,0.00914192235469818,-0.2220496367588639,0.03942957708935719
1733515653331693600,9.133693603515624,-0.01654547660946846,-0.2438435354158282,0.06579960628913249
1733515653341769700,9.143769775390625,-0.046744215518236154,-0.23524521841853854,0.06586572576132603
1733515653351846700,9.1538466796875,-0.06203823076188564,-0.1670576712466776,0.008961389572464395
1733515653361923600,9.163923583984374,-0.07497077757120132,-0.08779621074423194,-0.0824405654625967
1733515653372000800,9.174000732421876,-0.07535714654028415,-0.005287000492215156,-0.14978663857532665
1733515653382077700,9.18407763671875,-0.04767886601984501,0.061515083670616144,-0.16297169884098692
1733515653392154600,9.194154541015624,-0.02346446221768856,0.08391118600443005,-0.13939690811662003
1733515653402231800,9.204231689453126,0.022526304584741592,0.08517170745953917,-0.11072241963306441
1733515653412308700,9.214308837890625,0.04456745600104332,0.07668006570711731,-0.03980152937402017
1733515653422385700,9.2243857421875,0.037109541210532185,0.06747340755313634,0.04259914246960543
1733515653432462600,9.234462646484374,0.017509937727451325,0.06075725104063749,0.09676105949897318
1733515653442538800,9.244538818359375,-0.018251111483573914,0.06936813525855541,0.10948757147532887
1733515653452615700,9.25461572265625,-0.03922434140741825,0.09992883934751152,0.08968348579555749
1733515653462692900,9.26469287109375,-0.06001169337034225,0.13583338868245481,0.06441491503166034
1733515653472769800,9.274769775390626,-0.06279927826225758,0.16007731084004043,0.03661979178207694
1733515653482846700,9.2848466796875,-0.036142742004990576,0.14871069817319513,0.0040901034456474
1733515653492923600,9.294923583984374,-0.017721534651517868,0.08396773849725722,-0.01005073972872924
1733515653503000800,9.305000732421876,-0.041159108862280844,0.005153875631839036,-0.05771098324649501
1733515653513077800,9.315077880859375,-0.10042787491083145,-0.05539528561607003,-0.11597869619345291
1733515653523154700,9.32515478515625,-0.16997545838952063,-0.11474588472917675,-0.14292587682721203
1733515653533231600,9.335231689453124,-0.19702830048799513,-0.1270382339388132,-0.19855463327243922
1733515653543308300,9.345308349609375,-0.20500001001954077,-0.0739924340583384,-0.23815979069098828
1733515653553384200,9.35538427734375,-0.1747135928273201,-0.0011219897672533987,-0.09144883323395624
1733515653563461000,9.365461181640624,-0.11932780569195747,0.006507774458825588,0.10950299737332388
1733515653573538000,9.3755380859375,0.031159108373522756,-0.011742460241913794,0.05733937802170403
1733515653583615000,9.385614990234375,0.16240940704941748,0.016299392893910407,-0.07336674447462428
1733515653593692200,9.395692138671874,0.1462701731532812,0.04197290946319699,-0.06629658232610672
1733515653603769000,9.40576904296875,0.03576923251748085,0.01732216007038951,0.044540038271155206
1733515653613846000,9.415845947265625,0.011800327908992766,0.03456628646850586,0.0646434128581779
1733515653623923000,9.4259228515625,0.04801321254074573,0.011563888804614543,0.11877861997713335
1733515653634000100,9.436000244140626,0.049506665968894956,-0.054376756223291155,0.2053201818846166
1733515653644077000,9.4460771484375,0.0436532637655735,-0.13394231423884628,0.2842904956870712
1733515653654153200,9.4561533203125,0.06190846690237522,-0.19239523385986684,0.3554524372935295
1733515653664230100,9.466230224609374,0.08250877186059952,-0.1980826318465173,0.3526762505784631
1733515653674307000,9.47630712890625,0.043294951847195624,-0.12364829923957586,0.30223992081033063
1733515653684384000,9.486384033203125,0.0049468087524175645,-0.04187354074195027,0.2552820808077231
1733515653694461200,9.496461181640624,-0.028044775745272636,0.02784106986671686,0.1784463496148586
1733515653704538000,9.5065380859375,-0.0413093309879303,0.08478636140376329,0.11845743433190509
1733515653714615000,9.516614990234375,-0.05330021303296089,0.10253229984417557,0.06691165461768396
1733515653724692200,9.526692138671875,-0.0776116474688053,0.08172580478936434,0.02163829938658746
1733515653734769200,9.53676904296875,-0.09788929634392261,0.0457359152585268,-0.013218065202829893
1733515653744846000,9.54684619140625,-0.14459551793932915,0.022338380797207354,-0.04965231695070397
1733515653754922200,9.556922119140625,-0.17267185786664485,0.004048690868914127,-0.09676571740778163
1733515653764999200,9.566999267578124,-0.17855799329578875,0.013764175327867268,-0.1411611504433211
1733515653775076000,9.577076171875,-0.18942951592206952,0.02265139226913452,-0.17547927997019142
1733515653785153000,9.587153076171875,-0.17346797668039798,0.058134355191141365,-0.20652908275034276
1733515653795230200,9.597230224609374,-0.15084756407141683,0.07609817416593433,-0.24316095997914672
1733515653805307100,9.60730712890625,-0.10928981128036976,0.0773908443249762,-0.24356822560578584
1733515653815384000,9.617384033203125,-0.08013269037902354,0.05810089131295681,-0.23587315932484343
1733515653825461200,9.627461181640625,-0.019781974312663077,0.027796207811683415,-0.19593319872766732
1733515653835538200,9.6375380859375,0.025749942806363103,-0.009599602994322776,-0.1600152967208065
1733515653845615000,9.647614990234375,0.059601359003782266,-0.030124066237360237,-0.10565123558230698
1733515653855692000,9.657692138671875,0.06953297043144703,-0.0633995822429657,-0.04163385480113793
1733515653865768200,9.667768310546874,0.053227147796750064,-0.06727525463253259,0.02445483866163995
1733515653875845000,9.67784521484375,0.025940496942400932,-0.06018354280591011,0.09733091354249045
1733515653885922300,9.68792236328125,0.007471943315863609,-0.08857494003176689,0.13901322429496793
1733515653895999200,9.697999267578124,-0.0153542209982872,-0.11455912998542189,0.15738376090712844
1733515653906076200,9.708076171875,-0.06720481974482535,-0.11728928560167551,0.15480360822081565
1733515653916153000,9.718153076171875,-0.1200625497072935,-0.11203063442111015,0.1445893439268693
1733515653926230300,9.728230224609375,-0.13398001590073108,-0.12195230897665023,0.09738202267521992
1733515653936307200,9.73830712890625,-0.13894903648495674,-0.0963452817723155,0.021492888150084762
1733515653946384100,9.748384033203125,-0.11439327189922333,-0.08216755720749497,-0.015120476174494251
1733515653956461300,9.75846142578125,-0.09939911638498306,-0.04172419539913535,-0.04458250743970275
1733515653966537200,9.768537109375,-0.06945698258578777,-0.007362637722492218,-0.08031482374658808
1733515653976614100,9.7786142578125,-0.04455693460702896,0.015857202084362507,-0.10523807907099834
1733515653986691300,9.78869140625,-0.021418635603785513,0.034871699155867096,-0.10458302182890475
1733515653996768300,9.798768310546874,-0.007664251017570495,0.03706117202416062,-0.09835649373056367
1733515654006845200,9.80884521484375,-0.005247837525606155,0.02173340064138174,-0.08066018485184759
1733515654016922000,9.818922119140625,-0.013612345767021179,-0.01003492567166686,-0.06923566798530519
1733515654026999300,9.828999267578125,-0.006451952618360519,-0.02277925643250346,-0.0730310279805446
1733515654037076200,9.839076171875,0.0007949497699737549,-0.042562838180363174,-0.08385467004422098
1733515654047153200,9.849153076171875,0.020513211196660993,-0.06262699043527245,-0.08780949035091325
1733515654057230300,9.859230224609375,0.04017886565327644,-0.07016250050663948,-0.07635746442293748
1733515654067306200,9.86930615234375,0.5104653043508529,-0.1031063003398478,-0.02880854492569342
1733515654077383200,9.879383056640625,-0.06711363433003426,-0.07294234048351644,-0.04878815156915225
1733515654087460400,9.88946044921875,-0.12086685182750224,-0.019201544076204297,0.00561104938138742
1733515654097537300,9.899537353515624,-0.13709902470409868,0.04602919911667704,0.06972932412060909
1733515654107614200,9.9096142578125,-0.14731471377015112,0.055512774515897034,0.10188110592644661
1733515654117691400,9.91969140625,-0.14464286421239375,0.04041676606237888,0.14559791818121448
1733515654127768300,9.929768310546875,-0.10925824709832668,0.030646628806740045,0.1707272631375119
1733515654137845200,9.93984521484375,-0.06748129859864711,0.036991321658343075,0.17621451717587186
1733515654147922200,9.949922119140625,-0.047612815046310424,0.050116176169365645,0.16512701371135188
1733515654157999400,9.959999267578125,-0.04981178639531135,0.03159808431267738,0.14585748243285343
1733515654168075000,9.970074951171876,-0.04101356291174888,0.024622692342102525,0.11416404798692091
1733515654178152200,9.980152099609375,-0.04440788152515888,0.009942425082623958,0.11192600500285625
1733515654188229000,9.99022900390625,-0.04400456142127514,0.007647007621824741,0.10064573717890307
1733515654198306000,10.00030615234375,-0.04482639919817447,0.024925328550487756,0.07662518458156846
1733515654208383000,10.010383056640626,-0.04070610439777374,0.013902414754778146,0.0515309885704657
1733515654218460200,10.020460205078125,-0.04981938517987728,0.02510959907621145,0.02651499062841758
1733515654228537000,10.030537109375,-0.037167993399500845,0.019568039301037787,0.015905452539725227
1733515654238614000,10.040614013671876,-0.03520107724070549,0.013781710984557867,0.02500084147211164
1733515654248691200,10.050691162109375,-0.05446341159343719,0.010304390262812376,0.034081270297383885
1733515654258768100,10.06076806640625,-0.04503215090334415,0.0045953649662435056,0.021287483504787087
1733515654268844000,10.070843994140626,-0.030375849041342735,0.0008723989203572273,0.022489013914810493
1733515654278921200,10.080921142578125,-0.03032148850560188,-0.02198722927197814,0.00813515646494925
1733515654288998100,10.090998046875,-0.020808979272842407,-0.017003887901455163,-0.004682139067398384
1733515654299075000,10.101074951171874,-0.03232522954344749,-0.015920914970338342,-0.022707378506381062
1733515654309152000,10.111152099609376,-0.04670505255162716,0.009893471374362707,-0.015411723339185118
1733515654319229200,10.121229248046875,-0.03665010700523853,-0.026280688682198523,-0.05504512960468418
1733515654329306000,10.13130615234375,-0.04325111270546913,-0.02005567668750882,-0.06419009329983964
1733515654339383000,10.141383056640626,-0.04665186105966568,0.007229512862116098,-0.03213135093916207
1733515654349460200,10.151460205078125,-0.03397124318480491,0.007344517543911934,-0.03640606911629438
1733515654359537200,10.161537109375,-0.0060094695478677745,-0.009528729715198277,-0.03613062230893411
1733515654369614000,10.171614013671874,-0.01504442439675331,-0.015625146894156932,-0.0655941422783304
1733515654379690200,10.181690185546875,-0.0196808520257473,0.008610153565555811,-0.11265810040337965
1733515654389767200,10.19176708984375,-0.04147358163893223,-0.004263210402429104,-0.13708469478464685
1733515654399844000,10.201843994140624,-0.05801496659517288,0.0030889059260487553,-0.14381657858924007
1733515654409921300,10.21192138671875,-0.054148354294896124,-0.01111439147144556,-0.12184294858435168
1733515654419998200,10.221998291015625,-0.045945758616924286,-0.03680909695923328,-0.0907875928462483
1733515654430075100,10.2320751953125,-0.025380524972081184,-0.054960255199670786,-0.05459884714190848
1733515654440152000,10.242152099609376,-0.018755553874373436,-0.06586611848697066,-0.02479321747026406
1733515654450229200,10.252229248046875,-0.02154781494140625,-0.07551803619042038,0.0008878430846612899
1733515654460306200,10.26230615234375,-0.01352992818057537,-0.09347498703300952,0.032869154561264435
1733515654470383000,10.272383056640624,-0.050154316222667694,-0.10244754417017102,0.0741531410453841
1733515654480459300,10.282459228515625,-0.08267360703349114,-0.1130631923392415,0.09911923086452297
1733515654490536200,10.2925361328125,-0.10844400810599326,-0.11119564490169286,0.10164094962817616
1733515654500613000,10.302613037109374,-0.10346563517153262,-0.09839008547291159,0.07799833609829657
1733515654510690300,10.312690185546876,-0.09543488892912864,-0.0695024291627109,0.04870236384868622
1733515654520767200,10.322767333984375,-0.07328735452890396,-0.033033670073747634,0.013353795295534654
1733515654530844200,10.33284423828125,-0.027863573959469794,-0.011418488984555006,-0.020136578170303253
1733515654540921000,10.342921142578126,-0.007101356437802314,-0.0022207447893917557,-0.04078069487079047
1733515654550998500,10.35299853515625,0.00000526069700717926,-0.006242986042797565,-0.053882634297106415
1733515654561075500,10.363075439453125,-0.003391396003961563,0.014327508299052714,-0.05009283182639628
1733515654571152400,10.37315234375,-0.024503742137551306,0.01161065055578947,-0.010317304543312639
1733515654581228500,10.383228515625,-0.046780455875396726,0.019561609560251235,0.007683257112139835
1733515654591305500,10.393305419921875,-0.06535188535451888,0.03130070880129933,0.028965516452537848
1733515654601382400,10.40338232421875,-0.06751286278069019,0.05061711142882704,0.04274503548000939
1733515654611459600,10.41345947265625,-0.0749456431299448,0.05087839271351695,0.0184241847618483
1733515654621536500,10.42353662109375,-0.05850245785117149,0.04382642837539315,-0.014063715396868064
1733515654631613400,10.433613525390625,-0.04916588970720768,0.03113207423612475,-0.02008244596342556
1733515654641690400,10.4436904296875,-0.005554711517691612,0.030532793168723583,-0.006211412727599963
1733515654651767600,10.453767578125,0.012774141377210616,0.027517683131247757,0.024944709104392677
1733515654661844500,10.463844482421875,0.032493571847677226,0.02967603020891547,0.06280779036227613
1733515654671921400,10.47392138671875,0.03974281232357025,0.011629501386731862,0.07736625787299126
1733515654681997300,10.483997314453125,0.051826048827171324,-0.01874897800311446,0.08334261060254648
1733515654692074200,10.49407421875,0.027600539109110832,-0.043997547158598896,0.07763699197261593
1733515654702151400,10.5041513671875,-0.021822540229558943,-0.049096623863279815,0.08017912333663553
1733515654712228400,10.514228271484376,-0.07581132004857064,-0.052064241497218604,0.07659530089995824
1733515654722305300,10.52430517578125,-0.11028349849283695,-0.03653977849856019,0.06212936137774959
1733515654732382200,10.53438232421875,-0.139494979929924,-0.012963526469469069,0.02754138366724364
1733515654742459400,10.54445947265625,-0.14580138659775257,-0.015099661715328692,-0.005529367013880983
1733515654752536300,10.554536376953125,-0.12711071465313434,-0.019673399371653796,-0.036717107826843856
1733515654762613200,10.56461328125,-0.09549743277132511,-0.0437991019770503,-0.05271827582600526
1733515654772690200,10.574690185546874,-0.06077858608961105,-0.04283624829426408,-0.045518116922536864
1733515654782766300,10.584766357421875,-0.03788753984570503,-0.03278217953070998,-0.025752098230831324
1733515654792843300,10.59484326171875,-0.031304654324054715,-0.012031067924946546,-0.019438028846355156
1733515654802920400,10.60492041015625,-0.027359716090559958,0.015053922877460718,-0.020142578652827068
1733515654812997400,10.614997314453126,-0.030509120032191275,0.026103578549623488,-0.024771553627727552
1733515654823074300,10.62507421875,-0.03358545873761177,0.014439151979982853,-0.052418863621167835
1733515654833151200,10.635151123046874,-0.01317044721841812,0.01900456019937992,-0.07574706830647773
1733515654843228400,10.645228515625,0.017682956206798554,0.0015837620601058006,-0.09243457460198551
1733515654853305300,10.655305419921875,0.011119944429397583,0.013077508237957954,-0.10201720819519833
1733515654863382300,10.66538232421875,0.000786181941628456,0.019928104785084725,-0.08531097893291152
1733515654873459500,10.67545947265625,-0.007566635861992835,0.022412176685780286,-0.03866594947283156
1733515654883535400,10.685535400390625,-0.007647884404659271,-0.000883650966733694,-0.006266924040811136
1733515654893612300,10.6956123046875,-0.02937573208808899,-0.033079116650670766,0.014304794143745674
1733515654903689500,10.705689453125,-0.013926234021782875,-0.060789107483625406,0.033890113373147325
1733515654913766400,10.715766357421876,-0.01727437540590763,-0.07034618651047349,0.03260118780746125
1733515654923843300,10.72584326171875,-0.03598550561666489,-0.07172887304052711,0.02002297086114995
1733515654933920300,10.735920166015624,-0.06584405278563499,-0.07300444593429566,-0.008634274226659909
1733515654943997400,10.74599755859375,-0.09501987838745117,-0.0325993703097105,-0.04105088098114356
1733515654954074400,10.756074462890625,-0.12269114464521408,-0.018713760559260845,-0.03741534662353806
1733515654964151300,10.7661513671875,-0.12557576017081737,-0.027340719129145145,-0.00647346119727008
1733515654974228500,10.776228515625,-0.10140402646660804,-0.035253099688887596,0.0374579527894035
1733515654984304400,10.786304443359375,-0.07658581155240535,-0.03875657776519656,0.08011117266695945
1733515654994381300,10.79638134765625,-0.047723289683461186,-0.02447743865251541,0.090030235140305
1733515655004458500,10.80645849609375,-0.03220423351228237,0.0005332300938665867,0.08786306543536483
1733515655014535400,10.816535400390626,-0.008794131830334662,0.008053250335156917,0.08637777704736217
1733515655024612400,10.8266123046875,-0.006430325308442115,0.008360270457714796,0.07410567604131064
1733515655034689500,10.836689453125,-0.007000818672776222,0.011763941421359777,0.06124073284179903
1733515655044766500,10.846766357421876,-0.021686346629261968,0.014943302109837532,0.053337649833364406
1733515655054843400,10.856843505859375,-0.030123335584998127,0.007241933952271938,0.03691980905840173
1733515655064920300,10.86692041015625,-0.037197219493985176,0.00951294762417674,0.017209100750507786
1733515655074997500,10.87699755859375,-0.04575637352466583,0.0005288461796939373,-0.004509138854360208
1733515655085073400,10.887073486328125,-0.07178980944752693,-0.0008158464275300503,-0.010904000123776495
1733515655095150600,10.897150634765625,-0.06907938144505024,-0.0029513971514999863,-0.002243678140407428
1733515655105227500,10.9072275390625,-0.03224047386944294,-0.0013810790948569774,0.010994792812922968
1733515655115304400,10.917304443359376,-0.01702770716845989,0.0009271978475153445,0.027119340596580877
1733515655125381400,10.92738134765625,-0.006878653597831725,-0.012131021168082953,0.025006093035964294
1733515655135458600,10.93745849609375,0.00804652833342552,-0.020204875899851323,0.016676866170484573
1733515655145535500,10.947535400390626,0.007127659922838211,-0.01566051046848297,0.010116868334077298
1733515655155612400,10.9576123046875,0.001858195087313652,-0.01257569619566202,0.007175974310282617
1733515655165689300,10.967689453125,0.0075479311615228644,-0.005317395630478858,-0.00467293284763582
1733515655175766500,10.9777666015625,0.0014309095859527587,-0.0029084347926080227,-0.00882050838060677
1733515655185842200,10.98784228515625,-0.003994622594118118,0.00014919921234250069,-0.0033289617596194148
1733515655195919400,10.99791943359375,0.0058341129809617994,-0.015511457386612892,0.02100469364118762
1733515655205996300,11.007996337890624,0.03416179732084274,-0.03689940559118986,0.04625616713981144
1733515655216073200,11.0180732421875,0.01974222682416439,-0.02939969748556614,0.050473465174436564
1733515655226150400,11.028150390625,-0.05137772053778171,-0.039467210252583027,0.02396989098917693
1733515655236227300,11.038227294921874,-0.1260749418646097,0.0020791443616151807,-0.009826580150611698
1733515655246304300,11.04830419921875,-0.18235154035985468,-0.0074750120557844635,-0.045194479025318285
1733515655256381200,11.058381103515625,-0.19750234774053096,0.008213701593875885,-0.08428535307906568
1733515655266458400,11.068458251953125,-0.20818156266510485,0.018283552448451517,-0.10898084579589776
1733515655276535300,11.078535400390624,-0.20660452260673046,0.01240253158584237,-0.09805288940779865
1733515655286611200,11.088611083984375,-0.1684223837286234,-0.005432108051329851,-0.0703521367606474
1733515655296688400,11.0986884765625,-0.12298457463383673,-0.02280234504714608,-0.028047625289484856
1733515655306765300,11.108765380859374,-0.07161036122739314,-0.05345306550711393,0.0028118151508737354
1733515655316842200,11.11884228515625,-0.03404664650857448,-0.06052987202554941,0.020559589355345815
1733515655326919400,11.12891943359375,0.014978957945108413,-0.047546910203248256,0.03339772674632258
1733515655336996400,11.138996337890624,0.03310147461295128,-0.03340820247456431,0.052600092806434254
1733515655347073300,11.1490732421875,0.05864741927981376,-0.008610445826500654,0.05614857906824909
1733515655357150200,11.159150146484375,0.07993103032708168,0.0023857260927557943,0.06101123493486084
1733515655367227400,11.169227294921875,0.07169687046706676,0.03190101278200745,0.07313198130410165
1733515655377304300,11.17930419921875,0.07319032389521599,0.0383376217007637,0.06913833595751784
1733515655387380500,11.18938037109375,0.037982816913723946,0.04686404250562191,0.04218756599402986
1733515655397457400,11.19945751953125,0.027300094857811926,0.0452761887922883,0.01652065269546583
1733515655407534300,11.209534423828124,0.002543254742026329,0.017061463307589293,0.014871223254315554
1733515655417611300,11.219611328125,-0.03369944050610065,-0.003645809156447649,0.006323741395119578
1733515655427688400,11.2296884765625,-0.05351473256647586,-0.012669219698011875,0.023419317034864797
1733515655437765400,11.239765380859374,-0.06121522394120693,-0.0053520285524427886,0.03504025152265094
1733515655447842300,11.24984228515625,-0.07419803963303566,0.0009469254612922668,0.029874932048190382
1733515655457919200,11.259919189453125,-0.08750584949553013,0.0040406536929309365,0.031007982065575194
1733515655467996400,11.269996337890625,-0.09559504792690277,-0.014209288746863603,0.030706122175324705
1733515655478073300,11.2800732421875,-0.10905775609016417,-0.027913404450565574,0.02450365993916057
1733515655488149500,11.2901494140625,-0.12656009503304957,-0.05152122066169977,0.02527748472271487
1733515655498226400,11.300226318359375,-0.14391454993784428,-0.06167056649327278,0.006509107899386435
1733515655508303400,11.310303466796874,-0.14368600187897682,-0.07013955802246928,-0.012580226240307092
1733515655518380300,11.32038037109375,-0.12034487378001213,-0.049818070005625485,-0.01840092261726968
1733515655528457500,11.33045751953125,-0.08736264163255691,-0.040792759767919774,-0.05168676822064444
1733515655538534400,11.340534423828124,-0.04246434624195099,-0.020307167230546472,-0.05047009504041634
1733515655548611600,11.350611572265626,-0.010315642309188843,-0.011057400587201118,-0.041145299532637
1733515655558688800,11.360688720703125,0.036059155374765395,-0.005598550659418106,-0.029571373391197992
1733515655568765700,11.370765625,0.06981587902605534,0.002114946327358484,-0.017979756329441442
1733515655578842600,11.380842529296874,0.0700835900515318,0.0027596739716827866,-0.028567749306606126
1733515655588918500,11.39091845703125,0.0435007035523653,-0.0056219315350055695,-0.023062566885910928
1733515655598995500,11.400995361328125,0.011455459994077682,-0.00429302101880312,-0.023477924487460403
1733515655609072400,11.411072265625,-0.03240297095477581,-0.017508330292254685,-0.028158739247452467
1733515655619149600,11.421149658203126,-0.06292787307798862,-0.01881546736806631,-0.019877543641626833
1733515655629226500,11.4312265625,-0.07208966917693614,-0.015611410629749297,-0.014616545240348205
1733515655639303400,11.441303466796874,-0.07173135725855827,-0.004673983160406351,-0.00594547353410162
1733515655649380400,11.45138037109375,-0.05243102898299694,-0.009173340406268835,0.007575513288192451
1733515655659457500,11.46145751953125,-0.046378889337182046,-0.008545710027217865,0.019819621175620705
1733515655669534500,11.471534423828125,-0.03122340578138828,0.001975830117613077,0.028498346465360373
1733515655679611400,11.481611328125,-0.031495208460092544,0.0023563538677990434,0.03949180583772249
1733515655689687600,11.4916875,-0.03106441582739353,-0.009502133969217539,0.041953072251565755
1733515655699764500,11.501764404296875,-0.030633623194694516,-0.015688421388715505,0.036028997698519374
1733515655709841400,11.51184130859375,-0.03082008567750454,-0.022771365386992693,0.029765124131320042
1733515655719918600,11.521918701171876,-0.027639702075719832,-0.02001052237153053,0.021713307701423764
1733515655729995500,11.53199560546875,-0.060170683324337004,-0.03497150626853108,0.004578934421250597
1733515655740072400,11.542072509765624,-0.0754465783894062,-0.03289966843053698,0.0035873843669425695
1733515655750149400,11.5521494140625,-0.08528583535850047,-0.018729688780754802,-0.008122799306875095
1733515655760226600,11.5622265625,-0.08272212235033512,-0.020303660099208354,0.0022683011250104754
1733515655770303500,11.572303466796875,-0.07517009953558444,-0.006738952866196632,-0.00014824023111723362
1733515655780380400,11.58238037109375,-0.06516366930603981,0.0030187632992863655,-0.008599440375296398
1733515655790456600,11.59245654296875,-0.03852700679302215,0.022381781547516584,-0.0013434596313629298
1733515655800533500,11.602533447265625,-0.008830956709384918,0.04006254579722881,-0.0023938819997478275
1733515655810610400,11.6126103515625,-0.004115618625283241,0.04838526072353124,-0.008369010886596515
1733515655820687600,11.6226875,-0.003440495842695236,0.03800020643994212,0.003757005312805995
1733515655830764500,11.6327646484375,-0.010651742395758628,0.013408932149410246,0.007235056686913594
1733515655840841500,11.642841552734374,-0.027580665364861486,0.025956717424839734,0.01528833442153409
1733515655850918700,11.652918701171876,-0.04168693212866783,0.010083440988510847,0.024789582474762574
1733515655860995600,11.66299560546875,-0.05810147583484649,0.011545184104144573,0.01395115840048529
1733515655871072500,11.673072509765625,-0.045046763950586315,0.007226736383140087,0.014957440233044326
1733515655881149400,11.6831494140625,-0.02347790622115135,0.002758358797430992,0.02258515863250941
1733515655891225600,11.6932255859375,-0.03794423846900463,-0.0259733762986958,0.01962970636039972
1733515655901302500,11.703302490234375,-0.022712182545661926,-0.043096360535174606,0.003117775827506557
1733515655911379500,11.71337939453125,-0.051985038781166074,-0.05475742610394954,0.005459470982290804
1733515655921456600,11.72345654296875,-0.05823766943514347,-0.06525397793799638,-0.0012965974154882133
1733515655931533600,11.733533447265625,-0.07363514505326747,-0.07223419221416115,0.008495879536122084
1733515655941610500,11.743610595703124,-0.08386077099144458,-0.06411752125397324,0.013598454238986596
1733515655951687700,11.753687744140626,-0.08587678698897361,-0.044100861402601,0.007689951714407652
1733515655961764600,11.7637646484375,-0.07278115857243538,-0.021547668810933826,-0.012110179309453814
1733515655971841500,11.773841552734375,-0.07013268989026546,-0.014848463433235882,-0.021339752548141404
1733515655981918500,11.78391845703125,-0.07657295207083224,-0.012082505851238965,-0.0339171749100089
1733515655991994600,11.79399462890625,-0.08804711676537991,-0.010616671082377432,-0.051188088850351046
1733515656002071600,11.804071533203125,-0.1046954692274332,-0.0009895955592393875,-0.05354222336160019
1733515656012148700,11.814148681640624,-0.10177169073522091,0.011837591179460287,-0.04021305105066858
1733515656022225700,11.8242255859375,-0.10900222651064395,0.02981792289763689,-0.03302801665109582
1733515656032302600,11.834302490234375,-0.038299043256044385,0.008644932617992162,-0.04755443592257797
1733515656042379500,11.844379638671874,0.046667058628797525,-0.006922346609085798,-0.031738205169420684
1733515656052456700,11.854456787109376,0.10939385617673396,0.04788330255076289,0.01871622651098296
1733515656062533600,11.86453369140625,0.15942250019311904,0.033995062451809645,0.059765025132894514
1733515656072610600,11.874610595703125,0.14991232904791832,0.007256254738569259,0.07431901739789172
1733515656082687700,11.884687744140624,0.09572948796153068,-0.00929901261255145,0.06374357337504626
1733515656092763600,11.894763671875,0.025114567512273787,-0.023571575853973625,0.04681688802880235
1733515656102840600,11.904840576171875,-0.03653203358352184,-0.02551350370198488,0.02690797200137749
1733515656112917800,11.914917724609374,-0.09026362377107143,-0.01959229695945978,-0.005695992285059764
1733515656122994700,11.92499462890625,-0.13114216212630272,0.010798749651014804,-0.01314428073070012
1733515656133071600,11.935071533203125,-0.16147767915725708,0.014547580790519713,-0.029766046579927204
1733515656143148500,11.9451484375,-0.16750760697126388,0.01920943512171507,-0.038514786632265895
1733515656153225700,11.955225830078126,-0.13486439751982687,-0.002911941923946142,-0.0356200515714474
1733515656163302700,11.965302734375,-0.12255845817625521,-0.016282587889581916,-0.021620249989954755
1733515656173379600,11.975379638671875,-0.10013912109732627,-0.03373042016625404,-0.021006794266728683
1733515656183455500,11.98545556640625,-0.07319324650466441,-0.04439823691397905,-0.006287190510705113
1733515656193532400,11.995532470703125,-0.0611468348801136,-0.031953473621606825,-0.00948520110072568
1733515656203609300,12.005609375,-0.037029461711645124,-0.019600480265915394,-0.014442348584067075
1733515656213686500,12.0156865234375,-0.0069517188340425485,-0.002368190436065197,-0.01747285712007433
1733515656223763500,12.025763427734375,-0.010256605598330496,0.006083703827857971,-0.02398323452793993
1733515656233840400,12.03584033203125,-0.016568272963166236,0.021932868736237288,-0.020290261761518193
1733515656243917600,12.04591748046875,-0.010270634123682976,0.022653438095748425,-0.02095516454419121
1733515656253994500,12.055994384765626,-0.007364975810050964,0.0144860598616302,-0.012064997594011946
1733515656264071400,12.066071533203125,0.007225859600305556,0.0008900807075202464,0.0034861433490179475
1733515656274148400,12.0761484375,0.015860416954755784,-0.01370923027023673,0.021514497193694113
1733515656284224500,12.086224609375,0.02527472651004791,-0.033068595256656404,0.049025038198102264
1733515656294301400,12.096301513671875,0.009769698864221573,-0.04718684471920132,0.06607957857456058
1733515656304378600,12.106378662109375,-0.005840542721748352,-0.043702363604307175,0.0559628563709557
1733515656314455600,12.11645556640625,-0.040080665975809095,-0.02080225727111101,0.0495606063795276
1733515656324532500,12.126532470703125,-0.057709261646866794,-0.0007705459810793399,0.027762680001417173
1733515656334609400,12.136609375,-0.0759820004403591,0.008830956709384918,-0.009625705549959092
1733515656344686600,12.1466865234375,-0.07547112830877303,-0.008038637287914752,-0.04045777392620221
1733515656354763500,12.156763427734376,-0.06466390309035777,-0.011317220567166804,-0.06197159526646137
1733515656364840400,12.16684033203125,-0.07950023769438266,-0.025432109028846024,-0.07365954884216189
1733515656374917600,12.176917724609375,-0.06890110226869582,-0.028912936881929634,-0.0839483579433523
1733515656384993500,12.18699365234375,-0.06833470055758953,-0.00961421604156494,-0.08815724434265866
1733515656395070500,12.197070556640625,-0.06763911950886249,-0.00025938158854842185,-0.06932324580405838
1733515656405147600,12.207147705078125,-0.06444762999117375,0.014387421792745589,-0.055938306451588864
1733515656415224600,12.217224609375,-0.0335620778620243,0.03735430975183844,-0.045798806160595264
1733515656425301500,12.227301513671875,-0.00769581519961357,0.03846373229846358,-0.0319101094039157
1733515656435378400,12.23737841796875,0.0016670564293861387,0.026984014645963905,-0.012285782471532001
1733515656445455600,12.24745556640625,-0.01134089370369911,-0.027466245204955338,-0.006362438570847734
