time,seconds_elapsed,z,y,x
1733515644232252400,0.03425244140625,-0.060325298458337784,0.8160789608955383,-0.30050796270370483
1733515644242329300,0.044329345703125,-0.03148214519023895,0.7977002263069153,-0.2711758315563202
1733515644252406300,0.05440625,0.012721000239253044,0.7551152110099792,-0.24047918617725372
1733515644262483500,0.0644833984375,0.06140391156077385,0.7087145447731018,-0.19800832867622375
1733515644272559400,0.074559326171875,0.10135319828987122,0.6423916816711426,-0.1574377417564392
1733515644282636300,0.08463623046875,0.11900317668914795,0.5423692464828491,-0.11484713852405548
1733515644292713500,0.09471337890625,0.10642267763614655,0.4328920543193817,-0.0801919549703598
1733515644302790400,0.104790283203125,0.0722615048289299,0.3264312744140625,-0.055594757199287415
1733515644312867300,0.114867431640625,0.043898578733205795,0.25102734565734863,-0.06002785265445709
1733515644322944500,0.124944580078125,0.022119620814919472,0.2204321026802063,-0.08390318602323532
1733515644333021400,0.135021484375,0.018869498744606972,0.20787982642650604,-0.10626121610403061
1733515644343098400,0.145098388671875,0.035682883113622665,0.18205969035625458,-0.10823998600244522
1733515644353175300,0.15517529296875,0.054987870156764984,0.1435791552066803,-0.07573717087507248
1733515644363251500,0.16525146484375,0.07336825877428055,0.06369782984256744,-0.017768288031220436
1733515644373328400,0.175328369140625,0.08465740084648132,-0.04764360934495926,0.058225277811288834
1733515644383405600,0.185405517578125,0.10012578964233398,-0.1698022037744522,0.10630249977111816
1733515644393482500,0.195482421875,0.10848598182201385,-0.2779369056224823,0.10402389615774155
1733515644403559400,0.205559326171875,0.08934355527162552,-0.296909898519516,0.05796860530972481
1733515644413636400,0.21563623046875,0.023323524743318558,-0.220126673579216,0.009137949906289577
1733515644423713500,0.225713623046875,-0.08115356415510178,-0.12983351945877075,0.033290840685367584
1733515644433790500,0.23579052734375,-0.14064989984035492,-0.12802283465862274,0.1128772720694542
1733515644443867400,0.245867431640625,-0.12648776173591614,-0.2371644228696823,0.18995238840579987
1733515644453943600,0.255943603515625,-0.06729580461978912,-0.36548057198524475,0.21770332753658295
1733515644464020500,0.2660205078125,-0.009659506380558014,-0.4772743284702301,0.21362800896167755
1733515644474097400,0.276097412109375,0.011896917596459389,-0.550627589225769,0.19852176308631897
1733515644484174600,0.286174560546875,-0.005783386528491974,-0.569180965423584,0.1767132580280304
1733515644494251500,0.29625146484375,-0.032031234353780746,-0.5419986248016357,0.12604820728302002
1733515644504328400,0.306328369140625,-0.035417549312114716,-0.49158596992492676,0.09394308924674988
1733515644514405400,0.3164052734375,0.005235867574810982,-0.4304256737232208,0.11341612786054611
1733515644524482600,0.326482666015625,0.052646152675151825,-0.3770894408226013,0.1373298019170761
1733515644534560300,0.336560302734375,0.0652032271027565,-0.33049264550209045,0.13611699640750885
1733515644544637200,0.34663720703125,0.06132528930902481,-0.267200767993927,0.11432015150785446
1733515644554713300,0.35671337890625,0.06944340467453003,-0.14244501292705536,0.0644276961684227
1733515644564790300,0.366790283203125,0.08520122617483139,0.07427386194467545,-0.036182329058647156
1733515644574867200,0.3768671875,0.09447328746318817,0.37998688220977783,-0.1771990954875946
1733515644584944000,0.386944091796875,0.09420403838157654,0.6683562397956848,-0.3078785240650177
1733515644595021300,0.397021240234375,0.0964975506067276,0.8776431083679199,-0.3896559476852417
1733515644605098200,0.40709814453125,0.08148222416639328,0.9954797029495239,-0.4351279139518738
1733515644615175200,0.417175048828125,0.04716872423887253,1.0186817646026611,-0.45292848348617554
1733515644625252400,0.42725244140625,-0.025118840858340263,0.970426619052887,-0.45872846245765686
1733515644635329300,0.437329345703125,-0.11147210747003555,0.8742952942848206,-0.440002977848053
1733515644645405200,0.4474052734375,-0.19689054787158966,0.7057111263275146,-0.3718421757221222
1733515644655482400,0.457482421875,-0.23561105132102966,0.42389094829559326,-0.24814260005950928
1733515644665559300,0.467559326171875,-0.1835288256406784,0.10612250119447708,-0.0849124938249588
1733515644675636200,0.47763623046875,0.0066086240112781525,-0.117023766040802,0.1512340009212494
1733515644685713400,0.48771337890625,0.1781603991985321,-0.32262176275253296,0.33758530020713806
1733515644695790300,0.497790283203125,0.18550913035869598,-0.50956130027771,0.34601926803588867
1733515644705867300,0.5078671875,0.0798155665397644,-0.6103386282920837,0.2855200171470642
1733515644715944200,0.517944091796875,-0.026416335254907608,-0.6208522319793701,0.24010804295539856
1733515644726021400,0.528021484375,-0.08681011199951172,-0.5340219140052795,0.16239167749881744
1733515644736098300,0.538098388671875,-0.08235544711351395,-0.35235360264778137,0.04257527366280556
1733515644746174200,0.54817431640625,-0.04678301513195038,-0.10947070270776749,-0.070228211581707
1733515644756251400,0.55825146484375,-0.04359973967075348,0.0967746153473854,-0.12670934200286865
1733515644766328300,0.568328369140625,-0.03056090511381626,0.20286403596401215,-0.11405185610055923
1733515644776405200,0.5784052734375,0.007048787549138069,0.2265496551990509,-0.0865965336561203
1733515644786482400,0.588482421875,0.050033703446388245,0.16289518773555756,-0.06668110191822052
1733515644796559400,0.598559326171875,0.04231426492333412,0.09876733273267746,-0.048498909920454025
1733515644806636300,0.60863623046875,-0.004674019757658243,0.016164418309926987,-0.020772717893123627
1733515644816713200,0.618713134765625,-0.033978912979364395,-0.1354312300682068,0.01579381711781025
1733515644826790400,0.628790283203125,-0.024723093956708908,-0.225362628698349,0.06564218550920486
1733515644836866300,0.6388662109375,0.011018391698598862,-0.116134412586689,0.0742066502571106
1733515644846943500,0.648943603515625,0.09102188050746918,0.014758890494704247,0.06300805509090424
1733515644857020400,0.6590205078125,0.19143611192703247,0.06564657390117645,0.09173957258462906
1733515644867097300,0.669097412109375,0.22445902228355408,0.04784724488854408,0.15646065771579742
1733515644877174300,0.67917431640625,0.23919269442558289,-0.08700963854789734,0.23060652613639832
1733515644887251500,0.68925146484375,0.2861786484718323,-0.24697381258010864,0.24401609599590302
1733515644897328400,0.699328369140625,0.3767855167388916,-0.3581434488296509,0.17474967241287231
1733515644907405300,0.7094052734375,0.44081568717956543,-0.4331209361553192,0.15334069728851318
1733515644917482500,0.719482421875,0.4336230158805847,-0.5518710613250732,0.19320182502269745
1733515644927559400,0.729559326171875,0.3364059329032898,-0.6662660837173462,0.23962551355361938
1733515644937635000,0.739635009765625,0.18380996584892273,-0.6710291504859924,0.2720090448856354
1733515644947712300,0.749712158203125,0.06647036224603653,-0.6158218383789062,0.27643105387687683
1733515644957789200,0.7597890625,0.02549363300204277,-0.5554705858230591,0.22708562016487122
1733515644967866000,0.7698662109375,0.03624614328145981,-0.504473865032196,0.1515936702489853
1733515644977943300,0.779943359375,0.07404226064682007,-0.4577209949493408,0.09816186875104904
1733515644988020200,0.790020263671875,0.10191548615694046,-0.35332804918289185,0.06624950468540192
1733515644998097200,0.80009716796875,0.0942373275756836,-0.2516624331474304,0.055473022162914276
1733515645008174000,0.810174072265625,0.05081310123205185,-0.1753101646900177,0.03751624375581741
1733515645018251300,0.820251220703125,0.03517208993434906,-0.016586020588874817,-0.010969268158078194
1733515645028327200,0.8303271484375,0.020691096782684326,0.126085102558136,-0.08135116845369339
1733515645038404400,0.840404296875,0.0032047810964286327,0.21515505015850067,-0.12839911878108978
1733515645048481300,0.850481201171875,-0.007532711140811443,0.22240358591079712,-0.13402752578258514
1733515645058558200,0.86055810546875,-0.0184404868632555,0.1836564540863037,-0.11084603518247604
1733515645068635100,0.87063525390625,-0.010183461010456085,0.16182079911231995,-0.07735604047775269
1733515645078712300,0.88071240234375,0.01526863593608141,0.14857158064842224,-0.05159395560622215
1733515645088789200,0.890789306640625,0.032805923372507095,0.10615598410367966,-0.03980473428964615
1733515645098866200,0.9008662109375,0.042556822299957275,0.08650345355272293,-0.056456148624420166
1733515645108943000,0.910943115234375,0.04599033296108246,0.1248292475938797,-0.08979397267103195
1733515645119019300,0.921019287109375,0.039406199008226395,0.17241913080215454,-0.10861027240753174
1733515645129096200,0.93109619140625,0.02363613247871399,0.22130610048770905,-0.11507903039455414
1733515645139173400,0.94117333984375,0.020407048985362053,0.250245064496994,-0.12425228208303452
1733515645149250300,0.951250244140625,0.06261713802814484,0.26403912901878357,-0.12939758598804474
1733515645159327200,0.9613271484375,0.08021317422389984,0.2650340795516968,-0.14282284677028656
1733515645169404200,0.971404052734375,0.08505862951278687,0.25714901089668274,-0.12756353616714478
1733515645179481300,0.9814814453125,0.1156061515212059,0.25668829679489136,-0.09517070651054382
1733515645189558300,0.991558349609375,0.15675200521945953,0.2476920336484909,-0.07640130072832108
1733515645199635200,1.00163525390625,0.19245673716068268,0.23947325348854065,-0.07481645047664642
1733515645209712400,1.01171240234375,0.2177855223417282,0.25528624653816223,-0.06873328238725662
1733515645219788300,1.021788330078125,0.2303258180618286,0.2829652726650238,-0.06358779221773148
1733515645229865200,1.031865234375,0.23198023438453674,0.28794363141059875,-0.06890025734901428
1733515645239942400,1.0419423828125,0.22796764969825745,0.22741156816482544,-0.08924281597137451
1733515645250019300,1.052019287109375,0.2193392664194107,0.11581507325172424,-0.08860159665346146
1733515645260096300,1.06209619140625,0.20560267567634583,-0.03258904069662094,-0.05854089930653572
1733515645270173200,1.072173095703125,0.1932857185602188,-0.23522330820560455,-0.003577874042093754
1733515645280250400,1.08225048828125,0.15937276184558868,-0.4131850600242615,0.05843436345458031
1733515645290327300,1.092327392578125,0.11285500973463058,-0.5126833915710449,0.12266327440738678
1733515645300404200,1.102404296875,0.07670792192220688,-0.539570689201355,0.16014914214611053
1733515645310480400,1.11248046875,0.057427965104579926,-0.5306326746940613,0.16489209234714508
1733515645320557300,1.122557373046875,0.06686994433403015,-0.5012380480766296,0.15552203357219696
1733515645330634200,1.13263427734375,0.09343603253364563,-0.42920348048210144,0.13261647522449493
1733515645340711400,1.14271142578125,0.13252778351306915,-0.36129099130630493,0.09292978793382645
1733515645350788400,1.152788330078125,0.1608978509902954,-0.3231477737426758,0.05415875464677811
1733515645360865300,1.162865234375,0.1873166710138321,-0.2769315838813782,0.02209669165313244
1733515645370942500,1.1729423828125,0.2094980925321579,-0.218723863363266,-0.00592787703499198
1733515645381019400,1.183019287109375,0.20782002806663513,-0.14424696564674377,-0.02771999128162861
1733515645391096300,1.193096435546875,0.1934805065393448,-0.0057733189314603806,-0.022877326235175133
1733515645401172200,1.203172119140625,0.20331209897994995,0.1472465842962265,-0.029437489807605743
1733515645411249200,1.213249267578125,0.23256660997867584,0.28098076581954956,-0.06024257093667984
1733515645421326000,1.223326171875,0.26019051671028137,0.3168436884880066,-0.08773092180490494
1733515645431403300,1.2334033203125,0.2803097665309906,0.2765336036682129,-0.0971514955163002
1733515645441480200,1.243480224609375,0.3058833181858063,0.20376113057136536,-0.0770140066742897
1733515645451557000,1.25355712890625,0.3186304271221161,0.06029491499066353,-0.03712373226881027
1733515645461634000,1.263634033203125,0.36189985275268555,-0.027081802487373352,0.015732290223240852
1733515645471711200,1.273711181640625,0.41229963302612305,-0.05309407040476799,0.0519295334815979
1733515645481788200,1.2837880859375,0.45524629950523376,-0.1242220401763916,0.047448232769966125
1733515645491864300,1.2938642578125,0.5173079371452332,-0.21014781296253204,0.013525774702429771
1733515645501941200,1.303941162109375,0.5689146518707275,-0.2728857696056366,0.0031373156234622
1733515645512018200,1.31401806640625,0.6115097999572754,-0.27337607741355896,0.027021076530218124
1733515645522095000,1.32409521484375,0.6200196743011475,-0.2962550222873688,0.08241988718509674
1733515645532172300,1.33417236328125,0.6295115947723389,-0.42688965797424316,0.13365577161312103
1733515645542249000,1.3442490234375,0.66053307056427,-0.6125447750091553,0.17653372883796692
1733515645552326000,1.354325927734375,0.6859555244445801,-0.7041171193122864,0.19743725657463074
1733515645562403000,1.364403076171875,0.7200152277946472,-0.7375139594078064,0.21887703239917755
1733515645572480000,1.37447998046875,0.7650617361068726,-0.6767932772636414,0.24400712549686432
1733515645582557000,1.384556884765625,0.7587047815322876,-0.5634874701499939,0.26065322756767273
1733515645592632800,1.3946328125,0.7529761791229248,-0.5371442437171936,0.2825744152069092
1733515645602709800,1.404709716796875,0.80616694688797,-0.5382113456726074,0.2821003794670105
1733515645612786700,1.41478662109375,0.8941586017608643,-0.592023491859436,0.2550836503505707
1733515645622864000,1.42486376953125,0.9728413820266724,-0.6501083374023438,0.21222619712352753
1733515645632941000,1.434941162109375,1.0389493703842163,-0.5910616517066956,0.19999340176582336
1733515645643018000,1.44501806640625,1.050321102142334,-0.382041335105896,0.22494108974933624
1733515645653095000,1.455094970703125,1.0022845268249512,-0.12650173902511597,0.24286705255508423
1733515645663172000,1.465172119140625,0.9866903424263,0.011309917084872723,0.1727721244096756
1733515645673249000,1.4752490234375,1.0562572479248047,0.13296157121658325,0.10364267975091934
1733515645683325000,1.485324951171875,1.1021816730499268,0.24541141092777252,0.10186289250850677
1733515645693401900,1.49540185546875,1.0490856170654297,0.29096823930740356,0.08704612404108047
1733515645703478800,1.505478759765625,0.9850417375564575,0.35476985573768616,0.030901364982128143
1733515645713555700,1.5155556640625,0.9089949727058411,0.43438720703125,-0.030981827527284622
1733515645723633000,1.5256328125,0.8116457462310791,0.49317967891693115,-0.07571787387132645
1733515645733709800,1.535709716796875,0.732268750667572,0.5118610262870789,-0.08882415294647217
1733515645743786800,1.545786865234375,0.7547399401664734,0.42064106464385986,-0.03689490631222725
1733515645753864000,1.555864013671875,0.8615537881851196,0.2298661321401596,0.06181859225034714
1733515645763940900,1.56594091796875,0.9701665043830872,0.14391393959522247,0.14692682027816772
1733515645774016800,1.576016845703125,0.9838110208511353,0.2985498607158661,0.16778750717639923
1733515645784094000,1.586093994140625,0.9332719445228577,0.5905007719993591,0.14074790477752686
1733515645794171000,1.5961708984375,0.8974626064300537,0.746634840965271,0.11674347519874573
1733515645804247800,1.606247802734375,0.8176857829093933,0.6570042967796326,0.14925961196422577
1733515645814324700,1.61632470703125,0.7292795777320862,0.512235701084137,0.2259332239627838
1733515645824402000,1.62640185546875,0.6590466499328613,0.45944836735725403,0.2762661576271057
1733515645834478800,1.636478759765625,0.579364001750946,0.4840119779109955,0.27958789467811584
1733515645844555800,1.6465556640625,0.5008332133293152,0.6777942180633545,0.23370963335037231
1733515645854633000,1.656633056640625,0.41080334782600403,1.0058209896087646,0.16805092990398407
1733515645864708900,1.666708984375,0.3167665898799896,1.2161865234375,0.1084858700633049
1733515645874785800,1.676785888671875,0.23008106648921967,1.1322355270385742,0.08821522444486618
1733515645884863000,1.686863037109375,0.17033730447292328,0.8506355881690979,0.11817898601293564
1733515645894940000,1.69693994140625,0.08905402570962906,0.5001846551895142,0.16099382936954498
1733515645905016800,1.707016845703125,-0.011894697323441505,0.2629843056201935,0.19043800234794617
1733515645915094000,1.717093994140625,-0.09328751266002655,0.4266210198402405,0.19538943469524384
1733515645925171000,1.7271708984375,-0.14499278366565704,0.6042922139167786,0.1953556090593338
1733515645935248000,1.737247802734375,-0.16204366087913513,0.3885234296321869,0.22073642909526825
1733515645945324800,1.74732470703125,-0.1843135505914688,0.2587544918060303,0.2604076862335205
1733515645955401000,1.75740087890625,-0.1847495138645172,0.28205379843711853,0.3006654679775238
1733515645965478000,1.767477783203125,-0.14256344735622406,0.40826234221458435,0.3159855604171753
1733515645975554800,1.777554931640625,-0.09272254258394241,0.5596117377281189,0.2756013572216034
1733515645985632000,1.787632080078125,-0.04825840890407562,0.64658522605896,0.21716973185539246
1733515645995709000,1.797708984375,-0.017065389081835747,0.6294839382171631,0.17569376528263092
1733515646005785900,1.807785888671875,0.0046950336545705795,0.44972458481788635,0.1746508777141571
1733515646015863000,1.817863037109375,0.013227161020040512,0.14486122131347656,0.22248268127441406
1733515646025940000,1.82793994140625,0.006047812290489674,-0.10449082404375076,0.27226224541664124
1733515646036017000,1.838016845703125,-0.03303481265902519,-0.16778133809566498,0.2858034074306488
1733515646046093800,1.84809375,-0.07358437031507492,-0.05013567954301834,0.26748326420783997
1733515646056170000,1.858169921875,-0.10748045146465302,0.12296200543642044,0.22891765832901
1733515646066247000,1.868246826171875,-0.10357412695884705,0.17624947428703308,0.20807655155658722
1733515646076324000,1.878323974609375,-0.08123079687356949,0.11123315244913101,0.1912442445755005
1733515646086401000,1.888401123046875,-0.06183605641126633,-0.04942256584763527,0.16462169587612152
1733515646096478000,1.89847802734375,-0.03805738687515259,-0.24716037511825562,0.1490531712770462
1733515646106555000,1.908554931640625,-0.033158231526613235,-0.3464965522289276,0.12030912935733795
1733515646116632000,1.918632080078125,-0.031354475766420364,-0.34469369053840637,0.08755159378051758
1733515646126709000,1.928708984375,-0.03692873567342758,-0.3117631673812866,0.052576564252376556
1733515646136786000,1.938785888671875,-0.019043903797864914,-0.27930548787117004,0.032023586332798004
1733515646146861800,1.94886181640625,0.0260428786277771,-0.10940460115671158,0.031783103942871094
1733515646156938800,1.958938720703125,0.06999239325523376,0.11867788434028625,0.030076291412115097
1733515646167015700,1.969015625,0.0980629101395607,0.25404635071754456,0.027674918994307518
1733515646177092900,1.9790927734375,0.09147301316261292,0.2380242943763733,0.013559835962951183
1733515646187169800,1.989169677734375,0.042326245456933975,0.10211411863565445,-0.015694722533226013
1733515646197246700,1.999246826171875,-0.009799592196941376,-0.12105941027402878,-0.0523541085422039
1733515646207324000,2.009323974609375,-0.04488993436098099,-0.20759031176567078,-0.08556719124317169
1733515646217400800,2.01940087890625,-0.11919820308685303,-0.06725199520587921,-0.05253858119249344
1733515646227477800,2.029477783203125,-0.13932450115680695,0.13376286625862122,-0.024225186556577682
1733515646237554000,2.039553955078125,-0.10174278169870377,0.2615453898906708,-0.028821682557463646
1733515646247630800,2.049630859375,-0.042287442833185196,0.31877169013023376,-0.04960552603006363
1733515646257707800,2.059707763671875,0.03208830952644348,0.2693398892879486,-0.06709092110395432
1733515646267785000,2.069784912109375,0.08436163514852524,0.13202276825904846,-0.09874019026756287
1733515646277862000,2.07986181640625,0.07769995182752609,0.008644183166325092,-0.09352974593639374
1733515646287938800,2.089938720703125,0.027288973331451416,0.02719203568994999,0.011915454640984535
1733515646298015700,2.100015625,-0.04912686347961426,0.14235009253025055,0.1115594282746315
1733515646308093000,2.110093017578125,-0.1314592957496643,0.27361729741096497,0.13794948160648346
1733515646318169900,2.120169921875,-0.1905307173728943,0.3521653413772583,0.1238824650645256
1733515646328245800,2.130245849609375,-0.21042266488075256,0.3851887881755829,0.11041006445884705
1733515646338323000,2.140322998046875,-0.19615082442760468,0.42095980048179626,0.1125633493065834
1733515646348399900,2.15039990234375,-0.17296534776687622,0.3823186755180359,0.10735554248094559
1733515646358476800,2.160476806640625,-0.15116795897483826,0.34575411677360535,0.0782933309674263
1733515646368554000,2.170553955078125,-0.1365136355161667,0.3453831374645233,0.014744717627763748
1733515646378631000,2.180630859375,-0.12766769528388977,0.3264416456222534,-0.10206562280654907
1733515646388707800,2.190707763671875,-0.13276419043540955,0.2635313868522644,-0.2861284017562866
1733515646398784800,2.20078466796875,-0.15336203575134277,0.2920236885547638,-0.45754480361938477
1733515646408862000,2.210862060546875,-0.21700678765773773,0.47368934750556946,-0.5007748007774353
1733515646418937900,2.220937744140625,-0.2400173544883728,0.6083569526672363,-0.37409085035324097
1733515646429015000,2.23101513671875,-0.10362222045660019,0.5183759331703186,-0.18001672625541687
1733515646439092000,2.241092041015625,0.09701000154018402,0.24676664173603058,-0.02782018482685089
1733515646449169000,2.2511689453125,0.23231296241283417,-0.16221047937870026,0.07721808552742004
1733515646459245800,2.261245849609375,0.23841692507266998,-0.47055187821388245,0.13672159612178802
1733515646469323000,2.271322998046875,0.16554059088230133,-0.5373756885528564,0.1285712569952011
1733515646479400000,2.28139990234375,0.08419305086135864,-0.4586595892906189,0.08063501864671707
1733515646489476900,2.291476806640625,0.030443809926509857,-0.34818050265312195,0.032142847776412964
1733515646499553800,2.3015537109375,0.009373247623443604,-0.2566695511341095,-0.011445825919508934
1733515646509630000,2.3116298828125,0.030687324702739716,-0.1576540172100067,-0.0327998511493206
1733515646519707000,2.321706787109375,0.09254328906536102,-0.060770951211452484,-0.02584763988852501
1733515646529784000,2.3317841796875,0.1763436496257782,-0.03548796474933624,-0.0005537350662052631
1733515646539861000,2.341861083984375,0.24141453206539154,-0.12181086838245392,0.029408253729343414
1733515646549938000,2.35193798828125,0.33056145906448364,-0.24063338339328766,0.043670546263456345
1733515646560014800,2.362014892578125,0.4130641520023346,-0.32401764392852783,0.0445672944188118
1733515646570092000,2.372092041015625,0.48531782627105713,-0.3111473619937897,0.045748934149742126
1733515646580169000,2.3821689453125,0.5143015384674072,-0.16047966480255127,0.040267933160066605
1733515646590246000,2.392245849609375,0.5443606376647949,0.182488352060318,0.030002513900399208
1733515646600323000,2.402322998046875,0.5185821652412415,0.5180319547653198,0.028155086562037468
1733515646610399000,2.41239892578125,0.44033104181289673,0.6070294380187988,-0.04723873734474182
1733515646620476000,2.422475830078125,0.4153333604335785,0.5543419122695923,-0.09886325895786285
1733515646630553000,2.432552978515625,0.4057108461856842,0.4062695801258087,-0.07596246898174286
1733515646640630000,2.442630126953125,0.3870115876197815,0.1365332156419754,-0.02858462743461132
1733515646650707000,2.45270703125,0.3630569875240326,-0.16817662119865417,0.01714211329817772
1733515646660784000,2.4627841796875,0.31230467557907104,-0.4241197109222412,0.05783498287200928
1733515646670861000,2.472861083984375,0.26051682233810425,-0.5758751630783081,0.06381937116384506
1733515646680938000,2.48293798828125,0.21347615122795105,-0.570915162563324,0.03216734156012535
1733515646691015000,2.493014892578125,0.16170136630535126,-0.45810842514038086,-0.0010960716754198074
1733515646701091000,2.503091064453125,0.13284757733345032,-0.3147154450416565,-0.026351269334554672
1733515646711168000,2.51316796875,0.16864071786403656,-0.08145660907030106,-0.04573402181267738
1733515646721245000,2.523244873046875,0.19728893041610718,0.10196374356746674,-0.0345219150185585
1733515646731322000,2.533322021484375,0.22452427446842194,0.07327696681022644,-0.006694009993225336
1733515646741399000,2.54339892578125,0.26517269015312195,-0.08087529242038727,0.03585582599043846
1733515646751476000,2.55347607421875,0.2949923574924469,-0.22107580304145813,0.07430548220872879
1733515646761553200,2.56355322265625,0.2975570559501648,-0.2234731763601303,0.09552613645792007
1733515646771630000,2.573630126953125,0.2777913510799408,-0.1211145743727684,0.10938602685928345
1733515646781707000,2.58370703125,0.2421226054430008,0.0015709686558693647,0.08922872692346573
1733515646791783200,2.593783203125,0.20274591445922852,0.09328144788742065,0.04868876561522484
1733515646801860000,2.603860107421875,0.18601076304912567,0.1300690770149231,0.014261368662118912
1733515646811937000,2.61393701171875,0.17438074946403503,0.12689699232578278,0.0073083871975541115
1733515646822014200,2.62401416015625,0.20688483119010925,0.1087254211306572,0.017857380211353302
1733515646832091100,2.634091064453125,0.24357333779335022,0.08630053699016571,0.03324272856116295
1733515646842168000,2.64416796875,0.2721318006515503,0.07390185445547104,0.06277978420257568
1733515646852245000,2.654244873046875,0.276183545589447,0.08467087894678116,0.10264916718006134
1733515646862322200,2.664322265625,0.2878929078578949,0.06095294654369354,0.09198194742202759
1733515646872399000,2.674399169921875,0.29012784361839294,-0.009223212487995625,0.07551775127649307
1733515646882475000,2.68447509765625,0.2825939655303955,-0.03731132671236992,0.06614673137664795
1733515646892552000,2.694552001953125,0.29861074686050415,-0.0037855887785553932,0.0666777715086937
1733515646902628900,2.70462890625,0.30300721526145935,0.037595175206661224,0.07578891515731812
1733515646912705800,2.714705810546875,0.2827187180519104,0.07154462486505508,0.09394075721502304
1733515646922783000,2.724782958984375,0.2666062116622925,0.07534509897232056,0.09318391978740692
1733515646932860000,2.73485986328125,0.2269006222486496,0.03828002139925957,0.08155550062656403
1733515646942936800,2.744936767578125,0.1901644915342331,0.000013960292562842369,0.09426017850637436
1733515646953014000,2.755013916015625,0.16265803575515747,-0.021252978593111038,0.14414598047733307
1733515646963091000,2.765091064453125,0.15925686061382294,-0.007786276750266552,0.17971809208393097
1733515646973166800,2.775166748046875,0.19333812594413757,0.07716216892004013,0.14307458698749542
1733515646983244000,2.785244140625,0.2724084258079529,0.24182860553264618,0.025343356654047966
1733515646993321000,2.795321044921875,0.29671910405158997,0.9440147280693054,-0.48438966274261475
1733515647003398000,2.80539794921875,0.31594914197921753,1.140966534614563,-0.5663452744483948
1733515647013474800,2.815474853515625,0.2867073714733124,0.5411227941513062,-0.21645061671733856
1733515647023552000,2.825552001953125,0.2766924500465393,0.3037947118282318,0.013183924369513988
1733515647033629000,2.83562890625,0.2609065771102905,0.09510248899459839,0.25042951107025146
1733515647043705900,2.845705810546875,0.21120117604732513,-0.07892005890607834,0.41168802976608276
1733515647053783000,2.855782958984375,0.18240974843502045,-0.25854840874671936,0.4957538843154907
1733515647063859000,2.86585888671875,0.14824974536895752,-0.3819604814052582,0.5290038585662842
1733515647073936000,2.875935791015625,0.1404738426208496,-0.3846723735332489,0.5050926804542542
1733515647084013000,2.886012939453125,0.15524645149707794,-0.33581045269966125,0.4573392868041992
1733515647094090000,2.896090087890625,0.15320780873298645,-0.23739495873451233,0.38602012395858765
1733515647104167000,2.9061669921875,0.12739703059196472,-0.09249411523342133,0.30499282479286194
1733515647114244000,2.916244140625,0.11573053151369095,0.08141536265611649,0.2554851770401001
1733515647124321000,2.926321044921875,0.06082967296242714,0.26026445627212524,0.2312140315771103
1733515647134398000,2.93639794921875,0.010192861780524254,0.41021984815597534,0.21193142235279083
1733515647144475000,2.946474853515625,-0.00013221241533756256,0.5348971486091614,0.17925454676151276
1733515647154551000,2.956551025390625,0.030792148783802986,0.6876661777496338,0.136158749461174
1733515647164628000,2.9666279296875,0.07639142870903015,0.812066912651062,0.10052583366632462
1733515647174705200,2.976705078125,0.1309681236743927,0.830159068107605,0.09528686106204987
1733515647184782000,2.986781982421875,0.19299004971981049,0.7240737080574036,0.08845685422420502
1733515647194859000,2.99685888671875,0.2563447952270508,0.5661458373069763,0.04757494106888771
1733515647204936000,3.00693603515625,0.28277522325515747,0.5990875959396362,-0.07128729671239853
1733515647215013000,3.01701318359375,0.2718093991279602,0.7909212112426758,-0.25038301944732666
1733515647225090000,3.027090087890625,0.2161259949207306,0.7718560099601746,-0.2107081562280655
1733515647235167000,3.0371669921875,0.16383589804172516,0.6343428492546082,-0.07931817322969437
1733515647245243100,3.0472431640625,0.15555815398693085,0.31568095088005066,-0.05072890222072601
1733515647255320000,3.057320068359375,0.18628117442131042,-0.07397811859846115,0.01421361044049263
1733515647265397000,3.06739697265625,0.1906590461730957,-0.2665778696537018,0.15843312442302704
1733515647275474200,3.07747412109375,0.15593169629573822,-0.24139368534088135,0.2813020348548889
1733515647285551000,3.087551025390625,0.10248641669750214,-0.21425044536590576,0.3426331579685211
1733515647295628000,3.0976279296875,0.03503147512674332,-0.175675630569458,0.3386229872703552
1733515647305705000,3.107705078125,-0.016031071543693542,-0.15311986207962036,0.2851773798465729
1733515647315782100,3.1177822265625,-0.06386277824640274,-0.12824779748916626,0.21530960500240326
1733515647325859000,3.127859130859375,-0.1032872423529625,-0.13067850470542908,0.144916832447052
1733515647335935200,3.137935302734375,-0.14929760992527008,-0.18812048435211182,0.09809846431016922
1733515647346012200,3.14801220703125,-0.19245271384716034,-0.23753638565540314,0.08965647220611572
1733515647356089000,3.158089111328125,-0.22462822496891022,-0.27500811219215393,0.1126326248049736
1733515647366166000,3.168166015625,-0.2449425905942917,-0.2715660035610199,0.1188349798321724
1733515647376243200,3.1782431640625,-0.24781347811222076,-0.2410224825143814,0.11777850240468979
1733515647386320100,3.188320068359375,-0.23883171379566193,-0.22526144981384277,0.12574762105941772
1733515647396397000,3.19839697265625,-0.22216671705245972,-0.19730091094970703,0.12262532860040665
1733515647406474200,3.20847412109375,-0.20206411182880402,-0.17336133122444153,0.10863998532295227
1733515647416551200,3.21855126953125,-0.1850568950176239,-0.1497420221567154,0.08255458623170853
1733515647426626800,3.228626708984375,-0.18486450612545013,-0.12071378529071808,0.044124409556388855
1733515647436704000,3.2387041015625,-0.2063295841217041,-0.09271331131458282,0.01971893385052681
1733515647446781000,3.248781005859375,-0.23851852118968964,-0.08139651268720627,0.017372122034430504
1733515647456857900,3.25885791015625,-0.27386268973350525,-0.09311042726039886,0.02691955491900444
1733515647466935000,3.26893505859375,-0.31146830320358276,-0.08458376675844193,0.03548486903309822
1733515647477012000,3.279011962890625,-0.3541499972343445,-0.10119017213582993,0.0478118397295475
1733515647487089000,3.2890888671875,-0.4132937490940094,-0.1334177851676941,0.04282616451382637
1733515647497165800,3.299165771484375,-0.4682699143886566,-0.1634361445903778,0.016277913004159927
1733515647507243000,3.309242919921875,-0.50484699010849,-0.18499085307121277,-0.04018378630280495
1733515647517319000,3.31931884765625,-0.5259584188461304,-0.19981959462165833,-0.10270175337791443
1733515647527395800,3.329395751953125,-0.5208063125610352,-0.234544575214386,-0.13868068158626556
1733515647537472800,3.33947265625,-0.5184898376464844,-0.23486734926700592,-0.14081279933452606
1733515647547549700,3.3495498046875,-0.5379593968391418,-0.24113161861896515,-0.1095639243721962
1733515647557626600,3.359626708984375,-0.56679368019104,-0.29103100299835205,-0.07406584918498993
1733515647567703800,3.369703857421875,-0.6100525856018066,-0.37201792001724243,-0.045842498540878296
1733515647577780700,3.37978076171875,-0.6711382865905762,-0.4010069668292999,-0.046023592352867126
1733515647587857700,3.389857666015625,-0.7374646067619324,-0.41606971621513367,-0.06807336211204529
1733515647597934800,3.399934814453125,-0.803841769695282,-0.4271250367164612,-0.1098005622625351
1733515647608010800,3.4100107421875,-0.883616030216217,-0.4070614278316498,-0.1481342911720276
1733515647618087700,3.420087646484375,-0.9857783317565918,-0.40746569633483887,-0.1880233883857727
1733515647628164900,3.430164794921875,-1.1016600131988525,-0.36736971139907837,-0.19366240501403809
1733515647638241800,3.44024169921875,-1.1653244495391846,-0.33432838320732117,-0.15872253477573395
1733515647648318700,3.450318603515625,-1.1685854196548462,-0.3165573477745056,-0.12912635505199432
1733515647658395600,3.460395751953125,-1.1309080123901367,-0.2878580689430237,-0.08217696100473404
1733515647668472800,3.470472900390625,-1.0478663444519043,-0.23403795063495636,-0.05769285932183266
1733515647678549800,3.4805498046875,-0.9325035810470581,-0.2096647024154663,-0.08102535456418991
1733515647688626700,3.490626708984375,-0.7854034900665283,-0.1194654330611229,-0.14756126701831818
1733515647698704000,3.500703857421875,-0.6032938361167908,0.04467184096574783,-0.22373032569885254
1733515647708779800,3.51077978515625,-0.4274473786354065,0.2035575658082962,-0.2453560084104538
1733515647718856700,3.520856689453125,-0.2754274904727936,0.20201852917671204,-0.19168931245803833
1733515647728934000,3.530933837890625,-0.18541909754276276,0.09448955953121185,-0.1093723326921463
1733515647739010800,3.5410107421875,-0.13268530368804932,0.01550526823848486,-0.05493013188242912
1733515647749087700,3.551087646484375,-0.09391090273857117,0.03900947421789169,-0.06585930287837982
1733515647759165000,3.5611650390625,-0.054556574672460556,0.1215251237154007,-0.1248009204864502
1733515647769241900,3.571241943359375,-0.028564970940351486,0.08338925987482071,-0.19797971844673157
1733515647779318800,3.58131884765625,0.0025519351474940777,-0.01787850446999073,-0.27441030740737915
1733515647789395700,3.591395751953125,0.03948204219341278,-0.002683022990822792,-0.31745490431785583
1733515647799471900,3.601471923828125,0.07152040302753448,-0.01957651786506176,-0.3112715780735016
1733515647809548800,3.611548828125,0.09965713322162628,-0.0866064503788948,-0.26108312606811523
1733515647819625700,3.621625732421875,0.11255508661270142,-0.12187309563159943,-0.1748933643102646
1733515647829703000,3.631702880859375,0.10850489139556885,-0.10509386658668518,-0.08483561873435974
1733515647839779800,3.64177978515625,0.0841502845287323,-0.0839955061674118,-0.025273757055401802
1733515647849856800,3.651856689453125,0.04905232414603233,-0.042634982615709305,-0.005616228561848402
1733515647859934000,3.661933837890625,0.002239012159407139,-0.0034063546918332577,-0.01874055154621601
1733515647870011000,3.672010986328125,-0.035184096544981,0.058564215898513794,-0.05205053836107254
1733515647880087800,3.682087890625,-0.03991200774908066,0.08136700093746185,-0.07649515569210052
1733515647890164700,3.692164794921875,-0.0237790048122406,0.08522843569517136,-0.08791829645633698
1733515647900240600,3.70224072265625,-0.007724406197667122,0.07594279199838638,-0.09804709255695343
1733515647910317600,3.712317626953125,-0.018181148916482925,0.05250614508986473,-0.1152193546295166
1733515647920394800,3.722394775390625,-0.035559337586164474,0.01800515688955784,-0.12433349341154099
1733515647930471700,3.7324716796875,-0.05127081274986267,-0.014835219830274582,-0.12588942050933838
1733515647940548600,3.742548583984375,-0.058169201016426086,-0.03353087604045868,-0.11930742859840393
1733515647950625500,3.75262548828125,-0.0593763068318367,-0.03771759942173958,-0.12281859666109085
1733515647960702700,3.76270263671875,-0.04277922213077545,-0.03966756537556648,-0.12830710411071777
1733515647970779600,3.772779541015625,-0.0087489765137434,-0.028897440060973167,-0.14589282870292664
1733515647980856600,3.782856689453125,0.03873571753501892,-0.016416270285844803,-0.15855775773525238
1733515647990932700,3.7929326171875,0.08441447466611862,0.002798153320327401,-0.1458391696214676
1733515648001009700,3.803009765625,0.12638802826404572,0.0311051607131958,-0.10493035614490509
1733515648011086600,3.813086669921875,0.15006661415100098,0.05947782099246979,-0.04087969660758972
1733515648021163800,3.823163818359375,0.16282741725444794,0.09394605457782745,0.025532081723213196
1733515648031240700,3.83324072265625,0.15857233107089996,0.11383893340826035,0.07850304245948792
1733515648041317600,3.843317626953125,0.15154744684696198,0.1363045573234558,0.09781388938426971
1733515648051394800,3.853394775390625,0.1431892216205597,0.15332795679569244,0.08571230620145798
1733515648061471700,3.8634716796875,0.13158635795116425,0.14917822182178497,0.04468231275677681
1733515648071548700,3.873548583984375,0.11233861744403839,0.14322391152381897,-0.02758505567908287
1733515648081625600,3.88362548828125,0.08853048831224442,0.14936330914497375,-0.1107686311006546
1733515648091701800,3.89370166015625,0.07416892051696777,0.15400761365890503,-0.1758408546447754
1733515648101778700,3.90377880859375,0.07032331824302673,0.16220375895500183,-0.22043602168560028
1733515648111855900,3.91385595703125,0.07641097903251648,0.17497634887695312,-0.24132493138313293
1733515648121932800,3.923932861328125,0.07961049675941467,0.18210935592651367,-0.24627946317195892
1733515648132009700,3.934009765625,0.08000171929597855,0.17502464354038239,-0.23931410908699036
1733515648142086700,3.944086669921875,0.07481148838996887,0.15799930691719055,-0.2359316200017929
1733515648152163800,3.954163818359375,0.06059207394719124,0.13847710192203522,-0.23737521469593048
1733515648162240800,3.96424072265625,0.055451638996601105,0.12159665673971176,-0.24376839399337769
1733515648172317700,3.974317626953125,0.06709950417280197,0.11615671217441559,-0.24087394773960114
1733515648182394600,3.98439453125,0.1005868911743164,0.1041644960641861,-0.22226858139038086
1733515648192470800,3.994470703125,0.14006096124649048,0.09148523211479187,-0.1845150887966156
1733515648202547700,4.004547607421875,0.18779624998569489,0.08461081981658936,-0.14875762164592743
1733515648212625000,4.014625,0.22143320739269257,0.091800257563591,-0.11843496561050415
1733515648222701800,4.024701904296875,0.2429555505514145,0.10312668234109879,-0.08827093988656998
1733515648232778800,4.03477880859375,0.239427387714386,0.09800691902637482,-0.05609218031167984
1733515648242855700,4.044855712890625,0.20470961928367615,0.08145137876272202,-0.023048745468258858
1733515648252932900,4.054932861328125,0.15995749831199646,0.05546192452311516,-0.00004753749817609787
1733515648263009800,4.065009765625,0.12891381978988647,0.0340019054710865,0.009618671610951424
1733515648273086700,4.075086669921875,0.12461216747760773,0.012678020633757114,0.006757889874279499
1733515648283163000,4.085162841796875,0.14071445167064667,0.010653485544025898,-0.009069276042282581
1733515648293239800,4.09523974609375,0.1726839393377304,0.01948145590722561,-0.03549230098724365
1733515648303316700,4.105316650390625,0.21537227928638458,0.04368133470416069,-0.07909730821847916
1733515648313394000,4.115393798828125,0.24732865393161774,0.06687545031309128,-0.14139370620250702
1733515648323470800,4.125470947265625,0.27752649784088135,0.08846676349639893,-0.21379412710666656
1733515648333547800,4.1355478515625,0.2903459072113037,0.0842248722910881,-0.27876016497612
1733515648343624700,4.145624755859375,0.2976011633872986,0.07315916568040848,-0.3402024805545807
1733515648353702000,4.155701904296875,0.2833552062511444,0.058034490793943405,-0.3771933615207672
1733515648363778800,4.16577880859375,0.247141033411026,0.04903167486190796,-0.4043264389038086
1733515648373855700,4.175855712890625,0.20015805959701538,0.042032625526189804,-0.4020437002182007
1733515648383932000,4.185931884765625,0.1439480483531952,0.037640541791915894,-0.3793514370918274
1733515648394008800,4.1960087890625,0.08945371955633163,0.02710910513997078,-0.35216888785362244
1733515648404085800,4.206085693359375,0.0388435423374176,0.011311501264572144,-0.31944742798805237
1733515648414163000,4.216162841796875,-0.023532286286354065,-0.001825464190915227,-0.2919751703739166
1733515648424239900,4.226239990234375,-0.08542175590991974,-0.018363961949944496,-0.27777519822120667
1733515648434316800,4.23631689453125,-0.13785183429718018,-0.03479873761534691,-0.26104167103767395
1733515648444394000,4.24639404296875,-0.17156878113746643,-0.065898597240448,-0.24536257982254028
1733515648454471000,4.256470947265625,-0.1959385722875595,-0.0920029953122139,-0.2330690175294876
1733515648464547800,4.2665478515625,-0.20718111097812653,-0.1367693990468979,-0.22507181763648987
1733515648474624800,4.276624755859375,-0.20396363735198975,-0.18790693581104279,-0.21398356556892395
1733515648484702000,4.286701904296875,-0.18966832756996155,-0.21212652325630188,-0.21295425295829773
1733515648494777600,4.296777587890625,-0.16811561584472656,-0.22947204113006592,-0.2044084519147873
1733515648504854800,4.306854736328125,-0.14218202233314514,-0.24976666271686554,-0.18875093758106232
1733515648514931700,4.316931640625,-0.11716961860656738,-0.2633110582828522,-0.1660274714231491
1733515648525008600,4.327008544921875,-0.08725406229496002,-0.2525668144226074,-0.14469848573207855
1733515648535085600,4.33708544921875,-0.057695478200912476,-0.2488490641117096,-0.12315983325242996
1733515648545162500,4.34716259765625,-0.033452458679676056,-0.24267132580280304,-0.10804533958435059
1733515648555239400,4.357239501953125,-0.015413740649819374,-0.2205689251422882,-0.09572982788085938
1733515648565316400,4.36731640625,-0.0033634696155786514,-0.18979370594024658,-0.07715161144733429
1733515648575393500,4.3773935546875,0.0026131332851946354,-0.15834784507751465,-0.05879360809922218
1733515648585470500,4.387470458984375,0.0026133996434509754,-0.13122008740901947,-0.05124381184577942
1733515648595546400,4.39754638671875,-0.009334545582532883,-0.10552605986595154,-0.06784691661596298
1733515648605623600,4.40762353515625,-0.017111774533987045,-0.08269237726926804,-0.11116030812263489
1733515648615700500,4.417700439453125,-0.008154980838298798,-0.06553220003843307,-0.16349124908447266
1733515648625777400,4.42777734375,0.007865529507398605,-0.05324038118124008,-0.20934316515922546
1733515648635854600,4.4378544921875,0.029960867017507553,-0.03432922437787056,-0.2455427199602127
1733515648645931500,4.447931640625,0.04914920777082443,-0.01748126745223999,-0.25285494327545166
1733515648656008400,4.458008544921875,0.06618194282054901,0.006273760460317135,-0.2358451634645462
1733515648666085400,4.46808544921875,0.07032155990600586,0.02053392305970192,-0.19594994187355042
1733515648676162600,4.47816259765625,0.06543689221143723,0.02256746031343937,-0.15063953399658203
1733515648686239500,4.488239501953125,0.046426188200712204,0.028844531625509262,-0.12206355482339859
1733515648696315600,4.498315673828125,0.0213000625371933,0.023550700396299362,-0.11711673438549042
1733515648706392600,4.508392578125,-0.006791760213673115,0.019471801817417145,-0.12661010026931763
1733515648716469500,4.518469482421875,-0.012918045744299889,0.019476434215903282,-0.1407819390296936
1733515648726546400,4.52854638671875,-0.011452507227659225,0.006365691777318716,-0.15038689970970154
1733515648736623600,4.53862353515625,0.016965340822935104,0.023382510989904404,-0.1488916575908661
1733515648746700500,4.548700439453125,0.054389145225286484,0.016603700816631317,-0.1347297579050064
1733515648756777500,4.558777587890625,0.07738037407398224,0.013050922192633152,-0.10553278028964996
1733515648766854400,4.5688544921875,0.07729967683553696,0.011675398796796799,-0.07913979142904282
1733515648776931600,4.578931640625,0.07512382417917252,0.011342749930918217,-0.06471891701221466
1733515648787008500,4.589008544921875,0.0871831551194191,0.015712197870016098,-0.06790618598461151
1733515648797084400,4.59908447265625,0.11124491691589355,0.0335112102329731,-0.09635670483112335
1733515648807161300,4.609161376953125,0.14799495041370392,0.04183518886566162,-0.13021160662174225
1733515648817238300,4.61923828125,0.1793728917837143,0.0391312912106514,-0.15041989088058472
1733515648827315500,4.6293154296875,0.17936091125011444,0.021676398813724518,-0.13765376806259155
1733515648837392400,4.639392333984375,0.13831499218940735,-0.00820185150951147,-0.10320428758859634
1733515648847469300,4.64946923828125,0.08214413374662399,-0.026782725006341934,-0.06523267179727554
1733515648857546200,4.659546142578125,0.0339730866253376,-0.05276978015899658,-0.05115123838186264
1733515648867623400,4.66962353515625,-0.01814364455640316,-0.058450568467378616,-0.06509687751531601
1733515648877700400,4.679700439453125,-0.050220295786857605,-0.046064987778663635,-0.10021662712097168
1733515648887777300,4.68977734375,-0.050581157207489014,-0.009645724669098854,-0.15530411899089813
1733515648897853400,4.699853515625,-0.03892733156681061,0.015059737488627434,-0.21353577077388763
1733515648907930400,4.709930419921875,-0.030232377350330353,0.04019039124250412,-0.24591395258903503
1733515648918007300,4.72000732421875,-0.03999776020646095,0.052995722740888596,-0.249698668718338
1733515648928084500,4.73008447265625,-0.06765361875295639,0.05182366818189621,-0.22786100208759308
1733515648938161400,4.740161376953125,-0.10356799513101578,0.04022407531738281,-0.19940915703773499
1733515648948238300,4.75023828125,-0.13486680388450623,0.005216024816036224,-0.17967885732650757
1733515648958315300,4.760315185546875,-0.14661629498004913,-0.031918976455926895,-0.1758793741464615
1733515648968392400,4.770392333984375,-0.1387903243303299,-0.06968073546886444,-0.1825556457042694
1733515648978469400,4.780469482421875,-0.12723220884799957,-0.09583856910467148,-0.1831345111131668
1733515648988546300,4.79054638671875,-0.12648145854473114,-0.11408761143684387,-0.1739356964826584
1733515648998622500,4.80062255859375,-0.12738965451717377,-0.11630098521709442,-0.15475308895111084
1733515649008699400,4.810699462890625,-0.11124078184366226,-0.10739563405513763,-0.12532275915145874
1733515649018776300,4.8207763671875,-0.07237886637449265,-0.0882650837302208,-0.08525311201810837
1733515649028853500,4.830853515625,-0.037968963384628296,-0.07689525187015533,-0.03638250753283501
1733515649038930400,4.840930419921875,-0.02733682096004486,-0.07734567672014236,0.015920624136924744
1733515649049007400,4.85100732421875,-0.03855006396770477,-0.07857152819633484,0.04796244576573372
1733515649059084300,4.861084228515625,-0.06428306549787521,-0.07178480178117752,0.06881023198366165
1733515649069161500,4.871161376953125,-0.08127004653215408,-0.0655956119298935,0.08437294512987137
1733515649079238400,4.88123828125,-0.07814349234104156,-0.035728272050619125,0.10520356148481369
1733515649089315300,4.8913154296875,-0.06435311585664749,-0.012302572838962078,0.13392949104309082
1733515649099392500,4.901392578125,-0.05944874510169029,-0.0013603903353214264,0.14893461763858795
1733515649109468400,4.911468505859375,-0.056886252015829086,0.019034363329410553,0.14525893330574036
1733515649119545300,4.92154541015625,-0.049908604472875595,0.05640842393040657,0.1286497712135315
1733515649129622500,4.93162255859375,-0.02845231629908085,0.08845078200101852,0.12494345009326935
1733515649139699500,4.941699462890625,0.0020387452095746994,0.11750763654708862,0.13385586440563202
1733515649149776400,4.9517763671875,0.02720615081489086,0.13249431550502777,0.14904360473155975
1733515649159853600,4.961853515625,0.035211775451898575,0.1330338418483734,0.16570493578910828
1733515649169930500,4.971930419921875,0.02616848051548004,0.12521985173225403,0.1629757285118103
1733515649180007400,4.98200732421875,-0.006061685271561146,0.1266179084777832,0.15745100378990173
1733515649190084400,4.99208447265625,-0.04263434559106827,0.12401360273361206,0.15466773509979248
1733515649200160500,5.002160400390625,-0.07755854725837708,0.12287082523107529,0.16767722368240356
1733515649210237400,5.012237548828125,-0.09557537734508514,0.11427520215511322,0.19112901389598846
1733515649220314600,5.022314697265625,-0.1014530286192894,0.0789642408490181,0.2292255312204361
1733515649230391600,5.0323916015625,-0.09019824117422104,0.025173980742692947,0.26561203598976135
1733515649240468500,5.042468505859375,-0.085948146879673,-0.03317758068442345,0.2889094352722168
1733515649250545400,5.05254541015625,-0.10259690135717392,-0.09812702238559723,0.28471389412879944
1733515649260622600,5.06262255859375,-0.1250333935022354,-0.15223291516304016,0.27407634258270264
1733515649270699500,5.072699462890625,-0.1502481997013092,-0.19201041758060455,0.26199012994766235
1733515649280776400,5.0827763671875,-0.16174496710300446,-0.227678120136261,0.2565111517906189
1733515649290853400,5.092853271484375,-0.16337241232395172,-0.2476787120103836,0.2514013350009918
1733515649300930600,5.1029306640625,-0.14144273102283478,-0.24103692173957825,0.24407199025154114
1733515649311006500,5.11300634765625,-0.10079943388700485,-0.22348855435848236,0.22301624715328217
1733515649321083600,5.123083740234375,-0.03096979856491089,-0.17824526131153107,0.19763562083244324
1733515649331160600,5.13316064453125,0.04598943144083023,-0.10722515732049942,0.16766254603862762
1733515649341237500,5.143237548828125,0.12439422309398651,-0.04480811581015587,0.1413840651512146
1733515649351314400,5.153314453125,0.1758992224931717,-0.013578558340668678,0.13061770796775818
1733515649361391600,5.1633916015625,0.18433840572834015,-0.0022787146735936403,0.13138717412948608
1733515649371468500,5.173468505859375,0.15421272814273834,0.013220350258052349,0.13847197592258453
1733515649381545500,5.18354541015625,0.11503773927688599,0.028567655012011528,0.1365247219800949
1733515649391622700,5.19362255859375,0.07951117306947708,0.03869006410241127,0.1241103932261467
1733515649401699600,5.203699462890625,0.07210785150527954,0.03745577111840248,0.11923602223396301
1733515649411775200,5.213775146484375,0.09646538645029068,0.034523364156484604,0.1264830231666565
1733515649421852400,5.223852294921875,0.13625717163085938,0.03083280846476555,0.14113955199718475
1733515649431929300,5.233929443359375,0.17437152564525604,0.029311876744031906,0.1521914005279541
1733515649442006300,5.24400634765625,0.21310092508792877,0.04274916276335716,0.15088889002799988
1733515649452083500,5.25408349609375,0.24930046498775482,0.053419649600982666,0.14458972215652466
1733515649462160400,5.264160400390625,0.2554078996181488,0.04692108929157257,0.13553445041179657
1733515649472237300,5.2742373046875,0.2355116903781891,0.027278143912553787,0.12752819061279297
1733515649482314200,5.284314208984375,0.20701980590820312,0.020313352346420288,0.11530687659978867
1733515649492391400,5.294391357421875,0.187303364276886,0.004172732122242451,0.11534309387207031
1733515649502468400,5.30446826171875,0.1692005842924118,-0.006571689620614052,0.11728044599294662
1733515649512544500,5.31454443359375,0.15828216075897217,-0.011744081042706966,0.12286189943552017
1733515649522621400,5.324621337890625,0.14848800003528595,-0.014327126555144787,0.13552777469158173
1733515649532698400,5.334698486328125,0.13332688808441162,-0.021642830222845078,0.1461857408285141
1733515649542775800,5.34477587890625,0.12194120138883591,-0.035742610692977905,0.156457781791687
1733515649552853000,5.35485302734375,0.10328229516744614,-0.047646407037973404,0.16517244279384613
1733515649562930000,5.364929931640625,0.084520623087883,-0.05131775885820389,0.17226068675518036
1733515649573006800,5.3750068359375,0.06479725241661072,-0.0487816296517849,0.16968435049057007
1733515649583083800,5.385083740234375,0.053245849907398224,-0.03361889719963074,0.15572243928909302
1733515649593161000,5.395160888671875,0.04541296139359474,-0.004905759822577238,0.13414551317691803
1733515649603238000,5.40523779296875,0.038519203662872314,0.029302485287189484,0.10274238884449005
1733515649613313800,5.415313720703125,0.03525630384683609,0.06495156139135361,0.0664493665099144
1733515649623391000,5.425390869140625,0.027845473960042,0.09190317243337631,0.03238602727651596
1733515649633468000,5.435468017578125,0.01984427124261856,0.11431660503149033,0.009979256428778172
1733515649643544800,5.445544921875,0.019635852426290512,0.12484270334243774,-0.005637872498482466
1733515649653622000,5.4556220703125,0.02263270691037178,0.12234705686569214,-0.014853209257125854
1733515649663699000,5.465698974609375,0.029035739600658417,0.11898151785135269,-0.01735680177807808
1733515649673775900,5.47577587890625,0.0358760692179203,0.11858124285936356,-0.023715365678071976
1733515649683852800,5.485852783203125,0.04146115854382515,0.1144828051328659,-0.0296439491212368
1733515649693930000,5.495929931640625,0.037147101014852524,0.11881496757268906,-0.030406147241592407
1733515649704007000,5.5060068359375,0.031901415437459946,0.12429643422365189,-0.03033238649368286
1733515649714083800,5.516083740234375,0.04372371733188629,0.11595834046602249,-0.03800655156373978
1733515649724160000,5.526159912109375,0.05368522182106972,0.10456328094005585,-0.04284394532442093
1733515649734237000,5.53623681640625,0.049689147621393204,0.09891418367624283,-0.04362718015909195
1733515649744313900,5.54631396484375,0.043394237756729126,0.09278474748134613,-0.04109705612063408
1733515649754391000,5.55639111328125,0.04108580946922302,0.08170120418071747,-0.033557914197444916
1733515649764468000,5.566468017578125,0.04651806131005287,0.06744784116744995,-0.03010789304971695
1733515649774545000,5.576544921875,0.05082732439041138,0.05936488136649132,-0.03409784287214279
1733515649784622000,5.5866220703125,0.05403963103890419,0.04070616140961647,-0.046264249831438065
1733515649794699000,5.596698974609375,0.047749511897563934,0.003028023522347212,-0.05431392043828964
1733515649804776000,5.60677587890625,0.03510705754160881,-0.00698294211179018,-0.04644449055194855
1733515649814852900,5.616852783203125,0.013276860117912292,-0.02265777625143528,-0.026644950732588768
1733515649824930000,5.626929931640625,-0.02134074829518795,-0.04023132473230362,-0.007206205744296312
1733515649835006000,5.637005859375,-0.04859846830368042,-0.05354020372033119,0.0013262960128486156
1733515649845083000,5.647082763671875,-0.048265695571899414,-0.056609027087688446,0.001314698252826929
1733515649855160000,5.65716015625,-0.04927822947502136,-0.05084913969039917,0.00020149676129221916
1733515649865237000,5.667237060546875,-0.04591093212366104,-0.04174068570137024,-0.004798710811883211
1733515649875314000,5.67731396484375,-0.04278517886996269,-0.02604934386909008,-0.0132068432867527
1733515649885391000,5.68739111328125,-0.03573206439614296,-0.010890630073845387,-0.025792410597205162
1733515649895468000,5.697468017578125,-0.03320099785923958,0.0022081276401877403,-0.03896653652191162
1733515649905545000,5.707544921875,-0.02070373296737671,0.014916600659489632,-0.04378616064786911
1733515649915622000,5.717621826171875,-0.010072393342852592,0.025542879477143288,-0.03751521557569504
1733515649925699000,5.727698974609375,0.004199796821922064,0.03432456776499748,-0.026024552062153816
1733515649935774700,5.737774658203125,0.021448560059070587,0.044509828090667725,-0.0179732833057642
1733515649945852000,5.747851806640625,0.0347600057721138,0.052444782108068466,-0.00007052626460790634
1733515649955928800,5.7579287109375,0.04830830544233322,0.06150645390152931,0.015119878575205803
1733515649966005800,5.768005859375,0.054719436913728714,0.06518077105283737,0.02637884020805359
1733515649976082700,5.778082763671875,0.05795997381210327,0.06708146631717682,0.03764241188764572
1733515649986159900,5.788159912109375,0.053750939667224884,0.06263870745897293,0.045616962015628815
1733515649996236800,5.79823681640625,0.05477146431803703,0.05566708371043205,0.05317740887403488
1733515650006313700,5.808313720703125,0.05271898955106735,0.04974095895886421,0.06100968271493912
1733515650016391000,5.818390869140625,0.048941560089588165,0.041878506541252136,0.06116015091538429
1733515650026467800,5.8284677734375,0.049049027264118195,0.035673726350069046,0.06272555887699127
1733515650036544800,5.838544677734375,0.048935044556856155,0.03082517720758915,0.06881727278232574
1733515650046621000,5.848620849609375,0.04451324790716171,0.02917344495654106,0.07697056233882904
1733515650056697900,5.85869775390625,0.04169642552733421,0.026652229949831963,0.08782213926315308
1733515650066774800,5.86877490234375,0.03863006830215454,0.024786608293652534,0.0986766368150711
1733515650076852000,5.87885205078125,0.035281676799058914,0.0258990116417408,0.10232756286859512
1733515650086929000,5.888928955078125,0.0340677909553051,0.023489540442824364,0.09467234462499619
1733515650097005800,5.899005859375,0.030182238668203354,0.017533114179968834,0.07846993952989578
1733515650107082800,5.909082763671875,0.026518631726503372,0.01448302622884512,0.06514234840869904
1733515650117160000,5.919159912109375,0.027394011616706848,0.021592866629362106,0.04790157824754715
1733515650127236900,5.92923681640625,0.0353052094578743,0.027035674080252647,0.03991951048374176
1733515650137313800,5.939313720703125,0.04300893843173981,0.03963455557823181,0.038156501948833466
1733515650147390700,5.949390625,0.05115155503153801,0.0501064695417881,0.03786740452051163
1733515650157467000,5.959466796875,0.057086411863565445,0.0594448447227478,0.04728833585977554
1733515650167543800,5.969543701171875,0.05917767807841301,0.06265603750944138,0.05269770696759224
1733515650177621000,5.97962109375,0.05537521839141846,0.06675437092781067,0.05686502158641815
1733515650187698000,5.989697998046875,0.050283461809158325,0.07001513242721558,0.05375589802861214
1733515650197774800,5.99977490234375,0.05475917086005211,0.07280905544757843,0.05023599788546562
1733515650207851800,6.009851806640625,0.05882561206817627,0.07212233543395996,0.0472993403673172
1733515650217929000,6.019928955078125,0.06911313533782959,0.07192686200141907,0.04663940891623497
1733515650228006000,6.030005859375,0.07666995376348495,0.06067928299307823,0.051354896277189255
1733515650238082800,6.040082763671875,0.08628503233194351,0.05664672330021858,0.05537600442767143
1733515650248160000,6.050159912109375,0.08550402522087097,0.05491010844707489,0.05598606914281845
1733515650258237000,6.06023681640625,0.09152090549468994,0.05811548978090286,0.05983114242553711
1733515650268312800,6.070312744140625,0.09697118401527405,0.06967295706272125,0.06140267103910446
1733515650278390000,6.08039013671875,0.10518091171979904,0.07568371295928955,0.06674816459417343
1733515650288467000,6.090467041015625,0.11013087630271912,0.0850435420870781,0.07692915946245193
1733515650298543900,6.1005439453125,0.10723495483398438,0.09490709006786346,0.0915355309844017
1733515650308621000,6.11062109375,0.10575927793979645,0.0950033962726593,0.10366413742303848
1733515650318698000,6.120697998046875,0.09830642491579056,0.09643297642469406,0.10452940315008163
1733515650328775000,6.13077490234375,0.0917595773935318,0.09893626719713211,0.09124792367219925
1733515650338851800,6.140851806640625,0.08698133379220963,0.10380292683839798,0.06802543252706528
1733515650348929000,6.150928955078125,0.08385797590017319,0.1097114160656929,0.040752261877059937
1733515650359006000,6.161005859375,0.08333786576986313,0.11511284112930298,0.019031254574656487
1733515650369083000,6.171082763671875,0.0817176103591919,0.10975786298513412,0.005207280162721872
1733515650379159000,6.181158935546875,0.08107365667819977,0.10282618552446365,0.012435631826519966
1733515650389236000,6.191236083984375,0.06724704802036285,0.08644986152648926,0.020043378695845604
1733515650399313000,6.20131298828125,0.04870905354619026,0.06590303778648376,0.03084436058998108
1733515650409390000,6.21139013671875,0.021967502310872078,0.04532623291015625,0.039974115788936615
1733515650419467000,6.221467041015625,0.003156797494739294,0.034222714602947235,0.036598026752471924
1733515650429544000,6.2315439453125,-0.014094089157879353,0.02761639468371868,0.029652748256921768
1733515650439620900,6.241620849609375,-0.017070703208446503,0.022601129487156868,0.017067180946469307
1733515650449698000,6.251697998046875,-0.018612677231431007,0.019716300070285797,0.005331838969141245
1733515650459775000,6.26177490234375,-0.017813462764024734,0.013969200663268566,0.00017622532323002815
1733515650469852000,6.271851806640625,-0.01783786155283451,0.008820275776088238,0.00029413867741823196
1733515650479929000,6.28192919921875,-0.01500079594552517,0.005801316350698471,0.010290313512086868
1733515650490004700,6.292004638671875,-0.0018277829512953758,0.00588599406182766,0.016181442886590958
1733515650500081700,6.30208154296875,0.010436605662107468,0.0049051521345973015,0.01968003809452057
1733515650510158800,6.312158935546875,0.02214818261563778,0.011509373784065247,0.01278885267674923
1733515650520235800,6.32223583984375,0.037469882518053055,0.021360140293836594,0.006389808841049671
1733515650530312700,6.332312744140625,0.040455929934978485,0.025564517825841904,-0.0011647408828139305
1733515650540389600,6.3423896484375,0.04134435951709747,0.0233791284263134,0.003930951468646526
1733515650550466600,6.352466552734375,0.038273461163043976,0.014637911692261696,0.015860065817832947
1733515650560543500,6.36254345703125,0.033212389796972275,0.006781852804124355,0.03548116981983185
1733515650570620400,6.372620361328125,0.0249193012714386,0.007039726711809635,0.05888265371322632
1733515650580697600,6.382697509765625,0.015484785661101341,0.01431814581155777,0.07330846786499023
1733515650590774500,6.3927744140625,0.011632416397333145,0.025531968101859093,0.08211934566497803
1733515650600850400,6.402850341796875,0.008364184759557247,0.034939054399728775,0.07613575458526611
1733515650610927400,6.41292724609375,-0.00029412657022476196,0.04667219519615173,0.05433601140975952
1733515650621004300,6.42300439453125,-0.010424258187413216,0.05935762822628021,0.0334475077688694
1733515650631081200,6.433081298828125,-0.012906483374536037,0.05825156718492508,0.007936468347907066
1733515650641158400,6.443158447265625,-0.018873561173677444,0.05519931763410568,-0.006922638975083828
1733515650651235300,6.4532353515625,-0.02555825375020504,0.041421934962272644,-0.014016853645443916
1733515650661312300,6.463312255859375,-0.029968449845910072,0.03158927708864212,-0.013355324044823647
1733515650671389400,6.473389404296875,-0.032379306852817535,0.01908576674759388,-0.001876632682979107
1733515650681466400,6.48346630859375,-0.030928948894143105,0.005364629440009594,0.015441371127963066
1733515650691543300,6.493543212890625,-0.03178238123655319,-0.010733339935541153,0.028596889227628708
1733515650701620200,6.5036201171875,-0.023321250453591347,-0.029590118676424026,0.037005554884672165
1733515650711696400,6.5136962890625,-0.013939782977104187,-0.04786776006221771,0.042780183255672455
1733515650721773300,6.523773193359375,-0.015151254832744598,-0.05313096567988396,0.03438110649585724
1733515650731850500,6.5338505859375,-0.004932177718728781,-0.06193919852375984,0.027663158252835274
1733515650741927400,6.543927490234375,0.015104381367564201,-0.06405028700828552,0.01591435633599758
1733515650752004400,6.55400439453125,0.0306260846555233,-0.06943430006504059,0.01284758374094963
1733515650762081300,6.564081298828125,0.037520475685596466,-0.07810235768556595,0.013210838660597801
1733515650772158500,6.574158447265625,0.04512976482510567,-0.08506783097982407,0.019849766045808792
1733515650782235400,6.5842353515625,0.05230458453297615,-0.08803272992372513,0.0235651433467865
1733515650792312300,6.594312255859375,0.053999435156583786,-0.09290380030870438,0.025179516524076462
1733515650802389500,6.604389404296875,0.0560721755027771,-0.09393258392810822,0.016517849639058113
1733515650812466400,6.614466552734375,0.0560268796980381,-0.09127335995435715,0.013052359223365784
1733515650822542300,6.624542236328125,0.05759787932038307,-0.08836492151021957,0.012587370350956917
1733515650832619500,6.63461962890625,0.0608551949262619,-0.08515749126672745,0.02265755832195282
1733515650842696400,6.644696533203125,0.06156039983034134,-0.07542949914932251,0.03356959670782089
1733515650852773400,6.6547734375,0.06548938900232315,-0.057894229888916016,0.043443724513053894
1733515650862850300,6.664850341796875,0.07037362456321716,-0.039120275527238846,0.04755937680602074
1733515650872927500,6.674927490234375,0.07828612625598907,-0.023808013647794724,0.047680046409368515
1733515650883004400,6.68500439453125,0.08062784373760223,-0.012925539165735245,0.04248608276247978
1733515650893081300,6.695081298828125,0.08352919667959213,-0.0084055932238698,0.03652932494878769
1733515650903158500,6.705158447265625,0.08559980243444443,-0.0055264499969780445,0.026678558439016342
1733515650913235500,6.7152353515625,0.0832815170288086,-0.0039589134976267815,0.015556665137410164
1733515650923312400,6.7253125,0.07602494210004807,-0.007059631869196892,0.007029755972325802
1733515650933388500,6.735388427734375,0.06481404602527618,-0.00911559909582138,0.004040577448904514
1733515650943465500,6.745465576171875,0.05325353518128395,-0.0042936792597174644,0.006404665764421225
1733515650953542400,6.75554248046875,0.03725017234683037,0.0029431446455419064,0.018949134275317192
1733515650963619600,6.76561962890625,0.024230780079960823,0.0019117024494335055,0.0375976525247097
1733515650973696500,6.775696533203125,0.014800779521465302,0.0000538660679012537,0.03968945890665054
1733515650983773400,6.7857734375,0.018573680892586708,0.005698435939848423,0.03293222188949585
1733515650993850400,6.795850341796875,0.016161983832716942,0.0006380120757967234,0.02761123701930046
1733515651003927600,6.805927490234375,0.01524559035897255,-0.008100352250039577,0.01894610933959484
1733515651014004500,6.81600439453125,0.011937476694583893,-0.006994660943746567,0.014365076087415218
1733515651024081400,6.826081298828125,0.003010560292750597,-0.008959807455539703,0.007226206362247467
1733515651034158600,6.83615869140625,0.0009275400079786777,-0.00984332337975502,0.006128241773694754
1733515651044234500,6.846234375,-0.0027886347379535437,-0.010452121496200562,0.010227911174297333
1733515651054311400,6.8563115234375,-0.010968977585434914,-0.007175622507929802,0.011828030459582806
1733515651064388600,6.866388671875,-0.011248343624174595,-0.005131114274263382,0.016736235469579697
1733515651074465500,6.876465576171875,0.00020064972341060638,0.00490974448621273,0.021872542798519135
1733515651084542500,6.88654248046875,0.01153559610247612,0.00933458749204874,0.026082467287778854
1733515651094619400,6.896619384765625,0.019234037026762962,0.013556144200265408,0.03158900886774063
1733515651104696600,6.906696533203125,0.019380509853363037,0.016749273985624313,0.03368012234568596
1733515651114773500,6.9167734375,0.020988496020436287,0.023047393187880516,0.027989009395241737
1733515651124850400,6.926850341796875,0.02124575711786747,0.031111977994441986,0.02259957045316696
1733515651134927600,6.936927734375,0.017853401601314545,0.038959309458732605,0.02212144434452057
1733515651145004500,6.947004638671875,0.011469271034002304,0.03982004150748253,0.016243048012256622
1733515651155081500,6.95708154296875,0.005847720429301262,0.031128153204917908,0.015999529510736465
1733515651165157400,6.967157470703125,-0.0030357856303453445,0.024093147367239,0.015104974620044231
1733515651175234300,6.977234375,-0.010413384065032005,0.018122391775250435,0.010729219764471054
1733515651185311200,6.987311279296875,-0.015526652336120605,0.013788629323244095,0.0045866393484175205
1733515651195388400,6.997388427734375,-0.01969200186431408,0.014591068960726261,-0.0025102198123931885
1733515651205465300,7.00746533203125,-0.025863343849778175,0.010470359586179256,-0.004506791941821575
1733515651215542300,7.017542236328125,-0.028606615960597992,0.006305544171482325,-0.0017680907621979713
1733515651225619200,7.027619140625,-0.029877476394176483,-0.0058832112699747086,-0.0030269669368863106
1733515651235696400,7.0376962890625,-0.03219299018383026,-0.018297946080565453,-0.0057702320627868176
1733515651245773300,7.047773193359375,-0.024321485310792923,-0.022879382595419884,-0.005338533315807581
1733515651255850200,7.057850341796875,-0.02018420584499836,-0.024124031886458397,-0.011627048254013062
1733515651265926400,7.067926513671875,-0.016308508813381195,-0.02047816291451454,-0.019067654386162758
1733515651276003300,7.07800341796875,-0.010310269892215729,-0.011044714599847794,-0.030554398894309998
1733515651286080300,7.088080322265625,-0.006775722373276949,-0.0014442846877500415,-0.036864228546619415
1733515651296157400,7.098157470703125,-0.0063258023001253605,0.005480509717017412,-0.0445127859711647
1733515651306234400,7.108234375,-0.007085868623107672,0.010186049155890942,-0.050897981971502304
1733515651316311300,7.118311279296875,-0.005204887595027685,0.012060635723173618,-0.048641324043273926
1733515651326388500,7.128388427734375,-0.00017870357260107994,0.0039489129558205605,-0.03951839730143547
1733515651336465400,7.13846533203125,0.002598927356302738,-0.0007316012633964419,-0.03227278217673302
1733515651346542300,7.148542236328125,0.004593634512275457,-0.005170824471861124,-0.02440900355577469
1733515651356619300,7.158619384765625,0.002492452971637249,-0.005328556057065725,-0.021731965243816376
1733515651366696400,7.168696533203125,-0.007463774643838406,-0.0023636585101485252,-0.022770598530769348
1733515651376773400,7.1787734375,-0.01226875837892294,0.0015874578384682536,-0.026014510542154312
1733515651386849300,7.188849365234375,-0.019243843853473663,0.0013032985152676702,-0.028678204864263535
1733515651396926500,7.198926513671875,-0.024611610919237137,0.007336894981563091,-0.029368950054049492
1733515651407003400,7.20900341796875,-0.023269644007086754,0.005704909563064575,-0.022827425971627235
1733515651417080300,7.219080322265625,-0.02076658606529236,0.004154406953603029,-0.01139559131115675
1733515651427157500,7.229157470703125,-0.01018451526761055,-0.0010073320008814335,-0.004091338254511356
1733515651437234400,7.239234375,-0.0064682429656386375,-0.0023614349775016308,0.0035755925346165895
1733515651447311400,7.249311279296875,-0.0007994379848241806,-0.004339897073805332,0.0016764923930168152
1733515651457388300,7.25938818359375,0.0023405966348946095,0.0002068031462840736,0.004945832304656506
1733515651467465500,7.269465576171875,0.006736410316079855,0.008701222017407417,0.006767434533685446
1733515651477542400,7.27954248046875,0.008199594914913177,0.016548853367567062,0.005948318168520927
1733515651487619300,7.289619384765625,0.016742218285799026,0.019834395498037338,0.009014415554702282
1733515651497695500,7.299695556640625,0.022593311965465546,0.024534674361348152,0.015705585479736328
1733515651507772400,7.3097724609375,0.024680431932210922,0.025112580507993698,0.025687910616397858
1733515651517849300,7.319849365234375,0.02506195195019245,0.0222899429500103,0.03628604859113693
1733515651527926500,7.329926513671875,0.027685167267918587,0.0210901889950037,0.041405707597732544
1733515651538003500,7.34000341796875,0.02666064351797104,0.022270407527685165,0.04173581302165985
1733515651548080400,7.350080322265625,0.024877656251192093,0.021141760051250458,0.03962872177362442
1733515651558157600,7.360157470703125,0.02693217433989048,0.02267969399690628,0.03759349510073662
1733515651568234500,7.370234375,0.02649940922856331,0.021214155480265617,0.03265279904007912
1733515651578311400,7.3803115234375,0.024022892117500305,0.021408293396234512,0.026319224387407303
1733515651588388400,7.390388427734375,0.01917540654540062,0.020340099930763245,0.023849140852689743
1733515651598465500,7.400465576171875,0.013300307095050812,0.015241241082549095,0.022564364597201347
1733515651608541400,7.41054150390625,0.006375821772962809,0.01354906801134348,0.02341790683567524
1733515651618618400,7.420618408203125,0.0026341271586716175,0.008685612119734287,0.023102637380361557
1733515651628695600,7.430695556640625,0.0025696787051856518,-0.000026653811801224947,0.024247530847787857
1733515651638772500,7.4407724609375,0.0023587029427289963,-0.007403272204101086,0.022281821817159653
1733515651648849400,7.450849365234375,0.0025648316368460655,-0.01173463650047779,0.017439929768443108
1733515651658926600,7.460926513671875,0.004467309918254614,-0.01537349820137024,0.01614353433251381
1733515651669003500,7.47100341796875,0.007909178733825684,-0.0176603551954031,0.009756742045283318
1733515651679080400,7.48108056640625,0.007159905042499304,-0.015432149171829224,0.004747721832245588
1733515651689157400,7.491157470703125,0.004557464737445116,-0.015475026331841946,0.006105401553213596
1733515651699234600,7.501234619140625,0.0012533306144177914,-0.01058695837855339,0.004579315893352032
1733515651709311500,7.5113115234375,-0.0036881647538393736,-0.0054625035263597965,0.0007888386026024818
1733515651719387600,7.5213876953125,-0.00797111727297306,-0.0017919798847287893,0.0007853698916733265
1733515651729464600,7.531464599609375,-0.005287449806928635,-0.00005053885979577899,0.0013904399238526821
1733515651739541500,7.54154150390625,-0.003026554360985756,-0.0005723515059798956,0.007851110771298409
1733515651749618400,7.551618408203125,-0.0002384907566010952,-0.00018539425218477845,0.006501687224954367
1733515651759695600,7.561695556640625,0.0025108419358730316,0.00019938504556193948,0.0028744193259626627
1733515651769772500,7.5717724609375,0.0021302765235304832,0.005295077338814735,0.0007225852459669113
1733515651779849500,7.581849365234375,0.005172609351575375,0.013589642010629177,-0.0061039067804813385
1733515651789926700,7.5919267578125,0.006643206812441349,0.016066912561655045,-0.00842937920242548
1733515651800003600,7.602003662109375,0.005633236840367317,0.023042237386107445,-0.006301978603005409
1733515651810080500,7.61208056640625,0.005254002287983894,0.024022813886404037,0.0036965934559702873
1733515651820157400,7.622157470703125,0.010275640524923801,0.021957330405712128,0.010504345409572124
1733515651830233600,7.632233642578125,0.02173362299799919,0.014741496182978153,0.022571394219994545
1733515651840310500,7.642310546875,0.031330328434705734,0.011861737817525864,0.02610645443201065
1733515651850387500,7.652387451171875,0.03510163351893425,0.010954400524497032,0.022696809843182564
1733515651860464600,7.662464599609375,0.03625749424099922,0.013979494571685791,0.013204286806285381
1733515651870541600,7.67254150390625,0.03226381540298462,0.01818861998617649,0.0054656732827425
1733515651880618500,7.682618408203125,0.031007179990410805,0.018032241612672806,0.0006937352009117603
1733515651890695700,7.69269580078125,0.024570584297180176,0.013276368379592896,0.0009320881217718124
1733515651900772600,7.702772705078125,0.021635623648762703,0.01092314813286066,0.0025410838425159454
1733515651910849500,7.712849609375,0.014666130766272545,0.00565701350569725,0.0031402951572090387
1733515651920926500,7.722926513671875,0.017041189596056938,0.008360050618648529,0.004513183142989874
1733515651931003600,7.733003662109375,0.01530427671968937,0.009083365090191364,0.001511534210294485
1733515651941079600,7.74307958984375,0.018532514572143555,0.015116747468709946,-0.004769844468683004
1733515651951156700,7.75315673828125,0.017092544585466385,0.016690408810973167,-0.005305938888341188
1733515651961233700,7.763233642578125,0.016153018921613693,0.014890466816723347,-0.003989566583186388
1733515651971310600,7.773310546875,0.015359129756689072,0.010986804962158203,0.000016093719750642776
1733515651981387500,7.783387451171875,0.011459950357675552,0.009126845747232437,0.009947868064045906
1733515651991464700,7.793464599609375,0.0075419084168970585,0.0006835600361227989,0.021779228001832962
1733515652001541600,7.803541748046875,0.002003377303481102,-0.003343841526657343,0.03018849715590477
1733515652011618600,7.81361865234375,-0.0069813295267522335,-0.0050775595009326935,0.03548312932252884
1733515652021695500,7.823695556640625,-0.012987339869141579,-0.004118302837014198,0.04029860347509384
1733515652031772700,7.833772705078125,-0.01582254096865654,-0.002077256329357624,0.03739362582564354
1733515652041848300,7.843848388671875,-0.015970710664987564,0.003994105849415064,0.04438553377985954
1733515652051925500,7.853925537109375,-0.01593662239611149,0.010734300129115582,0.048493459820747375
1733515652062002400,7.86400244140625,-0.010268619284033775,0.008382636122405529,0.05621118098497391
1733515652072079400,7.874079345703125,-0.014805847778916359,0.004814266227185726,0.06107544153928757
1733515652082156500,7.884156494140625,-0.019446149468421936,0.005326203070580959,0.056588735431432724
1733515652092233500,7.8942333984375,-0.02230478636920452,0.004902760498225689,0.05213060602545738
1733515652102310400,7.904310302734375,-0.028265099972486496,0.007402084302157164,0.045666761696338654
1733515652112387300,7.91438720703125,-0.030597761273384094,0.011077780276536942,0.03907517343759537
1733515652122464500,7.924464599609375,-0.02721031941473484,-0.0023693442344665527,0.04001942276954651
1733515652132541400,7.93454150390625,-0.06372039020061493,0.011969913728535175,0.03797971457242966
1733515652142618400,7.944618408203125,-0.07154613733291626,0.008928577415645123,0.03162376582622528
1733515652152695300,7.9546953125,-0.0627979189157486,0.00489708362147212,0.02492964267730713
1733515652162771500,7.964771484375,-0.06516552716493607,0.0021080132573843002,0.02556893415749073
1733515652172848400,7.974848388671875,-0.06398708373308182,-0.004980788566172123,0.020735830068588257
1733515652182925600,7.984925537109375,-0.06057014316320419,-0.015142755582928658,0.020090602338314056
1733515652193002500,7.99500244140625,-0.05976586788892746,-0.028969356790184975,0.01970098167657852
1733515652203079400,8.005079345703125,-0.05049673095345497,-0.036515235900878906,0.021887149661779404
1733515652213156400,8.01515625,-0.04253973811864853,-0.038019657135009766,0.026641424745321274
1733515652223233500,8.025233642578126,-0.03318261355161667,-0.03816227987408638,0.024766884744167328
1733515652233310500,8.035310546875,-0.023646367713809013,-0.0338737927377224,0.026605265215039253
1733515652243387400,8.045387451171875,-0.01401104312390089,-0.03487228974699974,0.026990871876478195
1733515652253464600,8.055464599609374,-0.004863617476075888,-0.029170460999011993,0.02641323208808899
1733515652263541500,8.06554150390625,0.0015263711102306843,-0.03011508472263813,0.02077372372150421
1733515652273617400,8.075617431640625,0.0016837641596794128,-0.027198921889066696,0.018092453479766846
1733515652283694600,8.085694580078124,-0.001127751311287284,-0.02229730784893036,0.01371705997735262
1733515652293771500,8.095771484375,-0.003144296817481518,-0.01627403497695923,0.007614959497004747
1733515652303848400,8.105848388671875,-0.002316900296136737,-0.010974622331559658,0.007785884663462639
1733515652313925600,8.115925537109375,0.0002828775905072689,-0.00800333358347416,0.0052644032984972
1733515652324002600,8.12600244140625,0.005792689044028521,-0.005326682236045599,0.0036701124627143145
1733515652334079500,8.13607958984375,0.0083562470972538,0.0010766220511868596,0.0033068573102355003
1733515652344156400,8.146156494140625,0.009067626670002937,0.0062871091067790985,-0.0025669592432677746
1733515652354233600,8.156233642578124,0.0122144166380167,0.011461364105343819,-0.004339293111115694
1733515652364310500,8.166310546875,0.015202915295958519,0.01549851056188345,-0.01112004742026329
1733515652374386400,8.176386474609375,0.01972762681543827,0.022354817017912865,-0.013426078483462334
1733515652384463600,8.186463623046874,0.023152826353907585,0.024085555225610733,-0.014004869386553764
1733515652394540500,8.19654052734375,0.024309702217578888,0.023782221600413322,-0.012979019433259964
1733515652404617500,8.206617431640625,0.02934861369431019,0.021517891436815262,-0.016090665012598038
1733515652414694700,8.216694580078125,0.03556336462497711,0.01705523207783699,-0.016387339681386948
1733515652424771600,8.226771484375,0.03203713148832321,0.008515916764736176,-0.023820482194423676
1733515652434848500,8.2368486328125,0.018766066059470177,0.011074681766331196,-0.03389362245798111
1733515652444925400,8.246925537109375,0.01419602707028389,0.0036023641005158424,-0.04425559937953949
1733515652455002600,8.257002685546874,0.00944281741976738,0.0007985880365595222,-0.057525333017110825
1733515652465079600,8.26707958984375,0.004617494065314531,0.006376159377396107,-0.06917638331651688
1733515652475156500,8.277156494140625,0.0053834193386137486,0.008860357105731964,-0.07233542948961258
1733515652485232600,8.287232666015624,0.00826176069676876,0.004491347819566727,-0.06919808685779572
1733515652495309600,8.2973095703125,0.0051895384676754475,-0.0005153950769454241,-0.057991765439510345
1733515652505386500,8.307386474609375,0.001410080585628748,-0.00845726765692234,-0.038546621799468994
1733515652515463700,8.317463623046875,-0.0039332858286798,-0.014691195450723171,-0.01758008450269699
1733515652525540600,8.32754052734375,-0.00904979556798935,-0.01770341582596302,-0.0006992989219725132
1733515652535617500,8.337617431640625,-0.015517015941441059,-0.024178093299269676,0.010280115529894829
1733515652545694700,8.34769482421875,-0.015537422150373459,-0.03187628835439682,0.013427251018583775
1733515652555772000,8.35777197265625,-0.01920699141919613,-0.03534398972988129,0.012259189039468765
1733515652565848800,8.367848876953126,-0.025399211794137955,-0.029938602820038795,0.010607028380036354
1733515652575925800,8.37792578125,-0.02812868542969227,-0.02833511494100094,0.015962379053235054
1733515652586003000,8.3880029296875,-0.021127751097083092,-0.02336847595870495,0.021787475794553757
1733515652596078800,8.398078857421876,-0.017647000029683113,-0.019031252712011337,0.03047284297645092
1733515652606155800,8.40815576171875,-0.015712816268205643,-0.005185606423765421,0.038994040340185165
1733515652616233000,8.41823291015625,-0.02147909253835678,0.0029652644880115986,0.04638165235519409
1733515652626310000,8.428309814453126,-0.019916674122214317,0.009399350732564926,0.04659363254904747
1733515652636386800,8.43838671875,-0.021464502438902855,0.008979636244475842,0.04515472799539566
1733515652646463700,8.448463623046875,-0.024144597351551056,0.004058686550706625,0.0444069467484951
1733515652656541000,8.458541015625,-0.030292771756649017,-0.0006447223131544888,0.035996951162815094
1733515652666617900,8.468617919921876,-0.03348585218191147,-0.008578798733651638,0.030647508800029755
1733515652676694800,8.47869482421875,-0.040741901844739914,-0.022139081731438637,0.031124215573072433
1733515652686772000,8.48877197265625,-0.040533047169446945,-0.03431955352425575,0.03418124467134476
1733515652696847600,8.49884765625,-0.043550942093133926,-0.04922393336892128,0.041863664984703064
1733515652706924800,8.5089248046875,-0.043100710958242416,-0.06052563339471817,0.04848451167345047
1733515652717001700,8.519001708984375,-0.03931635990738869,-0.06415365636348724,0.055076900869607925
1733515652727078700,8.52907861328125,-0.035270534455776215,-0.06299528479576111,0.06237059459090233
1733515652737155600,8.539155517578125,-0.026493823155760765,-0.06030629202723503,0.0610017292201519
1733515652747232800,8.549232666015625,-0.017752788960933685,-0.052762698382139206,0.05861525237560272
1733515652757309700,8.559309814453124,-0.003537634387612343,-0.04399903491139412,0.05050060153007507
1733515652767386600,8.56938671875,0.0029852427542209625,-0.031935542821884155,0.043474793434143066
1733515652777463600,8.579463623046875,0.008138192817568779,-0.016471099108457565,0.03686695545911789
1733515652787540700,8.589540771484375,0.01881352625787258,-0.006614012643694878,0.03394762799143791
1733515652797617700,8.59961767578125,0.030261391773819923,0.007243745494633913,0.034030985087156296
1733515652807693800,8.60969384765625,0.037974804639816284,0.01366439089179039,0.03755081817507744
1733515652817770800,8.619770751953125,0.045560553669929504,0.0214898232370615,0.04229790344834328
1733515652827847700,8.62984765625,0.0470869205892086,0.028303470462560654,0.04330848902463913
1733515652837924600,8.639924560546875,0.04670076072216034,0.03104333020746708,0.04386429116129875
1733515652848001800,8.650001708984375,0.03999635949730873,0.03477533906698227,0.036009352654218674
1733515652858078700,8.66007861328125,0.035679906606674194,0.03185225650668144,0.027734912931919098
1733515652868155600,8.67015576171875,0.03762342780828476,0.028634870424866676,0.017811555415391922
1733515652878232800,8.68023291015625,0.036321140825748444,0.024187125265598297,0.013123858720064163
1733515652888309800,8.690309814453125,0.038960229605436325,0.016302447766065598,0.01313764974474907
1733515652898386700,8.70038671875,0.04145348072052002,0.003503028303384781,0.016668468713760376
1733515652908463600,8.710463623046875,0.042549967765808105,-0.005936245433986187,0.01962243765592575
1733515652918539800,8.720539794921875,0.04025539010763168,-0.013521459884941578,0.014938470907509327
1733515652928616700,8.73061669921875,0.03338538110256195,-0.019099947065114975,0.011914432048797607
1733515652938694000,8.74069384765625,0.026419617235660553,-0.015259401872754097,0.0025885743089020252
1733515652948770800,8.750770751953125,0.021740969270467758,-0.010246720165014267,-0.004418810363858938
1733515652958847700,8.76084765625,0.015260430984199047,-0.0050354464910924435,-0.00986364297568798
1733515652968924700,8.770924560546876,0.017370302230119705,0.0012001211289316416,-0.01428595557808876
1733515652979001900,8.781001953125,0.017499197274446487,0.0014587141340598464,-0.01806950755417347
1733515652989078800,8.791078857421875,0.013913324102759361,0.004086584318429232,-0.014914613217115402
1733515652999155700,8.80115576171875,0.01005307026207447,0.005918572656810284,-0.006944038439542055
1733515653009232600,8.811232666015625,0.003506578505039215,0.0010551222367212176,-0.0007302570156753063
1733515653019309800,8.821309814453125,-0.00126207759603858,0.00039385934360325336,0.00988403707742691
1733515653029385700,8.8313857421875,-0.01270999200642109,-0.008223433047533035,0.011784297414124012
1733515653039463000,8.841462890625,-0.019493861123919487,0.0017165492754429579,0.015400603413581848
1733515653049539800,8.851539794921875,-0.021741045638918877,-0.010323877446353436,0.013037479482591152
1733515653059616800,8.86161669921875,-0.025144830346107483,-0.017022794112563133,0.0028626061975955963
1733515653069693700,8.871693603515626,-0.019926313310861588,-0.0071678366512060165,-0.004567050840705633
1733515653079771000,8.88177099609375,-0.017580334097146988,-0.004567526280879974,-0.008877910673618317
1733515653089847800,8.891847900390625,-0.013308078050613403,-0.004622191656380892,-0.005777908023446798
1733515653099924700,8.9019248046875,-0.01305321417748928,-0.000867933442350477,0.0004456331953406334
1733515653110002000,8.912001953125,-0.00722132995724678,-0.00007109716534614563,0.011480538174510002
1733515653120078800,8.922078857421875,0.001458444632589817,0.009232656098902225,0.013561798259615898
1733515653130154800,8.93215478515625,0.006385555490851402,0.011016793549060822,0.01910385861992836
1733515653140232000,8.94223193359375,0.01817057654261589,0.012700444087386131,0.019918255507946014
1733515653150308900,8.952308837890625,0.016037708148360252,0.006611326243728399,0.013734521344304085
1733515653160385800,8.9623857421875,0.012247230857610703,0.010742422193288803,0.007066233083605766
1733515653170462700,8.972462646484376,0.012480746023356915,0.011111886240541935,0.0038577320519834757
1733515653180540000,8.982539794921875,0.014024847187101841,0.009922518394887447,-0.00019346876069903374
1733515653190616800,8.992616943359375,0.01869538053870201,0.013877793215215206,0.003616310190409422
1733515653200693800,9.00269384765625,0.03302904590964317,0.011751792393624783,0.006469088140875101
1733515653210771000,9.01277099609375,0.04072163999080658,0.008377852849662304,0.012699970975518227
1733515653220847900,9.022847900390625,0.03713303059339523,0.007108057849109173,0.013576949015259743
1733515653230923800,9.032923828125,0.033012062311172485,0.008867966011166573,0.016439970582723618
1733515653241000700,9.043000732421875,0.035539668053388596,0.009401131421327591,0.01806929148733616
1733515653251077600,9.05307763671875,0.03599032014608383,0.0029752019327133894,0.02332216314971447
1733515653261154600,9.063154541015624,0.02610919438302517,-0.00018091016681864858,0.018050700426101685
1733515653271231700,9.073231689453126,0.02199999988079071,-0.002289838157594204,0.013034889474511147
1733515653281308700,9.08330859375,0.015398556366562843,0.026394004002213478,0.0031910468824207783
1733515653291385600,9.093385498046874,-0.008076420053839684,0.021978382021188736,-0.010355079546570778
1733515653301462500,9.103462646484376,-0.0255102701485157,0.010701227001845837,-0.010463736951351166
1733515653311539700,9.113539794921875,-0.02971065416932106,0.007539335638284683,-0.013898875564336777
1733515653321616600,9.12361669921875,-0.029490677639842033,0.011371091939508915,-0.014934845268726349
1733515653331693600,9.133693603515624,-0.03156981244683266,0.012704086489975452,-0.019032631069421768
1733515653341769700,9.143769775390625,-0.027338849380612373,0.010718965902924538,-0.025870829820632935
1733515653351846700,9.1538466796875,-0.01774934120476246,0.007966764271259308,-0.02662435919046402
1733515653361923600,9.163923583984374,-0.007438112981617451,0.004748068284243345,-0.025159353390336037
1733515653372000800,9.174000732421876,-0.0030825133435428143,0.005073772743344307,-0.02420727349817753
1733515653382077700,9.18407763671875,-0.00836143083870411,0.0019573417957872152,-0.018593329936265945
1733515653392154600,9.194154541015624,-0.01734538935124874,-0.004566707648336887,-0.00760556710883975
1733515653402231800,9.204231689453126,-0.024105291813611984,-0.013523451052606106,0.0018659653142094612
1733515653412308700,9.214308837890625,-0.03175942972302437,-0.022941792383790016,0.005592022091150284
1733515653422385700,9.2243857421875,-0.03557201102375984,-0.027516569942235947,0.0149594247341156
1733515653432462600,9.234462646484374,-0.04050977900624275,-0.036497730761766434,0.011033415794372559
1733515653442538800,9.244538818359375,-0.033312320709228516,-0.037232764065265656,0.0021509751677513123
1733515653452615700,9.25461572265625,-0.028247680515050888,-0.029508225619792938,-0.012829005718231201
1733515653462692900,9.26469287109375,-0.02664285898208618,-0.01028819102793932,-0.02750116027891636
1733515653472769800,9.274769775390626,-0.020810537040233612,-0.0010472885333001614,-0.034756675362586975
1733515653482846700,9.2848466796875,-0.02006964571774006,0.008135557174682617,-0.02288030833005905
1733515653492923600,9.294923583984374,-0.006064987275749445,0.008850667625665665,-0.007996346801519394
1733515653503000800,9.305000732421876,0.020894458517432213,0.006092165596783161,0.0028520405758172274
1733515653513077800,9.315077880859375,0.04132867977023125,0.005721825174987316,-0.0029010120779275894
1733515653523154700,9.32515478515625,0.057143859565258026,0.009302444756031036,-0.013966713100671768
1733515653533231600,9.335231689453124,0.07548020780086517,0.012428002431988716,-0.018547911196947098
1733515653543308300,9.345308349609375,0.07142288237810135,0.002818251959979534,-0.018728740513324738
1733515653553384200,9.35538427734375,0.021765904501080513,-0.002599123865365982,-0.007993021048605442
1733515653563461000,9.365461181640624,-0.016258442774415016,0.0047759683802723885,0.025192895904183388
1733515653573538000,9.3755380859375,0.0023848088458180428,0.0005094318185001612,0.06893851608037949
1733515653583615000,9.385614990234375,0.050211720168590546,-0.03646722808480263,0.09467025101184845
1733515653593692200,9.395692138671874,0.06759145110845566,-0.04489811137318611,0.07828035205602646
1733515653603769000,9.40576904296875,0.05575662851333618,-0.04205625131726265,0.04164963215589523
1733515653613846000,9.415845947265625,0.04086438566446304,-0.029766518622636795,0.0037152867298573256
1733515653623923000,9.4259228515625,0.021971385926008224,-0.025371503084897995,-0.01550288125872612
1733515653634000100,9.436000244140626,0.002494893968105316,-0.021492429077625275,-0.02681015245616436
1733515653644077000,9.4460771484375,-0.017851389944553375,-0.01138333510607481,-0.025938233360648155
1733515653654153200,9.4561533203125,-0.03237291797995567,-0.003306805156171322,-0.014918909408152103
1733515653664230100,9.466230224609374,-0.03687845543026924,0.0011734308209270239,0.005239089019596577
1733515653674307000,9.47630712890625,-0.03968808427453041,0.001908737001940608,0.023503948003053665
1733515653684384000,9.486384033203125,-0.04916946962475777,0.0018863664008677006,0.035714540630578995
1733515653694461200,9.496461181640624,-0.05317816883325577,-0.006029920186847448,0.03998807817697525
1733515653704538000,9.5065380859375,-0.05090516060590744,-0.016543546691536903,0.03547988086938858
1733515653714615000,9.516614990234375,-0.04577537253499031,-0.03210945054888725,0.022335950285196304
1733515653724692200,9.526692138671875,-0.041541215032339096,-0.04412243515253067,0.012293171137571335
1733515653734769200,9.53676904296875,-0.03278309851884842,-0.05664274841547012,0.00766178872436285
1733515653744846000,9.54684619140625,-0.030039511620998383,-0.0574110709130764,0.00883224792778492
1733515653754922200,9.556922119140625,-0.024094803258776665,-0.06020055338740349,0.012898602522909641
1733515653764999200,9.566999267578124,-0.018193770200014114,-0.04839769005775452,0.016493603587150574
1733515653775076000,9.577076171875,-0.012132832780480385,-0.037154488265514374,0.016415029764175415
1733515653785153000,9.587153076171875,-0.00604218291118741,-0.019177353009581566,0.014947362244129181
1733515653795230200,9.597230224609374,0.006745618302375078,-0.007006234955042601,0.010903431102633476
1733515653805307100,9.60730712890625,0.01877405121922493,-0.0030660880729556084,0.009864265099167824
1733515653815384000,9.617384033203125,0.03103630617260933,0.004797690082341433,0.009443921037018299
1733515653825461200,9.627461181640625,0.04049265757203102,0.0020450465381145477,0.015769993886351585
1733515653835538200,9.6375380859375,0.048236072063446045,0.00796845369040966,0.02272040955722332
1733515653845615000,9.647614990234375,0.0494757741689682,0.007488018833100796,0.02843182347714901
1733515653855692000,9.657692138671875,0.04540012776851654,0.006502055563032627,0.03545178100466728
1733515653865768200,9.667768310546874,0.0386522114276886,0.008162269368767738,0.03400621935725212
1733515653875845000,9.67784521484375,0.03277856856584549,0.012266993522644043,0.027874775230884552
1733515653885922300,9.68792236328125,0.027751049026846886,0.013137847185134888,0.02287282794713974
1733515653895999200,9.697999267578124,0.020738188177347183,0.01174536906182766,0.0141875259578228
1733515653906076200,9.708076171875,0.019783711060881615,0.012032456696033478,0.007157845888286829
1733515653916153000,9.718153076171875,0.01667979173362255,0.013712017796933651,-0.001683269627392292
1733515653926230300,9.728230224609375,0.01666141487658024,0.012485366314649582,-0.01012628898024559
1733515653936307200,9.73830712890625,0.017368968576192856,0.010819992050528526,-0.013933619484305382
1733515653946384100,9.748384033203125,0.010318784043192863,0.007715544197708368,-0.013936549425125122
1733515653956461300,9.75846142578125,-0.00038755079731345177,-0.0004975209012627602,-0.014282701537013054
1733515653966537200,9.768537109375,-0.0044294302351772785,-0.008056105114519596,-0.014953019097447395
1733515653976614100,9.7786142578125,-0.0080098956823349,-0.016322508454322815,-0.02085619419813156
1733515653986691300,9.78869140625,-0.01011618971824646,-0.02110075205564499,-0.020943813025951385
1733515653996768300,9.798768310546874,-0.00968528725206852,-0.025630518794059753,-0.022569308057427406
1733515654006845200,9.80884521484375,-0.009849071502685547,-0.027503520250320435,-0.024257220327854156
1733515654016922000,9.818922119140625,-0.004113585688173771,-0.024170808494091034,-0.021619517356157303
1733515654026999300,9.828999267578125,0.0013677324168384075,-0.01927938126027584,-0.01834382861852646
1733515654037076200,9.839076171875,0.002823630813509226,-0.009197469800710678,-0.015322262421250343
1733515654047153200,9.849153076171875,0.005114748142659664,-0.0021648602560162544,-0.010137885808944702
1733515654057230300,9.859230224609375,0.0017099510878324509,0.017633898183703423,-0.01673784852027893
1733515654067306200,9.86930615234375,-0.0027593658305704594,0.06068442761898041,-0.07207513600587845
1733515654077383200,9.879383056640625,-0.010196615010499954,0.00846131332218647,-0.023938827216625214
1733515654087460400,9.88946044921875,-0.011175593361258507,0.011781742796301842,-0.0031933351419866085
1733515654097537300,9.899537353515624,-0.01703241653740406,0.015830812975764275,-0.0019299313426017761
1733515654107614200,9.9096142578125,-0.015428928658366203,-0.0005944990552961826,0.005872864276170731
1733515654117691400,9.91969140625,-0.015615075826644897,-0.008556011132895947,0.010732701048254967
1733515654127768300,9.929768310546875,-0.014507733285427094,-0.01611965522170067,0.007870068773627281
1733515654137845200,9.93984521484375,-0.015019068494439125,-0.01825498603284359,0.002309554722160101
1733515654147922200,9.949922119140625,-0.013446737080812454,-0.019714398309588432,-0.0031147715635597706
1733515654157999400,9.959999267578125,-0.009325654245913029,-0.02579684369266033,-0.0025454750284552574
1733515654168075000,9.970074951171876,-0.001957220258191228,-0.0355093888938427,0.007002756465226412
1733515654178152200,9.980152099609375,0.0016068997792899609,-0.03827498108148575,0.01656159944832325
1733515654188229000,9.99022900390625,0.004181110765784979,-0.04055464640259743,0.01673470437526703
1733515654198306000,10.00030615234375,0.0057534282095730305,-0.039158012717962265,0.01601104438304901
1733515654208383000,10.010383056640626,0.007603792939335108,-0.035796571522951126,0.015728481113910675
1733515654218460200,10.020460205078125,0.01274082250893116,-0.029550990089774132,0.011010555550456047
1733515654228537000,10.030537109375,0.014896385371685028,-0.02225233055651188,0.006675994023680687
1733515654238614000,10.040614013671876,0.020747236907482147,-0.018342141062021255,0.005178872961550951
1733515654248691200,10.050691162109375,0.02202635630965233,-0.018156785517930984,0.006221766583621502
1733515654258768100,10.06076806640625,0.024785924702882767,-0.017230447381734848,0.004665537271648645
1733515654268844000,10.070843994140626,0.029783613979816437,-0.019662711769342422,0.0049496968276798725
1733515654278921200,10.080921142578125,0.03168691694736481,-0.018131237477064133,0.002254039514809847
1733515654288998100,10.090998046875,0.03447045385837555,-0.01441266667097807,0.00020926445722579956
1733515654299075000,10.101074951171874,0.03051033429801464,-0.012473172508180141,-0.003925848752260208
1733515654309152000,10.111152099609376,0.027832260355353355,-0.009228909388184547,-0.008947239257395267
1733515654319229200,10.121229248046875,0.029102113097906113,-0.0072877113707363605,-0.00988638587296009
1733515654329306000,10.13130615234375,0.03178498148918152,-0.010510135442018509,-0.003974699880927801
1733515654339383000,10.141383056640626,0.03617056459188461,-0.007320331409573555,0.001278494019061327
1733515654349460200,10.151460205078125,0.03814396262168884,-0.004130929708480835,-0.00013085082173347473
1733515654359537200,10.161537109375,0.03300454095005989,-0.00620998814702034,0.0009506302885711193
1733515654369614000,10.171614013671874,0.023950595408678055,-0.007540237158536911,0.0029434736352413893
1733515654379690200,10.181690185546875,0.0124449972063303,-0.011533270590007305,0.00714088836684823
1733515654389767200,10.19176708984375,0.004582812078297138,-0.007686601020395756,0.0144595205783844
1733515654399844000,10.201843994140624,-0.0017077855300158262,-0.006108658388257027,0.022021718323230743
1733515654409921300,10.21192138671875,-0.01274978369474411,-0.0012156323064118624,0.02170959673821926
1733515654419998200,10.221998291015625,-0.016716450452804565,-0.0007146505522541702,0.021892856806516647
1733515654430075100,10.2320751953125,-0.02323986403644085,0.006432208698242903,0.015880770981311798
1733515654440152000,10.242152099609376,-0.028979092836380005,0.010728639550507069,0.008126309141516685
1733515654450229200,10.252229248046875,-0.030660878866910934,0.01605842448771,0.0020087624434381723
1733515654460306200,10.26230615234375,-0.033261988312006,0.018496280536055565,-0.0072342706844210625
1733515654470383000,10.272383056640624,-0.031159155070781708,0.016555368900299072,-0.00885001104325056
1733515654480459300,10.282459228515625,-0.02339518815279007,0.01683022640645504,-0.01223207451403141
1733515654490536200,10.2925361328125,-0.01931256428360939,0.010940912179648876,-0.009917255491018295
1733515654500613000,10.302613037109374,-0.017677221447229385,0.004874373786151409,-0.007282381411641836
1733515654510690300,10.312690185546876,-0.013598057441413403,-0.005379063077270985,-0.00197816314175725
1733515654520767200,10.322767333984375,-0.01133660227060318,-0.016195431351661682,0.0040769861079752445
1733515654530844200,10.33284423828125,-0.009183969348669052,-0.022909261286258698,0.0007136799395084381
1733515654540921000,10.342921142578126,-0.0081045962870121,-0.025325819849967957,-0.0020896634086966515
1733515654550998500,10.35299853515625,-0.004928244277834892,-0.024665888398885727,-0.009241582825779915
1733515654561075500,10.363075439453125,-0.0031197380740195513,-0.023865796625614166,-0.01227911189198494
1733515654571152400,10.37315234375,0.002767445519566536,-0.01595460996031761,-0.016775060445070267
1733515654581228500,10.383228515625,0.006693683564662933,-0.00700215483084321,-0.01389590185135603
1733515654591305500,10.393305419921875,0.01307994406670332,0.003852623514831066,-0.01275553647428751
1733515654601382400,10.40338232421875,0.017335407435894012,0.00746946269646287,-0.008164246566593647
1733515654611459600,10.41345947265625,0.01864008978009224,0.013382479548454285,-0.0008131233043968678
1733515654621536500,10.42353662109375,0.02102889120578766,0.01733246073126793,0.004999874625355005
1733515654631613400,10.433613525390625,0.020769499242305756,0.02388756535947323,0.00461957510560751
1733515654641690400,10.4436904296875,0.01683335192501545,0.02223765105009079,0.0061380863189697266
1733515654651767600,10.453767578125,0.018732983618974686,0.020889826118946075,0.004677075892686844
1733515654661844500,10.463844482421875,0.01696358248591423,0.015740159898996353,0.002534684957936406
1733515654671921400,10.47392138671875,0.01340453326702118,0.015753477811813354,-0.002869135234504938
1733515654681997300,10.483997314453125,0.011912738904356956,0.011995704844594002,-0.005609347950667143
1733515654692074200,10.49407421875,0.014739152044057846,0.008999383077025414,-0.006783802527934313
1733515654702151400,10.5041513671875,0.013415233232080936,0.00833481177687645,-0.004229401238262653
1733515654712228400,10.514228271484376,0.015193159691989422,0.0069547612220048904,0.0005294014699757099
1733515654722305300,10.52430517578125,0.01055335346609354,0.006679288577288389,0.005372283048927784
1733515654732382200,10.53438232421875,0.010586109943687916,0.005033721681684256,0.013665633276104927
1733515654742459400,10.54445947265625,0.0059000663459300995,0.0022195791825652122,0.015698041766881943
1733515654752536300,10.554536376953125,0.0011183610185980797,-0.0013021850027143955,0.014807214960455894
1733515654762613200,10.56461328125,-0.004639129154384136,-0.001557141076773405,0.008962784893810749
1733515654772690200,10.574690185546874,-0.003370399121195078,-0.00037416492705233395,0.005304933525621891
1733515654782766300,10.584766357421875,-0.006200326606631279,0.0003223232924938202,-0.003325067926198244
1733515654792843300,10.59484326171875,-0.006681560073047876,0.0027066513430327177,-0.010536640882492065
1733515654802920400,10.60492041015625,-0.005273232702165842,0.002179713686928153,-0.007421199232339859
1733515654812997400,10.614997314453126,-0.00663091242313385,0.000046788016334176064,-0.003287973813712597
1733515654823074300,10.62507421875,-0.006125386338680983,-0.000733496795874089,0.0008731959387660027
1733515654833151200,10.635151123046874,-0.010590175166726112,-0.004857135470956564,0.005982737056910992
1733515654843228400,10.645228515625,-0.015134697780013084,-0.0007796012214384973,0.004431776702404022
1733515654853305300,10.655305419921875,-0.01020571868866682,-0.0022587208077311516,0.0064549800008535385
1733515654863382300,10.66538232421875,-0.013909581117331982,-0.002947473432868719,0.00738082779571414
1733515654873459500,10.67545947265625,-0.012747378088533878,-0.0034670564346015453,0.005518745630979538
1733515654883535400,10.685535400390625,-0.00904090702533722,-0.0074412524700164795,0.002415080089122057
1733515654893612300,10.6956123046875,-0.006780149415135384,-0.0002584407338872552,-0.0005290443077683449
1733515654903689500,10.705689453125,-0.0008814034517854452,0.0009738446678966284,-0.0022938852198421955
1733515654913766400,10.715766357421876,-0.00032320478931069374,0.0053685931488871574,-0.006051072385162115
1733515654923843300,10.72584326171875,-0.002341620158404112,0.008016656152904034,-0.007415921427309513
1733515654933920300,10.735920166015624,-0.002534699160605669,0.008763672783970833,-0.010416505858302116
1733515654943997400,10.74599755859375,-0.005028537940233946,0.007802519015967846,-0.016738466918468475
1733515654954074400,10.756074462890625,-0.006092204246670008,0.002880465006455779,-0.012994064018130302
1733515654964151300,10.7661513671875,-0.004353158175945282,0.0018339334055781364,-0.009399738162755966
1733515654974228500,10.776228515625,-0.002786687109619379,-0.00383194163441658,-0.012427220121026039
1733515654984304400,10.786304443359375,-0.002932792529463768,-0.0050981552340090275,-0.012946311384439468
1733515654994381300,10.79638134765625,-0.003729343879967928,-0.0055913724936544895,-0.011883443221449852
1733515655004458500,10.80645849609375,-0.0019243531860411167,-0.005850526038557291,-0.013600753620266914
1733515655014535400,10.816535400390626,-0.001023672055453062,-0.010835431516170502,-0.00648958096280694
1733515655024612400,10.8266123046875,-0.0014851950109004974,-0.012092883698642254,-0.0029115010984241962
1733515655034689500,10.836689453125,-0.0020646988414227962,-0.012394885532557964,-0.00027523795142769814
1733515655044766500,10.846766357421876,-0.002034294418990612,-0.010185697115957737,-0.00006477488204836845
1733515655054843400,10.856843505859375,0.0009178193286061287,-0.009751069359481335,0.0029363413341343403
1733515655064920300,10.86692041015625,0.0046785743907094,-0.0039954110980033875,0.0015237382613122463
1733515655074997500,10.87699755859375,0.006560363806784153,-0.00042064994340762496,0.0007343771867454052
1733515655085073400,10.887073486328125,0.006445208564400673,0.0026068848092108965,0.00009397463873028755
1733515655095150600,10.897150634765625,0.010244207456707954,0.00554062332957983,0.0023067952133715153
1733515655105227500,10.9072275390625,0.00736815482378006,0.011355599388480186,-0.0014343513175845146
1733515655115304400,10.917304443359376,0.005879447795450687,0.011024036444723606,-0.005772640462964773
1733515655125381400,10.92738134765625,0.008617338724434376,0.014777994714677334,-0.004826889373362064
1733515655135458600,10.93745849609375,0.009862898848950863,0.011516953818500042,-0.0056716445833444595
1733515655145535500,10.947535400390626,0.00948323868215084,0.009419305250048637,-0.004940282087773085
1733515655155612400,10.9576123046875,0.009159399196505547,0.009528229013085365,-0.005051069427281618
1733515655165689300,10.967689453125,0.008685093373060226,0.01045332569628954,-0.005313147325068712
1733515655175766500,10.9777666015625,0.00748560531064868,0.011320451274514198,-0.008609075099229813
1733515655185842200,10.98784228515625,0.010090977884829044,0.011400704272091389,-0.014579493552446365
1733515655195919400,10.99791943359375,0.0070648277178406715,0.017344612628221512,-0.022824639454483986
1733515655205996300,11.007996337890624,0.010249056853353977,0.02495419979095459,-0.036283351480960846
1733515655216073200,11.0180732421875,0.009930809959769249,0.028895411640405655,-0.042480528354644775
1733515655226150400,11.028150390625,0.010309828445315361,0.03022674098610878,-0.038006626069545746
1733515655236227300,11.038227294921874,0.0066775428131222725,0.019243597984313965,-0.025968341156840324
1733515655246304300,11.04830419921875,0.0058438740670681,0.016534335911273956,-0.011471260339021683
1733515655256381200,11.058381103515625,0.0009260806255042553,0.006816993933171034,0.002481838921085
1733515655266458400,11.068458251953125,-0.005229124799370766,-0.0010267626494169235,0.01800628937780857
1733515655276535300,11.078535400390624,-0.008407874032855034,-0.008703324012458324,0.030841128900647163
1733515655286611200,11.088611083984375,-0.007826399989426136,-0.015065493062138557,0.034664951264858246
1733515655296688400,11.0986884765625,-0.011888519860804081,-0.018835464492440224,0.04131140559911728
1733515655306765300,11.108765380859374,-0.008517224341630936,-0.03128014877438545,0.036654599010944366
1733515655316842200,11.11884228515625,-0.008585667237639427,-0.036648817360401154,0.03079031966626644
1733515655326919400,11.12891943359375,-0.009673254564404488,-0.04170019552111626,0.028560534119606018
1733515655336996400,11.138996337890624,-0.0035602340940386057,-0.0395939014852047,0.023970576003193855
1733515655347073300,11.1490732421875,-0.006431172136217356,-0.03678685799241066,0.01898840069770813
1733515655357150200,11.159150146484375,-0.004598384723067284,-0.033179871737957,0.017288770526647568
1733515655367227400,11.169227294921875,0.0010728719644248486,-0.024808738380670547,0.009006489999592304
1733515655377304300,11.17930419921875,-0.0012462087906897068,-0.014665824361145496,0.003968055360019207
1733515655387380500,11.18938037109375,-0.002022203989326954,-0.001618184382095933,-0.0035004611127078533
1733515655397457400,11.19945751953125,-0.0021311272867023945,0.005946258082985878,-0.006956710945814848
1733515655407534300,11.209534423828124,-0.0022902260534465313,0.018705694004893303,-0.011751232668757439
1733515655417611300,11.219611328125,-0.003080385969951749,0.023952919989824295,-0.011810887604951859
1733515655427688400,11.2296884765625,-0.0009435715619474649,0.02716217003762722,-0.010535292327404022
1733515655437765400,11.239765380859374,-0.0025811493396759033,0.025578388944268227,-0.010390682145953178
1733515655447842300,11.24984228515625,-0.0019665448926389217,0.01970539055764675,-0.007031932473182678
1733515655457919200,11.259919189453125,0.0046772425994277,0.010876213200390339,-0.006657226011157036
1733515655467996400,11.269996337890625,0.00695020193234086,0.005738783627748489,-0.004851268604397774
1733515655478073300,11.2800732421875,0.007189087104052305,0.0008441598620265722,-0.007123211398720741
1733515655488149500,11.2901494140625,0.009837651625275612,-0.002767781261354685,-0.0075187841430306435
1733515655498226400,11.300226318359375,0.01091490127146244,-0.00690686609596014,-0.005701709538698196
1733515655508303400,11.310303466796874,0.008445514366030693,-0.0077532515861094,-0.0023204954341053963
1733515655518380300,11.32038037109375,0.004223337862640619,-0.011132802814245224,0.0021339075174182653
1733515655528457500,11.33045751953125,0.007778715807944536,-0.013869887217879295,0.0054586054757237434
1733515655538534400,11.340534423828124,0.008226126432418823,-0.01528668962419033,0.005662070587277412
1733515655548611600,11.350611572265626,0.006522283423691988,-0.014512854628264904,0.0077208890579640865
1733515655558688800,11.360688720703125,0.009966548532247543,-0.01271708495914936,0.004027617163956165
1733515655568765700,11.370765625,0.011444231495261192,-0.005216947756707668,-0.0023903916589915752
1733515655578842600,11.380842529296874,0.009733416140079498,0.0011504041031002998,-0.009220601990818977
1733515655588918500,11.39091845703125,0.011540371924638748,0.009427333250641823,-0.012341704219579697
1733515655598995500,11.400995361328125,0.007038033101707697,0.011465449817478657,-0.014376359060406685
1733515655609072400,11.411072265625,0.004257218446582556,0.01130976714193821,-0.01319151185452938
1733515655619149600,11.421149658203126,0.0007407800294458866,0.014232320711016655,-0.01252279244363308
1733515655629226500,11.4312265625,-0.00020182784646749496,0.015816234052181244,-0.009967477060854435
1733515655639303400,11.441303466796874,-0.0032498156651854515,0.01368890143930912,-0.007773297838866711
1733515655649380400,11.45138037109375,-0.004730691201984882,0.010501489974558353,-0.006522524170577526
1733515655659457500,11.46145751953125,-0.009960873052477837,0.0016403545159846544,0.0003654756583273411
1733515655669534500,11.471534423828125,-0.010035760700702667,-0.0027426048181951046,0.004924778826534748
1733515655679611400,11.481611328125,-0.008447717875242233,-0.008850565180182457,0.005096819251775742
1733515655689687600,11.4916875,-0.005994576495140791,-0.013443595729768276,0.007926389575004578
1733515655699764500,11.501764404296875,-0.0036691040731966496,-0.01590355858206749,0.0037870388478040695
1733515655709841400,11.51184130859375,-0.00448546651750803,-0.01451936922967434,-0.00000340072438120842
1733515655719918600,11.521918701171876,-0.00439651682972908,-0.01386156864464283,-0.0013986309058964252
1733515655729995500,11.53199560546875,-0.00345194642432034,-0.007423837669193745,-0.005872770678251982
1733515655740072400,11.542072509765624,-0.001369088189676404,-0.0015734056942164898,-0.00673590088263154
1733515655750149400,11.5521494140625,-0.004607973154634237,0.004778870847076178,-0.006417745724320412
1733515655760226600,11.5622265625,-0.004425280727446079,0.007149883080273867,-0.004079489968717098
1733515655770303500,11.572303466796875,-0.0035593248903751373,0.007982886396348476,-0.00046125566586852074
1733515655780380400,11.58238037109375,-0.0035710427910089493,0.007180476561188698,0.00014514615759253502
1733515655790456600,11.59245654296875,-0.003017635550349951,0.004174124449491501,-0.005491844844073057
1733515655800533500,11.602533447265625,0.0008354256860911846,0.002556520514190197,-0.0049597457982599735
1733515655810610400,11.6126103515625,-0.0010187223087996244,-0.0031482563354074955,-0.004906101152300835
1733515655820687600,11.6226875,-0.0019532255828380585,-0.003292066976428032,-0.0016842088662087917
1733515655830764500,11.6327646484375,0.0017111808992922306,-0.008184592239558697,0.003608888713642955
1733515655840841500,11.642841552734374,0.0008131628856062889,-0.014038220047950745,0.012394923716783524
1733515655850918700,11.652918701171876,0.005802428349852562,-0.010829880833625793,0.01720949076116085
1733515655860995600,11.66299560546875,0.010078666731715202,-0.013147097080945969,0.021733136847615242
1733515655871072500,11.673072509765625,0.00811341404914856,-0.011067203246057034,0.018527816981077194
1733515655881149400,11.6831494140625,0.0066460128873586655,-0.00463993102312088,0.010012893006205559
1733515655891225600,11.6932255859375,0.00608478020876646,0.0029207500629127026,0.0029622376896440983
1733515655901302500,11.703302490234375,0.00478755496442318,0.008308591321110725,-0.008935168385505676
1733515655911379500,11.71337939453125,0.002621016465127468,0.011676759459078312,-0.00887643825262785
1733515655921456600,11.72345654296875,0.004721451550722122,0.011899133212864399,-0.006425531581044197
1733515655931533600,11.733533447265625,0.006351736839860678,0.013692119158804417,-0.00721698347479105
1733515655941610500,11.743610595703124,0.00836881436407566,0.008124248124659061,-0.004209209233522415
1733515655951687700,11.753687744140626,0.00501589197665453,0.005535474978387356,-0.002819015644490719
1733515655961764600,11.7637646484375,0.004831334576010704,0.0008102282881736755,-0.0034802788868546486
1733515655971841500,11.773841552734375,0.0019078277982771397,-0.004762839525938034,-0.005396000575274229
1733515655981918500,11.78391845703125,-0.0004067255649715662,-0.007876341231167316,-0.011546038091182709
1733515655991994600,11.79399462890625,-0.008765481412410736,-0.01004607044160366,-0.011746395379304886
1733515656002071600,11.804071533203125,-0.00588394096121192,-0.014138815924525261,-0.004815783817321062
1733515656012148700,11.814148681640624,-0.01715625450015068,-0.016993535682559013,0.007923376746475697
1733515656022225700,11.8242255859375,-0.020982153713703156,-0.01963139697909355,0.020564336329698563
1733515656032302600,11.834302490234375,-0.025439484044909477,-0.020711751654744148,0.02404521033167839
1733515656042379500,11.844379638671874,-0.03268727660179138,-0.01892104186117649,0.020328503102064133
1733515656052456700,11.854456787109376,-0.025209389626979828,-0.020830441266298294,0.014397134073078632
1733515656062533600,11.86453369140625,-0.025510326027870178,-0.014031125232577324,0.00687397038564086
1733515656072610600,11.874610595703125,-0.01771136373281479,-0.0074754320085048676,0.0012785871513187885
1733515656082687700,11.884687744140624,-0.012795966118574142,-0.0017030303133651614,-0.0008229129016399384
1733515656092763600,11.894763671875,-0.00886455550789833,0.0017044129781425,-0.0010218224488198757
1733515656102840600,11.904840576171875,-0.0028282341081649065,0.005545490421354771,0.0020645151380449533
1733515656112917800,11.914917724609374,-0.005675153341144323,0.008574303239583969,0.00018166005611419678
1733515656122994700,11.92499462890625,-0.0010234098881483078,0.008244071155786514,0.0017156410031020641
1733515656133071600,11.935071533203125,-0.0020460092928260565,0.0101328045129776,-0.000833386555314064
1733515656143148500,11.9451484375,-0.0020838261116296053,0.011541349813342094,-0.0059860702604055405
1733515656153225700,11.955225830078126,-0.001083172159269452,0.009260118938982487,-0.008108141832053661
1733515656163302700,11.965302734375,0.0020162146538496017,0.006680049002170563,-0.00674726627767086
1733515656173379600,11.975379638671875,0.0022963806986808777,0.0023831292055547237,-0.005106903612613678
1733515656183455500,11.98545556640625,0.006030664779245853,-0.0006587332463823259,0.0012114462442696095
1733515656193532400,11.995532470703125,0.009167177602648735,-0.0026851845905184746,0.004304355476051569
1733515656203609300,12.005609375,0.01383410207927227,-0.0040750885382294655,0.005418089218437672
1733515656213686500,12.0156865234375,0.014309790916740894,-0.00953854899853468,0.008255206048488617
1733515656223763500,12.025763427734375,0.013315367512404919,-0.013729299418628216,0.00755106657743454
1733515656233840400,12.03584033203125,0.012589242309331894,-0.008176734670996666,0.005364072974771261
1733515656243917600,12.04591748046875,0.008455751463770866,-0.005239800550043583,0.005478588864207268
1733515656253994500,12.055994384765626,0.005105374380946159,-0.003912355285137892,0.003842348698526621
1733515656264071400,12.066071533203125,0.002802538685500622,-0.00004651059862226248,0.0023014438338577747
1733515656274148400,12.0761484375,-0.0009544910863041878,0.007327037863433361,0.001516070682555437
1733515656284224500,12.086224609375,-0.005323673132807016,0.00975291058421135,-0.00041472120210528374
1733515656294301400,12.096301513671875,-0.00844157487154007,0.010550852864980698,-0.00526027474552393
1733515656304378600,12.106378662109375,-0.010816315189003944,0.011157254688441753,-0.004985169507563114
1733515656314455600,12.11645556640625,-0.009795545600354671,0.010165290907025337,-0.00938595924526453
1733515656324532500,12.126532470703125,-0.005474034231156111,0.009266207925975323,-0.007291116751730442
1733515656334609400,12.136609375,-0.006806093268096447,0.0064310249872505665,-0.0010474524460732937
1733515656344686600,12.1466865234375,-0.0039903330616652966,0.0028762375004589558,-0.0031777145341038704
1733515656354763500,12.156763427734376,-0.0008718234021216631,-0.0021825418807566166,-0.0010231249034404755
