time,seconds_elapsed,z,y,x
1733507093422428700,0.0224287109375,0.06000467910766601,-0.0362812736928463,0.02466287822201848
1733507093432445700,0.03244580078125,0.016734277179837227,-0.014815730207413435,0.05143124082330614
1733507093442463700,0.042463623046875,-0.01119885488450527,-0.02022358060032129,0.05569806795492768
1733507093452480800,0.052480712890625,-0.04628185870349407,-0.012701952923834322,0.05713065804131329
1733507093462498600,0.06249853515625,-0.028990532162785528,-0.030360797602683304,0.06266213481388985
1733507093472515600,0.072515625,-0.016771686580777167,-0.04312017980217933,0.039332185696065426
1733507093482533600,0.08253369140625,-0.003009118688106537,-0.01283127839192748,0.02941697741393
1733507093492550700,0.092550537109375,0.004143675675988197,0.0015421148754656314,0.05703099705912172
1733507093502567700,0.102567626953125,0.010033902758359909,-0.023954876083135603,0.048178559170290826
1733507093512585700,0.112585693359375,0.01563479150533676,-0.01832198476269841,0.04616426020581275
1733507093522602800,0.122602783203125,0.05364975712299347,-0.02011675922498107,0.07217723786253481
1733507093532620500,0.13262060546875,0.05759411083459854,-0.018205372645705938,0.07825326984059065
1733507093542637600,0.142637451171875,0.03553074758648872,-0.01989580995067954,0.08182016854193061
1733507093552655600,0.152655517578125,0.020527239722013473,-0.015333470471203326,0.1075395700795576
1733507093562672600,0.162672607421875,0.01197276186645031,-0.013407178583741188,0.08392883125897496
1733507093572690700,0.172690673828125,-0.000019289222359657286,-0.022839754448086023,0.08608739753235131
1733507093582707700,0.182707763671875,0.007008417457342147,-0.02464797291383147,0.07737670620176941
1733507093592724700,0.192724853515625,-0.004680266770720482,-0.005801379755139351,0.05218611431121826
1733507093602742800,0.20274267578125,-0.014184008175134658,-0.025024112749844788,0.04196903700567782
1733507093612759600,0.212759521484375,-0.0036760581642389296,-0.03852817583680153,0.013123612402006983
1733507093622777600,0.222777587890625,0.020561141991615295,-0.05374342675581574,0.017695669557899234
1733507093632794600,0.232794677734375,0.04708440725803375,-0.06251023218780756,0.02122439167331904
1733507093642812700,0.242812744140625,0.05097206234633922,-0.07313669401183724,0.027412213462777436
1733507093652829700,0.25282958984375,0.05742927566170692,-0.07266834584772586,0.04076678507644683
1733507093662847700,0.26284765625,0.02850420995056629,-0.07991597888842225,0.05968439764473587
1733507093672864800,0.27286474609375,0.01770925969183445,-0.05823197034671902,0.0332785116802901
1733507093682881500,0.282881591796875,-0.02245440839231014,-0.011498276222497224,-0.009925254752114414
1733507093692899600,0.292899658203125,-0.003407762616872787,-0.008355594282597302,-0.011182524804212153
1733507093702916600,0.30291650390625,-0.0011252046376466751,-0.10554024948850274,0.03658233899865299
1733507093712934700,0.3129345703125,-0.01888648677766323,-0.04783566401675343,-0.01205412000697106
1733507093722951700,0.32295166015625,-0.013230068451166152,-0.018263824834674595,0.01621240873020142
1733507093732969700,0.3329697265625,0.020030396115779874,-0.035383740331232545,0.03169281339142471
1733507093742986800,0.34298681640625,0.032170915764570235,-0.04269976243302226,0.03873889597803354
1733507093753004800,0.3530048828125,0.050321489483118056,-0.05323255462422967,0.07658296200819313
1733507093763021800,0.363021728515625,0.0754378105610609,-0.052751054717600346,0.07395612063594162
1733507093773039900,0.373039794921875,0.05917348898053169,-0.04782777297124266,0.10923442783132195
1733507093783056600,0.383056640625,0.06528641890287398,-0.03754486388787627,0.0764159714108333
1733507093793073700,0.39307373046875,0.04462766175568104,-0.023529051886498925,0.03972534973211586
1733507093803091700,0.403091796875,0.006553074905276298,-0.0159172617085278,0.03499923452567309
1733507093813108700,0.413108642578125,-0.014925181931257248,-0.010215981326997279,0.026950404637306927
1733507093823126800,0.423126708984375,-0.030028643038868902,-0.009913052857667207,0.04110317742396146
1733507093833143800,0.433143798828125,-0.035488662010431285,-0.019906915866583583,0.06306929084267467
1733507093843161600,0.44316162109375,-0.021986206358671188,-0.05518018156066536,0.06456957587040961
1733507093853178600,0.4531787109375,0.000360065484046936,-0.0567068066060543,0.06276150353513657
1733507093863196700,0.46319677734375,0.030538346126675605,-0.07763064443022012,0.03455675145518034
1733507093873213700,0.473213623046875,0.04948036248385906,-0.08580401401370763,0.017419738693349063
1733507093883230700,0.483230712890625,0.07840835080444812,-0.07743585251048207,0.011809095737338066
1733507093893248800,0.493248779296875,0.07009294240176678,-0.05977218552604317,0.020129618706554175
1733507093903265800,0.503265869140625,0.03998655795156956,-0.05974719721525907,0.057011232912726695
1733507093913283600,0.51328369140625,0.013235329148173332,-0.07045417692959308,0.05997278613205999
1733507093923300900,0.52330078125,0.0032750761479139324,-0.09102131027057767,0.08184216117803007
1733507093933318700,0.533318603515625,0.009344166928529738,-0.10441709067746996,0.06300484730433673
1733507093943335700,0.543335693359375,0.016059738919138908,-0.09431523724943398,0.06117343062609434
1733507093953353700,0.553353759765625,0.03055295917391777,-0.08183978655785322,0.039891171285696324
1733507093963370800,0.563370849609375,0.04544540787935257,-0.09290653949528932,0.0405593528708443
1733507093973388500,0.573388427734375,0.04317746294736862,-0.08212108771726488,0.04560516501832753
1733507093983405600,0.583405517578125,0.029367548781633376,-0.063073565158993,0.06061820789612829
1733507093993422800,0.5934228515625,0.012936638462543486,-0.03770239253714681,0.059966940913163125
1733507094003440600,0.603440673828125,-0.0014700725525617598,-0.0570294626891613,0.060278162286803126
1733507094013457700,0.613457763671875,0.005368833556771278,-0.044686552336066956,0.031122429624944922
1733507094023475200,0.62347509765625,0.040347792479395864,-0.05191007384881377,-0.003120287445001304
1733507094033492000,0.633491943359375,0.04053659304976463,-0.06614595834165811,-0.009023593204654753
1733507094043510000,0.643510009765625,0.05591711753308773,-0.07880392599329351,0.00815904879719019
1733507094053527000,0.653527099609375,0.032498248022794725,-0.06333601548746227,-0.005086107625253499
1733507094063545000,0.663545166015625,0.020311551144719123,-0.0731222270950675,0.007404942494258284
1733507094073562000,0.67356201171875,0.018423545441031454,-0.07177870353162288,0.016627127010934054
1733507094083580000,0.683579833984375,0.010308043524622917,-0.057065118524432176,0.025714652297273276
1733507094093597200,0.69359716796875,0.0025800796210765837,-0.0721190414018929,0.02928279310762882
1733507094103614200,0.7036142578125,0.04193769201934337,-0.07589797541871666,0.02405051847733557
1733507094113632000,0.713632080078125,0.03628419630229473,-0.020754180345684287,0.008910451686382293
1733507094123649000,0.72364892578125,0.039538229662179944,0.012032090838253497,-0.005342164745554327
1733507094133667000,0.7336669921875,0.0023117840737104413,0.045858664855360984,-0.0258288897940889
1733507094143684000,0.74368408203125,-0.016017653343081473,0.0512824434697628,-0.04371350605282932
1733507094153702100,0.7537021484375,-0.021065584382414817,0.05202741661816835,-0.023910562017373738
1733507094163719200,0.76371923828125,-0.04361526984274387,0.04569266063868999,0.003774732765741646
1733507094173737000,0.773737060546875,-0.05509703332185745,0.033712299987673756,0.028020700749941167
1733507094183754000,0.78375390625,-0.006354921984672546,0.004473492152243852,0.05647964678667485
1733507094193771000,0.79377099609375,0.016491700595617293,-0.03257876591309905,0.08267145160902291
1733507094203789000,0.8037890625,0.033844986456632614,-0.07237301616296171,0.07347034641299396
1733507094213806000,0.81380615234375,0.06402852779626846,-0.08669540989547968,0.08312080281171948
1733507094223824100,0.82382421875,0.07456336581408977,-0.13292743810787797,0.06551883941926062
1733507094233841200,0.833841064453125,0.06048515610098838,-0.13987258107066153,0.05947250845972448
1733507094243859000,0.84385888671875,0.03809679868221283,-0.1370247904241085,0.057707727276906366
1733507094253876000,0.8538759765625,0.0233189162671566,-0.09525894784033298,0.03654555065222084
1733507094263894000,0.86389404296875,0.026481764212250708,-0.05100859496444463,0.012779475139454006
1733507094273911000,0.8739111328125,0.014081716844439505,-0.010229133069515228,0.021596549453958867
1733507094283929000,0.88392919921875,0.014251812714338301,0.006898235081136226,0.02247201711423695
1733507094293946000,0.893946044921875,0.026314590951800346,0.030801527107506988,-0.006157682379521429
1733507094303963100,0.903963134765625,0.03232406049966812,0.03337181598693132,-0.002668232828564942
1733507094313981200,0.913981201171875,0.01600070220828056,0.04113309763818979,0.0157869498597458
1733507094323998000,0.923998046875,0.014200374788045882,0.05707447087466717,0.028622392970137297
1733507094334016000,0.93401611328125,0.006072013390064239,0.020916385170072316,0.052565724745951586
1733507094344033000,0.944032958984375,0.0034621231526136397,-0.024049714759737252,0.06925382469650357
1733507094354051000,0.954051025390625,-0.013610007679462433,-0.07549655501097441,0.11736929203532635
1733507094364068000,0.964068115234375,-0.017156886506080625,-0.08643938930779695,0.14098109030183403
1733507094374086100,0.974086181640625,0.014440028762817383,-0.08255641039460897,0.12925408335737884
1733507094384103200,0.984103271484375,0.03216390150189399,-0.0663861968383193,0.1132684691203758
1733507094394121200,0.994121337890625,0.054203883874416346,-0.05682824102863669,0.05211206269431859
1733507094404138000,1.004137939453125,0.05495440998077392,-0.035154461620002984,0.009143054865859448
1733507094414155000,1.014155029296875,0.039454058510065074,-0.008637479963898659,-0.01619260805118829
1733507094424173000,1.024173095703125,0.020729484295845032,-0.014658932210505007,-0.016225816201046107
1733507094434190000,1.034190185546875,-0.0012555530190467834,-0.04078691454902291,-0.013564305374212562
1733507094444208000,1.0442080078125,-0.026263153025507927,-0.07369286658987402,0.022280914988927543
1733507094454225200,1.05422509765625,-0.05378010550439358,-0.08733268488571047,0.06118208885658532
1733507094464243200,1.0642431640625,0.009018003714084625,-0.16059519723430274,0.11277805525492876
1733507094474260000,1.074260009765625,0.009487959313392639,-0.07905497814491391,0.004444814047031104
1733507094484278000,1.084278076171875,0.03812894738614559,-0.08230272789448499,0.01358447137940675
1733507094494295000,1.094294921875,0.07129647297263145,0.22824308457151055,-0.1801339008430019
1733507094504312000,1.10431201171875,0.04190378974974155,0.20129311832562088,-0.016633483686484395
1733507094514330000,1.114330078125,0.03893383402824402,-0.3061306263722479,0.1915901645546779
1733507094524347100,1.12434716796875,0.0512649078130722,-0.34936011176779863,-0.01871792527772486
1733507094534365200,1.134365234375,0.045052024647593496,-0.03310980404987931,-0.1551939957778901
1733507094544382200,1.14438232421875,0.007975801184773444,-0.008530366327613592,-0.004782265840470791
1733507094554400000,1.15439990234375,-0.0037263270467519758,-0.03492006834223866,0.024126579388231036
1733507094564417000,1.1644169921875,-0.007370236507058143,-0.036465982609987256,0.06167009156923741
1733507094574435000,1.17443505859375,-0.021463059267401694,-0.05781783658787608,0.07827332624793053
1733507094584452000,1.1844521484375,-0.01251169104874134,-0.08475742757022381,0.09992588020544499
1733507094594470100,1.19447021484375,0.011781038686633109,-0.07104132916778326,0.10374507316742092
1733507094604487200,1.204487060546875,-0.01637070456445217,-0.02445069677606225,0.08485511579103767
1733507094614504200,1.214504150390625,0.015131518158316612,-0.06514613364934921,0.11584767195861786
1733507094624522000,1.22452197265625,0.06687281131148338,-0.08655877790376544,0.09325728916171938
1733507094634539000,1.2345390625,0.07411445300281047,-0.030437808361649513,0.01947740187551826
1733507094644557000,1.24455712890625,0.047403556209802626,-0.0026711189053952693,-0.0004474515065550804
1733507094654574000,1.254573974609375,0.039841596522927285,0.00644406157284975,-0.022323329358547923
1733507094664592100,1.264592041015625,0.07700491374731064,-0.07706088171824813,-0.0036040889065712687
1733507094674609200,1.274609130859375,0.044433015966415405,-0.03496069261357188,-0.055155558576062316
1733507094684627000,1.284626953125,-0.006258475872874259,0.025157383740693328,-0.07503701120782644
1733507094694644000,1.29464404296875,-0.014871990439295768,-0.00808729873523116,-0.04132737810127437
1733507094704661200,1.3046611328125,-0.042725043004751204,-0.0032737609736621376,-0.06746800072565674
1733507094714679000,1.314678955078125,-0.03814297591149807,0.36810777459666133,-0.2537864354224875
1733507094724696000,1.324696044921875,-0.034763854867219925,0.4806492811493575,-0.17470098907407372
1733507094734714000,1.334714111328125,-0.039133740514516825,-0.02412336451783776,0.08510722738858312
1733507094744731100,1.344731201171875,-0.011209960800409317,-0.36522944268137214,0.09494568064007908
1733507094754749200,1.354749267578125,-0.010984335350990295,-0.24611703330576418,-0.05913940404783934
1733507094764766000,1.364765869140625,0.004054828348755837,0.0033704993464052676,-0.13363014301713555
1733507094774784000,1.374783935546875,-0.017598785054683683,0.037100627251714466,-0.06355838953386991
1733507094784801000,1.384801025390625,-0.021189503023028373,0.05725114261582494,-0.0809593504615128
1733507094794819000,1.394819091796875,0.01574292805492878,-0.0017420213617384433,-0.014204923099000006
1733507094804836000,1.404836181640625,0.03058919953107834,-0.018912790262699125,0.019613741606287656
1733507094814853000,1.41485302734375,0.050557051804661746,0.26396087916269895,-0.1847849597855471
1733507094824871200,1.42487109375,0.05662146641016006,0.2801937826916575,-0.02594712761258706
1733507094834888000,1.434887939453125,0.042265608799457545,-0.10839446987584232,0.2353575562192127
1733507094844906000,1.444906005859375,0.030004093119502067,-0.35556714971438047,0.2746578489396721
1733507094854923000,1.454923095703125,0.013429390415549277,-0.3955775269329548,0.25997957270788025
1733507094864941000,1.464941162109375,0.009933949515223502,-0.1592676018923521,0.12218058304088189
1733507094874958000,1.4749580078125,-0.011579963156580924,0.004397942698001861,0.08643281343653797
1733507094884976000,1.48497607421875,-0.053626376247406,0.09852715585604309,0.0778755956346169
1733507094894993200,1.4949931640625,-0.014911737927794455,0.040910540928691626,0.10134177488535642
1733507094905011200,1.50501123046875,0.003655599898099899,0.06429843077883124,0.03517665518550202
1733507094915028000,1.515028076171875,-0.0012152210086584091,0.34410686741471286,-0.13015950776450336
1733507094925045000,1.525044921875,0.010785597908496857,0.12165873285755514,0.0993801376898773
1733507094935063000,1.53506298828125,0.020986673927307128,-0.14813918189555406,0.2548250577552244
1733507094945080000,1.545080078125,0.03892623524367809,-0.33565497315078974,0.27630103130312633
1733507094955098000,1.55509814453125,0.045104047095775604,-0.3995911464884877,0.2533439888846129
1733507094965115100,1.565115234375,0.03190904995799065,-0.21909531699791548,0.11471880492600611
1733507094975133200,1.57513330078125,0.025225042149424552,-0.12340835300385951,0.05460650985855609
1733507094985150200,1.585150146484375,0.0617787030428648,0.0765415340192616,-0.09633534490019083
1733507094995168000,1.59516796875,0.046159693628549575,0.23879560437649486,-0.174285540140979
1733507095005185000,1.60518505859375,0.037758945029973984,-0.10548983447551727,0.09804617653922178
1733507095015202000,1.6152021484375,0.035253099688887596,-0.3098401484146714,0.16716399943167343
1733507095025220600,1.625220703125,0.019078794479370116,-0.41065044677183027,0.19196917220121248
1733507095035238000,1.63523779296875,0.06757131496965885,-0.37108956688642497,0.20412019497770814
1733507095045255700,1.645255615234375,0.043217210435867306,-0.14718319634497165,0.0920329989306163
1733507095055272700,1.655272705078125,0.03199146754443645,-0.034801994920521974,0.10595023679519072
1733507095065290800,1.665290771484375,0.035759295645356175,0.14302403083890675,-0.006494024494686164
1733507095075307800,1.675307861328125,-0.02407528759241104,0.3704886783838272,-0.10180494455085136
1733507095085325800,1.685325927734375,-0.04865326400995254,0.0771295630402863,0.07098290437827817
1733507095095342600,1.695342529296875,-0.04939093063473701,-0.1527624577820301,0.15559841186031698
1733507095105360600,1.705360595703125,-0.037426936596632,-0.23591712633073328,0.12331263754442333
1733507095115377700,1.715377685546875,-0.023496610921621322,-0.1999079475775361,0.027154448442580175
1733507095125395000,1.72539501953125,0.05989478899240493,-0.06264949452802539,0.008578450102906207
1733507095135412700,1.735412841796875,0.07755728693306446,-0.20496362353190778,0.15650699633890763
1733507095145429800,1.7454296875,0.08738543798625469,-0.23620836436226963,0.174768318689242
1733507095155447800,1.75544775390625,0.03974631945490837,-0.0892090001516044,0.04016362241837196
1733507095165464600,1.765464599609375,0.07661679121255874,0.03653670975863933,-0.005598112268000841
1733507095175482600,1.775482666015625,-0.014307342293858527,-0.14490005384385585,0.04905778055707924
1733507095185499600,1.785499755859375,0.010426701468229294,-0.25447671924158927,0.00044154692215379323
1733507095195517700,1.795517578125,-0.016317513072490693,-0.48941155653670426,0.07473217390920035
1733507095205534700,1.80553466796875,-0.004690203642845153,-0.552328031437844,0.06836629213909619
1733507095215551700,1.8155517578125,0.03842354641854763,-0.3610590251289308,-0.01811055223541334
1733507095225569800,1.82556982421875,0.057142859935760494,-0.22680866785421966,-0.03252836003326811
1733507095235586600,1.835586669921875,0.08950608340203761,-0.18781682002842426,0.025976819497952237
1733507095245604900,1.84560498046875,0.11960428454577922,-0.09839242356047034,-0.018193417346430943
1733507095255621600,1.85562158203125,0.05563771606981754,-0.06927227366864681,0.07693613196057267
1733507095265639700,1.8656396484375,0.047184945023059845,-0.19127499765828251,0.20424942911425603
1733507095275656700,1.87565673828125,0.026062077495455742,-0.21904168711453675,0.17142003117464483
1733507095285674800,1.8856748046875,-0.01826221739947796,-0.1044591762535274,0.07588748142416589
1733507095295691800,1.89569189453125,-0.05421849692165851,0.038843817657232285,0.06688256552051752
1733507095305709800,1.905709716796875,0.025164251872897146,-0.034428193172067405,0.1411452861539088
1733507095315726800,1.915726806640625,0.0015606734454631805,0.1542016968049109,0.0852565270656254
1733507095325743600,1.92574365234375,0.007953589352965354,0.24183526433333752,0.004155777105735615
1733507095335761700,1.93576171875,-0.0362637380361557,0.0817754891499877,0.17319664892572909
1733507095345778700,1.94577880859375,0.008524082717299462,0.009550064764171837,0.26977066142000256
1733507095355796700,1.955796630859375,0.023760814815759656,-0.1387267720364034,0.36558870444782077
1733507095365813800,1.965813720703125,-0.025091186636686323,-0.04511252266317606,0.24569663420291615
1733507095375831800,1.975831787109375,0.003269230929017067,-0.0745075439736247,0.21917408132255076
1733507095385848800,1.985848876953125,-0.03725684072673321,0.005541852036118507,0.1976009310104884
1733507095395866600,1.99586669921875,-0.020440730482339856,0.10364449886977672,0.1258339727155864
1733507095405884000,2.0058837890625,0.0012245733588933945,0.16692279282063244,-0.016967848473694175
1733507095415901700,2.015901611328125,-0.002177344039082527,0.09463248650506138,0.05434972208589315
1733507095425918700,2.025918701171875,0.10113280830979347,-0.10257745416015386,0.19344715406559407
1733507095435935700,2.035935791015625,0.08834697649478912,-0.3271171541690826,0.2775123798542656
1733507095445953800,2.045953857421875,0.1019634139150381,-0.3399193525969982,0.21640602311501278
1733507095455970800,2.055970703125,0.0936287162899971,-0.2532569681882858,0.14800773753561078
1733507095465988600,2.065988525390625,0.07218845337629318,-0.24439853895008562,0.10016792706670238
1733507095476006000,2.076005859375,0.09185176974534988,-0.10929697167351841,-0.04687065490949899
1733507095486023700,2.086023681640625,0.08226502623260021,-0.039384500405192376,-0.04111627436755225
1733507095496040700,2.096040771484375,0.07458733121156692,-0.1534187297336757,0.14322043019384145
1733507095506058800,2.106058837890625,0.09318389513194561,-0.4232672056302428,0.3383594828691333
1733507095516075800,2.11607568359375,0.0798164640367031,-0.3519330309957266,0.2165221603079699
1733507095526092800,2.1260927734375,-0.0007464344531297683,-0.07567264223024249,0.08976922785025089
1733507095536110600,2.136110595703125,0.04214753537774086,-0.10021525507345795,0.088954130341392
1733507095546128000,2.1461279296875,-0.04946808752417564,-0.035355098758637904,0.009058554920181632
1733507095556145700,2.156145751953125,-0.07629764226078986,0.03133724141940474,-0.05950504075614735
1733507095566163000,2.166162841796875,-0.034494390276074406,0.0771262020394206,-0.1931895260427147
1733507095576180700,2.1761806640625,-0.04683949258625507,-0.03501812188923359,-0.07327219349239021
1733507095586197800,2.18619775390625,-0.036760581642389295,-0.11557765937820076,0.07997026635892689
1733507095596215800,2.1962158203125,0.058633975276350975,-0.23138898138180375,0.19623601759914308
1733507095606232600,2.206232666015625,0.05513327367901802,-0.17624840117916463,0.14429953066743909
1733507095616251000,2.2162509765625,0.0650070174396038,-0.06704349170327187,0.09038290276918559
1733507095626267600,2.226267578125,-0.0015215104788541792,0.08236381043195724,0.02407656623404473
1733507095636285000,2.236284912109375,-0.032302433189749714,0.0715904874831438,0.009092311059311032
1733507095646302700,2.246302734375,-0.025721885755658147,-0.05734510450959205,-0.017019560394622383
1733507095656319700,2.25631982421875,-0.03647884209156036,-0.022103402997553347,-0.05109945158567279
1733507095666337800,2.266337890625,-0.06776420719325542,0.12310469388216733,-0.10186466624829918
1733507095676354600,2.2763544921875,0.0031149171501398086,0.11577347421124577,-0.193770138942264
1733507095686372900,2.286372802734375,0.024791911429166792,-0.01884118633121252,-0.021737309631519017
1733507095696389600,2.2963896484375,0.06548807895481586,-0.12950754666179418,0.14846943676322696
1733507095706407700,2.30640771484375,0.09478606963157653,-0.09825549930781126,0.013417151988483965
1733507095716424700,2.3164248046875,-0.0031692776858806607,0.006180003809183835,-0.07822583384439348
1733507095726442800,2.32644287109375,0.06904489465355873,-0.0758934453740716,-0.03028473669178784
1733507095736459800,2.336459716796875,0.09308335736691951,-0.12412760718911886,-0.000024111527949571607
1733507095746476500,2.3464765625,0.07295768418312072,-0.010793342823535203,-0.03116473439671099
1733507095756494800,2.356494873046875,0.05249591091275215,0.07454612241834402,-0.1221127602353692
1733507095766511600,2.36651171875,0.08196282841563224,-0.04951338797062635,-0.02076634570751339
1733507095776529700,2.37652978515625,0.03661328212618828,-0.09154664931893348,-0.027771036837808787
1733507095786546700,2.386546630859375,0.0017874679386615752,-0.0725713152140379,-0.004252287149615586
1733507095796564700,2.396564697265625,0.03497252918183803,-0.08643193665370344,0.016761274784617124
1733507095806581800,2.406581787109375,-0.012013093876838684,-0.05282207412719726,0.006174962307885288
1733507095816599800,2.416599853515625,-0.061681087887287135,0.05731967780739069,0.025495383523404597
1733507095826616800,2.426616943359375,-0.015303952115774153,0.12401596350818872,-0.058764031396806235
1733507095836633600,2.436633544921875,0.02472059975862503,0.08063041076809167,-0.07930208477377891
1733507095846652000,2.44665185546875,0.009443535649776458,-0.008266746955364942,-0.040340230227448044
1733507095856668700,2.456668701171875,0.07047755780518054,-0.2604851658761501,0.23490831461437045
1733507095866686700,2.466686767578125,0.0812894591987133,-0.16367898859381674,0.10216803310904651
1733507095876703700,2.476703857421875,0.07306523621082306,-0.03730111825987696,0.04758033754881471
1733507095886721800,2.4867216796875,-0.003619359540939331,0.0759624189570546,-0.013857187373563647
1733507095896738800,2.49673876953125,-0.05551262838542461,0.03786927353665232,-0.06950096785798668
1733507095906756600,2.506756591796875,-0.027476620468497276,-0.05317994765415787,-0.031909013425372536
1733507095916774000,2.51677392578125,-0.07608020011782646,-0.04361044753715396,-0.033103958830982445
1733507095926791700,2.526791748046875,-0.06704466074705123,-0.019785627574473618,-0.022911869836226104
1733507095936808700,2.53680859375,0.019017419680953024,0.05380626285895705,-0.006723791829682886
1733507095946825700,2.54682568359375,0.07670563853979111,0.06881225494146347,0.007527619025856256
1733507095956843800,2.55684375,0.09069733901321887,0.05052855636253953,-0.021549385843984782
1733507095966860800,2.56686083984375,0.010403905114531516,0.06245733295679092,-0.05765227076262235
1733507095976878600,2.576878662109375,0.06064999127388,-0.11450462331920862,-0.010945026253908871
1733507095986896000,2.586895751953125,-0.03394961587488651,-0.015205752438306807,-0.00665624301880598
1733507095996913700,2.59691357421875,-0.014990648382902145,-0.1375149120286107,-0.020296938097476958
1733507096006931000,2.606930908203125,-0.0023404256463050842,-0.13397855459600685,-0.006488996693119406
1733507096016948700,2.61694873046875,0.025588614764809607,-0.05032528887540102,-0.02598773361761123
1733507096026965200,2.62696533203125,0.04241699996888637,-0.03016089111641049,-0.0464899850288406
1733507096036983300,2.6369833984375,0.05817746368050575,-0.050501522225141524,-0.10807338469531387
1733507096047000000,2.647,-0.0027542671442031858,0.0045364743858575815,-0.08392064795251936
1733507096057017000,2.65701708984375,0.07657002946138382,-0.1339753397256136,-0.06106273679323494
1733507096067035100,2.66703515625,0.08499883511066436,-0.10184870149418711,-0.0039009894939139485
1733507096077052200,2.67705224609375,0.06463292343020438,-0.06396817591115832,0.01421798350997269
1733507096087070200,2.6870703125,-0.001219312661886215,0.045429918049275875,0.006030512335896492
1733507096097087200,2.697087158203125,0.027702830439805985,-0.0520351615332067,-0.0032950229573994873
1733507096107105300,2.707105224609375,0.010099369210004806,-0.11514672061502933,0.14833477753289043
1733507096117122000,2.7171220703125,-0.02181961762011051,-0.024129794258624312,0.09185381557196379
1733507096127140400,2.727140380859375,-0.02868891886770725,-0.009013619799911976,0.06490158430375158
1733507096137157000,2.7371572265625,-0.05744973392784595,-0.026144933473318813,0.044976109867170454
1733507096147175400,2.747175537109375,-0.01138882449865341,0.02039630681872368,0.06833024357818067
1733507096157192200,2.757192138671875,0.04737959081232548,0.06849471342489123,0.08958155979104339
1733507096167209200,2.767209228515625,0.04242927492856979,0.0133586632668972,0.07086319612190127
1733507096177227300,2.777227294921875,0.04307400257289409,-0.013046674708276987,0.07981346836201846
1733507096187244300,2.787244384765625,0.015923545318841933,-0.01523439401090145,0.09345920494198799
1733507096197262300,2.797262451171875,0.0019768530309200285,-0.04194368336871266,0.0973296166345477
1733507096207279000,2.807279052734375,-0.00746492905318737,-0.03525280742794275,0.09715586750283836
1733507096217297400,2.81729736328125,-0.020365911680459974,-0.030301907022297382,0.09789280347526073
1733507096227314200,2.827314208984375,-0.03135258511900901,0.001518733999878168,0.05511230395622551
1733507096237332200,2.837332275390625,0.01135492222905159,0.01793313157558441,0.023497195443511008
1733507096247349200,2.847349365234375,0.019648118799924848,-0.008978986877948045,0.027817469795420765
1733507096257366300,2.8573662109375,0.011926000115275382,-0.04308160135746002,0.02052804343961179
1733507096267384300,2.86738427734375,0.00912497121989727,-0.03595218786895275,0.05026435246840119
1733507096277401000,2.877401123046875,0.01799625993967056,-0.06683861678093671,0.04064516799077392
1733507096287419100,2.887419189453125,0.01312953068614006,-0.08032645938545464,0.03272803819067776
1733507096297436200,2.897436279296875,0.02615267838835716,-0.08726458808556199,-0.0006825023714452981
1733507096307454200,2.9074541015625,0.0461409889280796,-0.11134835124537348,0.007937880327180027
1733507096317471200,2.91747119140625,0.02790390596985817,-0.10953896373584866,0.027034356593713164
1733507096327489000,2.927489013671875,0.02507832715511322,-0.1277666943438351,0.04704604800902307
1733507096337506300,2.93750634765625,0.023363924452662468,-0.1466927824795246,0.054251449343189595
1733507096347524000,2.947524169921875,-0.02443593759834766,-0.14844854010567068,0.046318975843489166
1733507096357541000,2.957541015625,0.03864040403962135,-0.06259907951503992,0.06145370887219905
1733507096367558100,2.96755810546875,0.02583469848036766,-0.0640517625413835,0.015935820278525352
1733507096377576200,2.977576171875,0.022749591946601866,-0.0902047331906855,-0.01008548681512475
1733507096387593200,2.98759326171875,0.014233692535758017,-0.10378916803747415,-0.011759192181006073
1733507096397611300,2.997611328125,0.00034019173979759216,-0.10434183348417282,-0.029129575307294726
1733507096407628300,3.007628173828125,0.022702245673537253,-0.0823918674826622,-0.05263429647013545
1733507096417646000,3.01764599609375,0.04013444198966026,-0.08202756421491503,-0.01848791591413319
1733507096427663000,3.0276630859375,0.029775545060634612,-0.08782529070824384,-0.013853607176989316
1733507096437681200,3.03768115234375,0.02314998944103718,-0.07394903330802917,0.006965016707032918
1733507096447698200,3.0476982421875,0.010547112977504729,-0.05528875650167465,0.0038155397001653907
1733507096457716200,3.05771630859375,0.003477320721745491,-0.046572804474085565,0.0006215659644454718
1733507096467733200,3.067733154296875,0.007905074036121368,-0.05921776651367545,0.014062208426371216
1733507096477750300,3.077750244140625,0.013942600634694099,-0.041163492776453495,0.024927885833755135
1733507096487768000,3.08776806640625,0.00006663549542427062,-0.01646115932688117,0.03141001439467072
1733507096497785000,3.09778515625,0.007255085694789886,-0.00855871563926339,0.04568111633136868
1733507096507803100,3.10780322265625,0.01275134502351284,0.013665244998037814,0.05215031234547496
1733507096517820200,3.117820068359375,0.007792261311411857,0.034742958209663624,0.05705116306431591
1733507096527838200,3.127838134765625,0.013435820156335829,0.030204437997192142,0.05678396349549293
1733507096537855200,3.137855224609375,0.012782324683666229,0.00997457378655672,0.07987805803082883
1733507096547873300,3.147873291015625,0.012274375161528586,0.01661488858386874,0.08901822681985795
1733507096557890300,3.157890380859375,0.01671148082613945,0.0049158290922641755,0.09047215195521711
1733507096567908400,3.167908447265625,0.02699672799706459,-0.02519464701116085,0.07816277854554354
1733507096577925000,3.177925048828125,0.008268062129616737,-0.05508738871067762,0.09226356541663408
1733507096587942100,3.187942138671875,0.011242109504342079,-0.04091755519136786,0.08834361549392342
1733507096597960200,3.197960205078125,0.0012310030996799469,-0.06886588482484221,0.06759184630103408
1733507096607977200,3.207977294921875,0.007509937238693237,-0.06373758202567696,0.06416391767896712
1733507096617995300,3.217995361328125,0.02391103694140911,-0.056265930970758195,0.04920191086865961
1733507096628012300,3.22801220703125,0.0365904857724905,-0.06769260326176882,0.03981872710399329
1733507096638030300,3.2380302734375,0.030880291432142257,-0.06910334684252739,0.04035853306911886
1733507096648047000,3.248047119140625,0.032823242193460465,-0.06790478470772504,0.056474532220140095
1733507096658065200,3.258065185546875,0.016811434069275856,-0.07768485883548855,0.04466163709051907
1733507096668082200,3.268082275390625,0.01278524729311466,-0.0717092915572226,0.027629472942650318
1733507096678100200,3.278100341796875,0.012188450443744659,-0.06279752469658852,0.026038623554632066
1733507096688117200,3.2881171875,0.013044190490245819,-0.062111880519986146,0.03292648337222635
1733507096698134300,3.29813427734375,0.0055073652446269985,-0.0553289423815906,0.022037790415436027
1733507096708152300,3.30815234375,0.005596212571859359,-0.05800400680974126,0.01593574721328914
1733507096718169000,3.318169189453125,0.014229016360640525,-0.05764350293427705,0.024951778165996072
1733507096728187100,3.328187255859375,0.020768062740564346,-0.05273702619224786,0.0016379034001380204
1733507096738204200,3.3382041015625,0.002924363014101982,-0.061576166208088395,-0.01133994385562837
1733507096748222200,3.34822216796875,-0.01776537379324436,-0.05821954925656318,-0.024498335310071704
1733507096758239200,3.3582392578125,0.00416881011724472,-0.06355769541412591,-0.0203532713945955
1733507096768257000,3.368257080078125,0.003936170405149459,-0.05785612277165055,-0.01717771009840071
1733507096778274300,3.3782744140625,0.008638064485788344,-0.03985065661221742,-0.005312500259652734
1733507096788292000,3.3882919921875,0.01902034229040146,-0.039318011040240526,0.0005342530071735382
1733507096798309000,3.39830908203125,0.016854104167222977,-0.06617620734944939,0.00009761515557765961
1733507096808327200,3.4083271484375,0.007689385458827018,-0.05139978623911738,-0.00947831470221281
1733507096818344200,3.41834423828125,0.007350947284698486,-0.05815086793452501,0.0074347531106323
1733507096828361200,3.428361328125,0.003848492121696472,-0.05051116683632135,-0.0032676965590566396
1733507096838379300,3.438379150390625,0.020823592320084572,-0.06705985831618308,0.010341069011390208
1733507096848396300,3.448396240234375,0.031516835770010944,-0.05928951657563448,0.03326506767682731
1733507096858414000,3.4584140625,0.026534371182322502,-0.051950698120146986,0.040885187291726466
1733507096868431000,3.46843115234375,0.03356850760281086,-0.023195874409377575,0.05457965838424861
1733507096878449200,3.47844921875,0.03194061414003372,-0.0439462553627789,0.08351911794692278
1733507096888466200,3.488466064453125,0.00894201586842537,-0.03177344087958336,0.06977591234184802
1733507096898484200,3.498484130859375,-0.012364391532540321,-0.035858518236130475,0.06714950936101377
1733507096908501200,3.508501220703125,-0.010767477729916573,-0.02600245626270771,0.08056194864176214
1733507096918519300,3.518519287109375,-0.01161678803563118,-0.029517332515865562,0.1242366205215454
1733507096928536000,3.5285361328125,-0.0014244798451662063,-0.003982932156324386,0.12719795454517005
1733507096938553000,3.538552978515625,0.04545008405447006,0.07940452223494648,0.11402173517309129
1733507096948571100,3.548571044921875,0.06763970403075217,0.04784223988801241,0.06060695584975183
1733507096958588200,3.558588134765625,0.019515432330965993,-0.006611965485662221,0.083960724234581
1733507096968606200,3.568606201171875,0.011467150431871414,0.006680062285810709,0.03581467909440398
1733507096978623200,3.578623291015625,0.03786006731688976,0.00005392214432358741,0.06372516093552112
1733507096988641300,3.588641357421875,-0.017446809363365172,-0.00955196446031332,0.07864829704016446
1733507096998658300,3.598658203125,-0.012017770051956176,-0.023478198482096195,0.05279591677263379
1733507097008676400,3.60867626953125,0.011087211203575134,-0.029513094732165335,0.05420958296284079
1733507097018693000,3.618693115234375,0.019269933137297628,-0.038844694440066815,0.03078033818900585
1733507097028711400,3.62871142578125,0.015025135174393653,-0.025288462774455546,0.025037118361890313
1733507097038728200,3.638728271484375,0.009541150805354118,-0.014977058248966932,0.007111001048982143
1733507097048745200,3.6487451171875,0.011227496457099913,-0.026157354563474653,0.005875614035129547
1733507097058763300,3.65876318359375,0.03955225818753242,-0.05772402082458138,0.028254034581780434
1733507097068780300,3.6687802734375,0.043942017579078674,-0.07410612356588243,0.044617140361666675
1733507097078798300,3.67879833984375,0.037871757754683495,-0.0846319014944136,0.05479987700618803
1733507097088815000,3.688815185546875,0.035543607068061825,-0.11333163401708006,0.04421754658482969
1733507097098833400,3.69883349609375,0.02262567330598831,-0.13417305425480008,0.03234919494092464
1733507097108850200,3.70885009765625,0.012860066094994545,-0.14754413861185312,0.03062332099638879
1733507097118868200,3.7188681640625,0.022273791128396985,-0.1642943440131843,0.03881736804172396
1733507097128885200,3.72888525390625,0.019894202515482903,-0.15595803895294666,0.01305507721044123
1733507097138903000,3.738903076171875,0.02487082188427448,-0.14628814720138908,-0.014629998376965521
1733507097148920300,3.74892041015625,0.025994272956252097,-0.14424451254457235,-0.0074989774532616136
1733507097158937000,3.75893701171875,0.035761049211025235,-0.13204758653342724,-0.007658917255327105
1733507097168955400,3.768955322265625,0.039815293037891386,-0.1133386482797563,-0.008049670138582586
1733507097178972200,3.77897216796875,0.0185784437417984,-0.1168774899303913,-0.002848448233678937
1733507097188990500,3.788990478515625,0.036249124988913535,-0.09357990871220827,0.013105126897245644
1733507097199007200,3.79900732421875,0.03841653215587139,-0.09404840300679207,0.028330680014565585
1733507097209025000,3.80902490234375,0.019640520015358924,-0.08966112783327698,0.024321882764622566
1733507097219042300,3.819042236328125,0.011374795973300933,-0.09243161545991897,0.04378616943024099
1733507097229060000,3.82906005859375,-0.0015016367346048355,-0.07347410927265882,0.05640219763629138
1733507097239077400,3.839077392578125,-0.0067272624284029,-0.07376257082521916,0.04068389256596565
1733507097249095200,3.84909521484375,0.0063005614489316936,-0.04815890462175011,0.05890745845548808
1733507097259112400,3.859112548828125,-0.0011877484798431396,-0.036481618570536375,0.07507847572937608
1733507097269130200,3.869130126953125,0.004774374794960022,-0.03287789499014616,0.06258176305405795
1733507097279147300,3.879147216796875,0.04050093721449375,-0.021255115605145692,0.07161277238018811
1733507097289164300,3.889164306640625,0.03717500766217709,-0.010817162090539931,0.07695771360471844
1733507097299182000,3.89918212890625,0.017944237491488456,-0.02303922254294157,0.08259433125220239
1733507097309199400,3.909199462890625,0.0008206687331199646,-0.0024235738851130007,0.07866963208913802
1733507097319217200,3.919217041015625,0.006591653349995613,-0.010690174710005522,0.07505728681087494
1733507097329234200,3.929234130859375,0.019684943678975105,-0.010488953049480915,0.07116283665560186
1733507097339252200,3.939252197265625,0.0158247611194849,-0.010387684632092714,0.0742070997223258
1733507097349269200,3.949269287109375,0.03407587260305881,-0.0010879413671791554,0.07897380266748369
1733507097359287300,3.959287353515625,0.027938977283239363,-0.0007139934882521629,0.054263285911455746
1733507097369304000,3.969303955078125,0.029287469282746312,-0.010099076949059963,0.061862801129743454
1733507097379322400,3.979322265625,0.02975333322882652,-0.020784137092530727,0.07590674324706197
1733507097389339100,3.989339111328125,-0.001939443629980087,-0.04990516376718879,0.0770755678307265
1733507097399356200,3.999356201171875,0.003177460992336273,-0.026290625554323196,0.06758746238686143
1733507097409374200,4.009374267578125,0.011424480333924293,-0.021098902130126954,0.03992372184842825
1733507097419391200,4.01939111328125,-0.0009802432090044021,-0.00815028096884489,-0.004132642825320363
1733507097429409300,4.0294091796875,-0.010418518161773681,-0.018178192377835512,-0.004909326286241412
1733507097439426300,4.03942626953125,0.00840425572991371,-0.01583425960019231,0.015176014887169003
1733507097449444400,4.0494443359375,0.013262801676988602,-0.041619419850409026,0.026495938868075608
1733507097459461000,4.059461181640625,0.020500936236977577,-0.06791515997126699,0.029869360823929308
1733507097469479400,4.0694794921875,0.024023849666118622,-0.07506605463922024,0.019360607095435262
1733507097479496200,4.07949609375,0.018446341794729232,-0.06468216939941049,0.025592048830911516
1733507097489514200,4.08951416015625,0.02533843939602375,-0.0714580932751298,0.01738375406451523
1733507097499531300,4.09953125,0.018647417324781417,-0.07133475915640593,0.0067061465751379725
1733507097509548300,4.10954833984375,0.021998481318354607,-0.09286123904883861,0.011469780780375003
1733507097519566300,4.11956640625,0.019942717832326887,-0.10036430815532803,0.03279087429381907
1733507097529583000,4.1295830078125,0.03745382460355758,-0.09257160845249891,0.06517769783139228
1733507097539601400,4.139601318359375,0.043400165787339205,-0.0697892832800746,0.054629635005816815
1733507097549618200,4.1496181640625,0.04394903184175491,-0.053506549260020256,0.03647621174305677
1733507097559636500,4.159636474609375,0.01652794095277786,-0.05884688737466931,0.04123838464356959
1733507097569653200,4.1696533203125,0.023824527701735494,-0.07411927530840039,0.0379919500682503
1733507097579671000,4.179671142578125,0.011391747108101844,-0.062449003519862885,0.060827832058817144
1733507097589688300,4.189688232421875,0.006137479841709137,-0.0580042990706861,0.05449709466733038
1733507097599706000,4.1997060546875,0.0039437691897153855,-0.04448138515278697,0.02172719009630382
1733507097609723400,4.209723388671875,-0.011526187142729759,-0.022325813576579093,0.008030161720514297
1733507097619740200,4.219740234375,0.0025181203007698058,-0.008470452833920717,0.028683219779282808
1733507097629758500,4.229758544921875,0.00933539910018444,-0.01911357353180647,0.019447920052707193
1733507097639775200,4.239775146484375,0.031098902618885038,-0.021149463273584843,0.020436784959584474
1733507097649793000,4.24979296875,0.023831541964411736,-0.01801014233455062,0.026520050396025178
1733507097659810300,4.259810302734375,-0.0032277298748493192,-0.04017039008587599,0.016908391637727616
1733507097669828000,4.269828125,0.009842179578542708,-0.0438612074278295,0.003310001330822706
1733507097679845400,4.279845458984375,0.0178507139891386,-0.04164528494402766,0.008356909456849098
1733507097689863200,4.28986328125,0.026184827092289923,-0.04548749345541,0.014847075193747877
1733507097699880200,4.299880126953125,0.010566986721754074,-0.05673486365675926,0.02419080373086035
1733507097709898200,4.309898193359375,0.02727905206978321,-0.06378156729787587,0.0447577178761363
1733507097719915300,4.319915283203125,0.02542553315758705,-0.05939370760247111,0.04103007565513253
1733507097729933300,4.329933349609375,0.02928454667329788,-0.06789250974804163,0.047392596424371
1733507097739950000,4.3399501953125,0.015647650986909865,-0.082471508590132,0.07423099205456674
1733507097749967400,4.34996728515625,0.026405191844701765,-0.08655468625053762,0.07632716061621904
1733507097759985200,4.359985107421875,0.012794599643349646,-0.10208777094706892,0.08683109203912318
1733507097770002200,4.370002197265625,0.0024988310784101486,-0.08683759484514593,0.07872698829956352
1733507097780020200,4.380020263671875,0.017781740406155586,-0.06513020542785525,0.07216492637023329
1733507097790037200,4.390037353515625,0.014309680381417274,-0.07272592125385999,0.054432870324701066
1733507097800055300,4.40005517578125,-0.00452303038239479,-0.053757455281168216,0.052326764890924096
1733507097810072000,4.410072021484375,0.00139817636013031,-0.036270460037887094,0.043108854690566654
1733507097820090400,4.42009033203125,0.05091945537626743,-0.10663038281276821,0.029454569477960466
1733507097830107100,4.430107177734375,0.023859014493227002,-0.049533261714875695,0.053325493604689835
1733507097840125400,4.44012548828125,0.013248773151636122,-0.05230842551663518,0.04230418724417686
1733507097850142200,4.45014208984375,0.017599369576573373,-0.06398951096013188,0.056371071845665574
1733507097860160300,4.46016015625,-0.0000713116705417633,-0.07563245635032653,0.05863054121024906
1733507097870177300,4.47017724609375,0.01775660596489906,-0.060848436455428596,0.05617299199029803
1733507097880194300,4.4801943359375,0.009261164820194245,-0.0382525737658143,0.02298508120290935
1733507097890212400,4.49021240234375,0.01771744299829006,-0.03448474566489458,0.03850932500585914
1733507097900229000,4.50022900390625,0.015363573348522185,-0.03501066923514008,0.031879604667797684
1733507097910247400,4.510247314453125,0.014930442628264427,-0.04584492859095335,0.03166457367762923
1733507097920264200,4.52026416015625,0.011962824994325638,-0.020172581065446137,0.010784721125662327
1733507097930282200,4.5302822265625,0.0031347908943891523,-0.02331102522164583,0.016782207974791526
1733507097940299300,4.54029931640625,0.01961889270544052,-0.029545681827515363,0.024111601014807818
1733507097950317000,4.550317138671875,0.005127426016330719,-0.013765636632591486,0.012624357642978428
1733507097960334300,4.560334228515625,0.012926701590418815,-0.02061842513680458,0.016397154179960488
1733507097970352000,4.57035205078125,0.0043634559065103525,-0.01795724310353398,0.020501959150284528
1733507097980369400,4.580369384765625,-0.009916413858532905,-0.040417204453796145,0.038699440750479694
1733507097990386200,4.59038623046875,0.015480477726459503,-0.04346621676087379,0.050719841150939464
1733507098000404500,4.600404541015625,0.02235503967106342,-0.03466536292880773,0.020619886441528797
1733507098010421200,4.610421142578125,0.02410626725256443,-0.02358341242223978,0.015826733880862594
1733507098020439000,4.62043896484375,0.021178981629014014,-0.021751813080906866,0.028459274830296633
1733507098030456300,4.630456298828125,0.03207388513088226,-0.05487696083039045,0.03440174355655908
1733507098040474400,4.640474365234375,0.02037526403069496,-0.06925956031754613,0.07694850738495587
1733507098050491400,4.650491455078125,0.016470657807588576,-0.07171966682076454,0.09519326219297945
1733507098060509400,4.660509521484375,0.001364274090528488,-0.05799538511186838,0.06528079287968576
1733507098070526500,4.6705263671875,0.004677928683161735,-0.0325642989963293,0.035485081813856956
1733507098080544500,4.68054443359375,-0.017127660411596298,-0.01846402358189225,0.02293634669035673
1733507098090561300,4.690561279296875,-0.010625438910722733,-0.014381868834793567,0.009144114311784505
1733507098100579300,4.700579345703125,0.021777532044053076,-0.03427475617602467,0.013598390306904911
1733507098110596400,4.710596435546875,0.0323246450215578,-0.039585429804772136,0.042464930763840676
1733507098120614400,4.720614501953125,0.04001052334904671,-0.047577305341511965,0.07156345334574579
1733507098130631400,4.73063134765625,0.020724808120727536,-0.05915230006203055,0.05764416052140295
1733507098140648400,4.7406484375,0.02029167740046978,-0.05334507508799433,0.03641235272660851
1733507098150666500,4.75066650390625,0.011575871503353118,-0.05619929547533393,0.019232304540649055
1733507098160683500,4.76068359375,0.009891863939166069,-0.05311754994243383,0.02468874331563711
1733507098170701300,4.770701416015625,0.0029658640682697296,-0.04901756727769971,0.010410042594373226
1733507098180718300,4.78071826171875,-0.006492284628748893,-0.06820815156847237,0.003740574767813086
1733507098190736400,4.790736328125,0.00409866749048233,-0.05632862094342708,0.0005272387444972992
1733507098200753400,4.80075341796875,0.028302549898624418,-0.06076499595567584,0.015650135204941032
1733507098210771200,4.810771240234375,0.015247838014364242,-0.0512878502972424,0.0051950844250619405
1733507098220788500,4.82078857421875,0.023719898283481596,-0.05327157146036625,0.006980141210928559
1733507098230806300,4.83080615234375,0.01666004289984703,-0.03194967422932386,0.0031513036377727984
1733507098240823300,4.8408232421875,0.01647182685136795,-0.025944150204211473,-0.004845759530737996
1733507098250840300,4.85084033203125,0.011328618744015693,-0.01888853260427713,0.010699234799295663
1733507098260858400,4.8608583984375,0.005295183798670769,-0.008717705593258141,0.00999663948789239
1733507098270875400,4.87087548828125,0.005082417830824851,-0.00684080580547452,0.011481617348641157
1733507098280893400,4.8808935546875,-0.005345452681183815,-0.024269056598842143,0.0010213789369910955
1733507098290910500,4.890910400390625,0.011009469792246818,-0.033607086047530176,0.01119775890596211
1733507098300928300,4.90092822265625,0.016437340059876442,-0.06165872992500662,0.04958455351069569
1733507098310945300,4.9109453125,0.029406711748242376,-0.06472060171365737,0.05877177631184458
1733507098320963300,4.92096337890625,0.037623335951566694,-0.0626793051443994,0.05503982324190437
1733507098330980400,4.93098046875,0.029719430959224698,-0.0589312046572566,0.05798493678309023
1733507098340998400,4.940998291015625,0.022258593559265134,-0.06161971308887004,0.05845693820901215
1733507098351015400,4.951015380859375,0.017047580912709234,-0.04649491693228483,0.0693383977074176
1733507098361033500,4.961033447265625,0.01331599316895008,-0.0361624696187675,0.059009019133821124
1733507098371050200,4.97105029296875,-0.0013929156631231306,-0.040710926703363653,0.04536540144570172
1733507098381067300,4.9810673828125,0.004700725036859512,-0.04685308272019029,0.049824280550703405
1733507098391085300,4.991085205078125,0.013330606216192245,-0.04437120277658105,0.048363852609321474
1733507098401102300,5.001102294921875,0.02123451120853424,-0.04564283014759421,0.040325288386642934
1733507098411120400,5.011120361328125,0.020168927803635595,-0.058186962161213156,0.03141615187451243
1733507098421137400,5.021137451171875,0.017326397854089737,-0.05978285305052995,0.019252835872024296
1733507098431155500,5.031155517578125,0.01689618974328041,-0.05065700504779815,0.03733626263849437
1733507098441172500,5.04117236328125,0.006868716725707054,-0.035466450178623196,0.00993373031951487
1733507098451190500,5.0511904296875,-0.013068155887722968,-0.04640183182135224,0.027059491034969685
1733507098461207300,5.061207275390625,-0.010413257464766502,-0.05492372258156537,0.027133067727833984
1733507098471225300,5.071225341796875,0.015551789397001265,-0.06078267774283885,0.010638079196587205
1733507098481242400,5.081242431640625,0.028081016102433205,-0.051502223700284955,0.009763415253907441
1733507098491260400,5.091260498046875,0.037628596648573875,-0.058253743787109846,0.032356428399309516
1733507098501277400,5.10127734375,0.04349310476779938,-0.06554828470945358,0.04211911300085485
1733507098511294500,5.11129443359375,0.03600128770768642,-0.056453270236402744,0.03756378778405487
1733507098521312500,5.1213125,0.02240998472869396,-0.04947685535252094,0.05128616979680955
1733507098531329300,5.131329345703125,0.021506898409128186,-0.036873978888988496,0.056212739478796715
1733507098541347300,5.141347412109375,-0.004863806644082069,-0.022523381975293157,0.05538914813622832
1733507098551364400,5.1513642578125,0.0029892449438571928,-0.020904986993223428,0.05719641675390303
1733507098561382400,5.16138232421875,0.0011035773277282715,-0.04953340784534812,0.05160831442326307
1733507098571399400,5.1713994140625,0.023158172747492788,-0.059745005258172744,0.05663396056555211
1733507098581417200,5.181417236328125,0.02491173841655254,-0.053839288345724344,0.07067147294208408
1733507098591434500,5.1914345703125,0.02732347573339939,-0.03341112508401275,0.03546067802496254
1733507098601452300,5.201452392578125,0.0063935004293918605,-0.007701514288038015,0.010841127488017082
1733507098611469300,5.21146923828125,0.0016144494593143461,0.008481997141242027,-0.003942015624046325
1733507098621487400,5.2214873046875,-0.008277999001741409,-0.011408990503847598,-0.00894924932681024
1733507098631504400,5.23150439453125,-0.004143091154098511,-0.024767361509799957,0.011872808623313903
1733507098641521400,5.241521484375,0.006552490383386612,-0.03879647138416767,0.013213117316365241
1733507098651539200,5.251539306640625,0.009890694895386696,-0.04153291061073541,0.03467011216916144
1733507098661556500,5.261556396484375,0.012552607581019401,-0.03886354527100921,0.04329056793302297
1733507098671574300,5.27157421875,-0.0004547580301761627,-0.004133738803863525,-0.015057868400216102
1733507098681591300,5.28159130859375,0.0018324761241674422,-0.011824439436942339,-0.03927088396288454
1733507098691609300,5.291609375,0.024522446838021277,-0.04827975452244281,-0.006094517482817172
1733507098701626400,5.30162646484375,0.023117256215214727,-0.06414440926089883,0.017946867839992046
1733507098711644400,5.31164453125,0.02513327221274376,-0.05353577535450458,0.037338819921761746
1733507098721661400,5.321661376953125,0.014524784436821937,-0.05158391063436866,0.0434277844466269
1733507098731679500,5.331679443359375,0.025867431706190106,-0.05698869228735566,0.053885100248828526
1733507098741696300,5.3416962890625,0.023090952730178832,-0.05834639050662517,0.05833206972032785
1733507098751714600,5.351714599609375,0.009430091646313667,-0.06790507696866989,0.0506924416873604
1733507098761731300,5.3617314453125,0.021079612907767293,-0.059365942812710994,0.02359407994672656
1733507098771748400,5.371748291015625,0.026607436418533324,-0.07097571658566594,0.012508330047875642
1733507098781766400,5.381766357421875,0.026938860329985617,-0.0637500031158328,0.006174889242649078
1733507098791783400,5.391783447265625,0.021897359031438825,-0.062182169277220964,-0.007086012738198042
1733507098801801500,5.401801513671875,-0.0012555530190467834,-0.0725977648295462,0.007098945285007357
1733507098811818200,5.411818359375,0.007703413984179497,-0.03452887706756592,-0.008919657906144856
1733507098821836500,5.42183642578125,0.005416179829835891,-0.05918664072304964,-0.00932202816195786
1733507098831853300,5.431853271484375,0.009393851289153099,-0.03576528699472546,0.02360306697078049
1733507098841871400,5.441871337890625,0.036276597517728805,-0.03994754111543298,0.023475056676939127
1733507098851888400,5.451888427734375,0.03636953649818897,-0.010593144076317548,0.016575506421551107
1733507098861906200,5.46190625,0.039788405030965805,-0.021468319964408872,0.06124554601423442
1733507098871923500,5.47192333984375,0.02569090609550476,-0.03703355336487293,0.054343365410342806
1733507098881941200,5.481941162109375,0.01131225213110447,-0.04981061735153198,0.06960325918868183
1733507098891958500,5.49195849609375,0.017865327036380767,-0.04492606018036604,0.07114617778174578
1733507098901975300,5.501975341796875,0.015761632755398748,-0.0327357100404799,0.0503690549518913
1733507098911993300,5.511993408203125,0.004940963533520699,-0.04424991448447108,0.03505268174596131
1733507098922010400,5.52201025390625,0.012069792500138283,-0.032875556902587415,0.05297938358075917
1733507098932028400,5.5320283203125,0.019818214669823645,-0.04477949131652713,0.060125455943122505
1733507098942045400,5.54204541015625,0.018276245924830434,-0.06132745214402675,0.05779138697236776
1733507098952063200,5.552063232421875,0.03682546357214451,-0.07257935239002108,0.05720993382260203
1733507098962080500,5.56208056640625,0.01542611719071865,-0.07345584296360612,0.07444149300009012
1733507098972098300,5.572098388671875,0.0197767136156559,-0.068104398933053,0.07078333581872284
1733507098982115300,5.582115234375,0.03161795805692673,-0.06258578164204955,0.055467547134682535
1733507098992133400,5.59213330078125,0.010994272223114967,-0.05077259425148368,0.04415500274263322
1733507099002150400,5.602150390625,-0.010100538253784179,-0.035371319241076705,0.049571328702941536
1733507099012168400,5.61216845703125,0.010957447344064711,-0.01942877696081996,0.03461619002483785
1733507099022185200,5.622185302734375,-0.0028635727375745774,-0.027680910868942737,0.009975742830336093
1733507099032204000,5.6322041015625,-0.011229250022768974,-0.03434592171609401,-0.009154051183909178
1733507099042220800,5.642220703125,0.0018389058649539945,-0.04149988512396812,-0.013328268128633499
1733507099052237800,5.65223779296875,0.0059533554464578625,-0.04771452185511589,-0.004781169861927628
1733507099062255900,5.662255859375,0.016937690797448158,-0.048306204137951135,-0.010626315693557261
1733507099072273000,5.67227294921875,0.018014964640140532,-0.04267696607932448,-0.0040131811641156674
1733507099082291000,5.682291015625,0.015177110865712166,-0.022796353697776793,-0.017154913744702936
1733507099092307700,5.6923076171875,0.01275660572052002,-0.03943374637439847,0.00007467267140746116
1733507099102326000,5.702325927734375,0.01991290721595287,-0.0514971091337502,-0.003194339061900973
1733507099112342800,5.7123427734375,0.022290742263197896,-0.05689721461161971,-0.010338877054303884
1733507099122360800,5.72236083984375,0.027048750445246694,-0.06100464993044734,0.013022343984618783
1733507099132377900,5.7323779296875,0.001768178716301918,-0.04159706188812852,0.01649754581451416
1733507099142395600,5.742395751953125,0.01135141509771347,-0.046504561543464655,0.030287147844582793
1733507099152413000,5.752412841796875,0.0064209729582071304,-0.03926379663497209,0.049978886590525504
1733507099162430700,5.7624306640625,0.010769815817475319,-0.042550709351152176,0.06268982653841376
1733507099172448000,5.772447998046875,0.004210311171412468,-0.06582417904138564,0.058102425682917236
1733507099182465800,5.7824658203125,0.012156301739811897,-0.051457946167141194,0.06580985825508832
1733507099192482800,5.79248291015625,0.00890752907693386,-0.04348945150598883,0.057517465401813385
1733507099202499800,5.802499755859375,0.00805354259610176,-0.029423955143988132,0.04017060928158462
1733507099212517600,5.812517578125,0.007056348252296447,-0.005893441952764988,0.012675357177853584
1733507099222535000,5.822534912109375,-0.005368249034881592,0.015334347254037857,-0.0006171089850366115
1733507099232552700,5.832552734375,0.006453121662139892,-0.009636135612428189,0.01108779572546482
1733507099242570000,5.842570068359375,0.023074586117267606,-0.03072349343523383,0.010846461250260472
1733507099252587800,5.852587890625,0.03893266498446464,-0.04689794477522373,0.025888328363746403
1733507099262604800,5.862604736328125,0.024430092379450798,-0.05593216897174716,0.0469085392344743
1733507099272622800,5.872622802734375,0.01276478902697563,-0.024415333201736212,0.034767654259502886
1733507099282639600,5.8826396484375,-0.005336684852838516,-0.0034438568435609337,0.018253011179715395
1733507099292658000,5.892657958984375,-0.008161094623804092,0.005262888964265584,-0.0008977525573223828
1733507099302674700,5.9026748046875,0.002515197691321373,-0.021902765858918427,0.007464855987951159
1733507099312693000,5.91269287109375,0.022889877200126647,-0.052197074096649886,0.05764408745616674
1733507099322709800,5.922709716796875,0.041330373775959016,-0.07816299774125218,0.10213993952572345
1733507099332726800,5.932726806640625,0.03822773158550262,-0.07286752168163657,0.09370470413565635
1733507099342744800,5.942744873046875,0.024638766694068906,-0.08452975629419088,0.09846088568679988
1733507099352761900,5.952761962890625,0.00861468361020088,-0.0617861556969583,0.06713840344510973
1733507099362780000,5.96277978515625,0.0032400048345327375,-0.05670373786613345,0.06085632750093937
1733507099372796700,5.972796630859375,0.009682020580768584,-0.05854410503581166,0.03961845529153943
1733507099382815000,5.98281494140625,0.015509119299054144,-0.036616643127053976,0.016138210982829332
1733507099392831700,5.992831787109375,0.00785831228494644,-0.025230448976904154,-0.014495485277101396
1733507099402849800,6.002849853515625,0.008131284007430076,-0.032548516905307766,0.0004019318643957376
1733507099412866800,6.01286669921875,0.00931494083404541,-0.02100274827927351,-0.0010939327165484427
1733507099422884900,6.022884765625,0.0007423427999019623,-0.010089578468352556,0.003789528476074338
1733507099432902000,6.03290185546875,0.004117372190952301,-0.02010273069962859,-0.00508322154842317
1733507099442919700,6.042919677734375,0.025738836890459058,-0.01164265312924981,-0.026067776583880185
1733507099452937000,6.05293701171875,0.02926584197282791,-0.008072247296571732,-0.036011882166936994
1733507099462954800,6.062954833984375,0.021411621341109275,-0.008825842142850161,-0.023014818754047154
1733507099472972000,6.072971923828125,0.01537117213308811,-0.025563626454025507,-0.0023619798909872767
1733507099482988800,6.08298876953125,0.02084931128323078,-0.047230537730455394,0.0014995178427547216
1733507099493006600,6.093006591796875,-0.002220014137029648,-0.055153439684212206,0.02823971379548311
1733507099503023900,6.10302392578125,0.004921089789271354,-0.04699015310332179,0.03424669912531972
1733507099513041700,6.113041748046875,0.008918634992837906,-0.05659969296976924,0.05316219280175864
1733507099523059000,6.123058837890625,0.005921791264414787,-0.06748568251281976,0.06606032588481903
1733507099533076700,6.13307666015625,0.0047141690403223035,-0.06295388430207967,0.06269552562683821
1733507099543094000,6.143093994140625,0.019838672935962677,-0.07101429503038525,0.03925670930705964
1733507099553111800,6.15311181640625,0.022248656687140465,-0.08125117301493882,0.039061040604487056
1733507099563128800,6.16312890625,0.03482289157807827,-0.07412789700627327,0.06220920341461897
1733507099573147000,6.17314697265625,0.026314006429910657,-0.07854439827427268,0.0732694535460323
1733507099583163600,6.18316357421875,0.021266075390577316,-0.07059007826894521,0.08256722404956818
1733507099593182000,6.193181884765625,0.03569558275938034,-0.07036416055858134,0.08364384030513465
1733507099603198700,6.20319873046875,0.008192658805847167,-0.06348828343972564,0.058630175884068006
1733507099613216800,6.213216796875,0.0031277766317129134,-0.03154021664559841,0.01346424253322184
1733507099623233800,6.22323388671875,0.007048164945840835,-0.01948123780041933,-0.0028473522551357745
1733507099633250800,6.233250732421875,-0.0074298577398061744,-0.029459757109731435,-0.018980375606194137
1733507099643268900,6.243268798828125,0.00921732567846775,-0.02765036960020661,-0.012288476752117276
1733507099653285600,6.25328564453125,-0.000633037206530571,-0.028570407054573296,-0.004333353029191494
1733507099663304000,6.263303955078125,0.01466273160278797,-0.008749708166718483,0.031143910804390905
1733507099673320700,6.27332080078125,0.015898995399475098,-0.04609466556832194,0.024219664499163625
1733507099683339000,6.283339111328125,0.02775309932231903,-0.04641147643253207,0.02675276317335665
1733507099693355800,6.293355712890625,0.00537350973188877,-0.03535042258352041,0.02320354625917971
1733507099703373800,6.303373779296875,0.012641454908251762,-0.03995952381417155,0.021504925647750497
1733507099713390800,6.313390869140625,-0.005870353338122368,-0.031095103226602076,0.018456643993034958
1733507099723409000,6.323408935546875,0.017803952237963674,-0.024170856921374797,0.034555253617838025
1733507099733426000,6.333426025390625,0.02470364862382412,-0.01462196120098233,0.04026939348094165
1733507099743443700,6.343443603515625,0.004646949023008346,-0.023016426189243794,0.03132664696015417
1733507099753461000,6.3534609375,0.011953472644090652,-0.02276055173203349,0.017550342803075908
1733507099763478800,6.363478759765625,0.02806757209897041,-0.03969780413806438,0.03687185999713838
1733507099773495800,6.373495849609375,0.018470891714096067,-0.047922757778316734,0.024470424389839172
1733507099783513900,6.383513916015625,0.02788812387883663,-0.036031098324060436,0.02072495425119996
1733507099793531000,6.39353076171875,0.01877835022807121,-0.04039075483828783,0.03098112145811319
1733507099803548000,6.4035478515625,0.0175894327044487,-0.054461219636350866,0.013885609750449657
1733507099813565700,6.413565673828125,0.008631050223112106,-0.030441753884404895,0.015985943030565976
1733507099823583000,6.4235830078125,-0.004422492617368698,-0.032749738565832374,0.002929696776345372
1733507099833600800,6.433600830078125,0.004521861338615417,-0.003184621385484934,-0.03554704113416374
1733507099843617800,6.44361767578125,0.005350713378190994,0.00888356367945671,-0.03604914543740451
1733507099853635800,6.4536357421875,0.013369769182801246,-0.011789660384505986,-0.005105433380231261
1733507099863652600,6.463652587890625,0.010897826111316681,-0.07301014502272009,0.034142508098483085
1733507099873671000,6.4736708984375,0.018931494963169097,-0.07494535086899995,0.0532516977161169
1733507099883687700,6.483687744140625,0.024462825605273245,-0.07061915823295713,0.06093129243329167
1733507099893705700,6.493705810546875,-0.004084054443240165,-0.030906741047650572,0.026825755344331265
1733507099903722800,6.50372265625,-0.021228081467747687,-0.02332783022597432,0.004288271778449416
1733507099913740800,6.51374072265625,-0.022494740402698516,-0.015956424675136804,-0.00975172481611371
1733507099923757800,6.5237578125,0.005547697255015373,-0.029765169797092674,0.01572451561540365
1733507099933776000,6.53377587890625,0.028770167410373686,-0.029866730475425717,0.047501463626325124
1733507099943793000,6.54379296875,0.03924304610788822,-0.04957037885487079,0.053707259463891384
1733507099953809700,6.5538095703125,0.03323649916946888,-0.05528218063041568,0.06966127298623323
1733507099963828000,6.563827880859375,0.03368599650263786,-0.0488642764121294,0.06305076880529523
1733507099973844700,6.5738447265625,0.01260404550731182,-0.05348813682049513,0.03714183604493737
1733507099983862800,6.58386279296875,0.01248246495425701,-0.04991451611742377,0.0370570073056966
1733507099993879800,6.5938798828125,-0.010400982505083084,-0.054488692165166136,0.00876709769293666
1733507100003897900,6.60389794921875,0.008446925827860831,-0.03618672727718949,-0.0005121873058378696
1733507100013915000,6.613914794921875,0.010358312407135964,-0.011261252596229314,-0.027016894002258776
1733507100023933000,6.623932861328125,-0.003617605975270271,-0.004356295513361692,-0.031874636231735344
1733507100033950700,6.63395068359375,-0.004763853400945663,-0.008450725220143795,-0.017250117747485638
1733507100043968800,6.64396875,0.025356559574604032,0.0009644611179828644,-0.005337561635673046
1733507100053985500,6.653985595703125,0.023308979395031928,-0.019472323841601608,0.0026085019979625937
1733507100064003600,6.664003662109375,0.021740707165002822,-0.024684213270992038,0.01719203088469803
1733507100074020600,6.6740205078125,0.017944237491488456,-0.01581146324649453,0.022188012541085482
1733507100084038700,6.68403857421875,0.026257892328500745,-0.008885463375598191,0.003527662669494748
1733507100094055700,6.6940556640625,0.012276713249087332,-0.026124475207179785,0.029782632388547062
1733507100104073700,6.70407373046875,-0.006219312906265258,-0.02601210087388754,0.044280601883679625
1733507100114090800,6.7140908203125,-0.003032499563694,-0.03305105959996581,0.03678841949738562
1733507100124107500,6.724107421875,-0.002162146469950676,-0.05159487041980028,0.0601584814298898
1733507100134125800,6.734125732421875,-0.005896656823158264,-0.04222030835300684,0.059965077749639745
1733507100144142600,6.744142578125,0.023774843341112135,-0.05303966240063309,0.06419204779490828
1733507100154160600,6.75416064453125,0.03971183266341686,-0.07284589437171816,0.05091266030929982
1733507100164177700,6.764177734375,0.026525603353977203,-0.07199497663080692,0.042649128224328155
1733507100174195700,6.77419580078125,0.03294482274651527,-0.07491670929640531,0.037346418706327676
1733507100184212700,6.784212646484375,0.019337737676501272,-0.052025224661082024,0.03078304160274565
1733507100194230800,6.794230712890625,0.02619359492063522,-0.06296309052184224,0.05686367766819894
1733507100204247800,6.804247802734375,0.021513912671804428,-0.06271861424148083,0.0509489737316966
1733507100214265600,6.814265625,0.0026046295404434203,-0.04517535876631736,0.040823812493309374
1733507100224282600,6.82428271484375,0.0022504092752933503,-0.05969751285463571,0.041985842010006304
1733507100234300700,6.83430078125,0.015530162087082862,-0.07091857957094908,0.012741115890443324
1733507100244317700,6.844317626953125,0.014290391159057616,-0.06618453678637742,-0.000830824800953269
1733507100254335700,6.854335693359375,0.011887421670556068,-0.06797068955078721,0.002082943753898144
1733507100264352800,6.864352783203125,0.01566051046848297,-0.0620386691533029,-0.01144018935970962
1733507100274369800,6.874369873046875,0.019084639698266983,-0.050775370730459686,0.013875307552143931
1733507100284387600,6.8843876953125,0.014728782576322555,-0.05123728915378451,0.01620842667482793
1733507100294404900,6.89440478515625,0.008144143489003181,-0.058509325983375306,0.009786503868550062
1733507100304422700,6.904422607421875,0.013355156135559081,-0.054472471682727334,0.021717034028470514
1733507100314439700,6.914439697265625,-0.0040296939074993135,-0.04781096796691418,0.04411518218889832
1733507100324457700,6.924457763671875,0.0219943896651268,-0.04000292456448078,0.05090433087237179
1733507100334474800,6.934474853515625,0.012105448335409164,-0.04220438013151288,0.0652251171696931
1733507100344492800,6.944492919921875,0.007010755544900894,-0.038785949990153314,0.046011444264277813
1733507100354509600,6.954509521484375,0.007312368839979171,-0.031233342653512953,0.042635465025156735
1733507100364527600,6.964527587890625,-0.004056581914424896,-0.012738485541939735,0.031946970815584064
1733507100374544600,6.974544677734375,0.007920271605253219,-0.01626768258139491,0.0261738673068583
1733507100384562700,6.984562744140625,-0.0069172320425510405,-0.01792597118243575,0.02583374863229692
1733507100394579700,6.994579833984375,0.0018710545688867567,-0.012343641005456447,0.024911811481788754
1733507100404597800,7.00459765625,0.0012245733588933945,-0.01357420571371913,0.025096082007512448
1733507100414614800,7.01461474609375,-0.006029927814006805,-0.021653028881549834,0.020411285192146897
1733507100424632800,7.0246328125,0.006323942324519157,-0.01632467346563935,0.0176771840531379
1733507100434649600,7.034649658203125,0.009112696260213852,-0.011062515153735875,0.010268149905651808
1733507100444666600,7.04466650390625,0.0074216744333505625,0.004683335510641336,-0.012399682041630148
1733507100454684700,7.0546845703125,0.010058452677726745,-0.00492956535667181,-0.027457769637554884
1733507100464701700,7.06470166015625,0.011774608945846556,0.014627952550351618,-0.023377222325652838
1733507100474719700,7.0747197265625,0.00405249026119709,-0.0036165830619633195,-0.0003423836968839168
1733507100484736800,7.08473681640625,0.004826981765031814,-0.0334837519288063,0.02277114619128406
1733507100494754800,7.0947548828125,0.010236147332191466,-0.04809095395207405,0.038138299736380575
1733507100504771600,7.104771484375,-0.01528758550286293,-0.09107508628442883,0.05035539175271988
1733507100514789600,7.11478955078125,0.0028150574207305907,-0.06527282876893878,0.057826604416221374
1733507100524806700,7.124806640625,0.013812836775183676,-0.06592310937121511,0.06982727720290421
1733507100534824700,7.13482470703125,0.01709317362010479,-0.05193915381282568,0.0290740457277745
1733507100544841700,7.144841796875,0.023960136780142784,-0.08255684878602623,0.028654505141451955
1733507100554859500,7.154859619140625,0.03244797914028168,-0.08881927018165588,0.05935417930968105
1733507100564876800,7.164876708984375,0.03432137179672718,-0.062491235226392744,0.05260061339624226
1733507100574894600,7.17489453125,0.02750000134408474,-0.05183057887181639,0.05215791113004088
1733507100584911600,7.18491162109375,0.03886310687959194,-0.045020168204605575,0.036714550543576474
1733507100594929700,7.1949296875,0.005759878700971603,-0.04631386127695441,0.010135755697637796
1733507100604946700,7.20494677734375,-0.007613982135057449,-0.04300736707746982,-0.009045768503844738
1733507100614964700,7.21496484375,0.017316460981965064,-0.0345220089353621,-0.015286562589555977
1733507100624981800,7.224981689453125,0.006049217036366463,-0.025145547172427177,-0.024192776492238045
1733507100634998800,7.234998779296875,-0.0011748889982700348,-0.023161387617886064,-0.030960736257210374
1733507100645016600,7.2450166015625,0.005545359167456626,0.00003287935629487037,-0.030990181547403333
1733507100655033600,7.25503369140625,0.020502689802646634,0.005887012211978435,-0.027879429115727543
1733507100665051600,7.2650517578125,0.013918635237216948,0.01039089950248599,-0.005680383723974228
1733507100675068700,7.275068603515625,-0.0003267477363348007,0.0007353285372257233,-0.0011414981853216887
1733507100685086700,7.285086669921875,0.008579612296819687,-0.004608808969706297,0.008874503590166569
1733507100695103700,7.295103759765625,0.01703530595302582,0.010779314298182725,-0.009269494257122278
1733507100705121800,7.305121826171875,0.012322890478372574,-0.005764554876089096,0.004056216588243842
1733507100715138600,7.315138671875,0.0047989247143268585,-0.01692629262059927,0.0235052326194942
1733507100725156900,7.325156982421875,0.009113280782103538,-0.03681625735238194,0.028875162154808637
1733507100735173600,7.335173583984375,-0.001992635121941566,-0.02651318226382136,0.04276588647179305
1733507100745192000,7.34519189453125,0.003641571372747421,-0.02639247849360108,0.032563276083022355
1733507100755208700,7.355208740234375,0.009554594808816909,-0.023106150299310683,0.029584990924596783
1733507100765226500,7.3652265625,0.023727497068047523,-0.02848565138056874,0.030501375117152927
1733507100775243800,7.375243896484375,0.0015291092634201048,-0.030886428911983965,0.0423172659214586
1733507100785261600,7.385261474609375,0.010299860218167305,-0.05595569597780704,0.03428447385244071
1733507100795278800,7.39527880859375,0.012194295662641524,-0.03602890636697411,0.02178418098054826
1733507100805296600,7.405296630859375,0.025618425381183623,-0.0754303579069674,0.017175591206550597
1733507100815314000,7.41531396484375,0.019478022930026054,-0.06849661312103271,0.021539777765423058
1733507100825330700,7.42533056640625,0.011824293306469917,-0.06518193561509251,0.014522154088318346
1733507100835348500,7.435348388671875,0.011992635610699652,-0.0690595077008009,0.010163447422161697
1733507100845365800,7.44536572265625,0.021876900765299797,-0.07367781515121459,-0.007651829927414655
1733507100855383600,7.455383544921875,0.013545710271596907,-0.07493249138742684,-0.0067854223564267156
1733507100865400800,7.46540087890625,0.0007154547929763794,-0.071571490521729,0.010818404199555516
1733507100875418600,7.475418701171875,0.0024181670576334,-0.06272942789644002,0.000427796958014369
1733507100885435600,7.485435546875,0.020571663385629654,-0.05576587249413132,0.004550356780737638
1733507100895453700,7.49545361328125,0.0014753332495689392,-0.05763458897545933,0.027499709083139895
1733507100905470700,7.505470703125,0.008723989203572273,-0.07346402627006172,0.03266337545663118
1733507100915488800,7.51548876953125,0.03003448825776577,-0.05144859381690621,0.03188004305921495
1733507100925505500,7.525505615234375,0.016769933015108106,-0.032362054422497746,0.01970861681550741
1733507100935523800,7.53552392578125,0.013970657685399054,-0.03352437620013952,0.025995880391448734
1733507100945540600,7.54554052734375,0.008035422417521476,-0.027738632405549288,0.01982756702005863
1733507100955558700,7.55555859375,-0.0021072014123201368,-0.01559299819022417,0.024930443117022513
1733507100965575700,7.56557568359375,0.012425181809067725,-0.005475362671166658,0.014390271336957812
1733507100975593700,7.57559375,0.003939677536487579,-0.006435001483559608,-0.02044087661281228
1733507100985610800,7.58561083984375,0.008639233529567717,0.0014813245989382267,-0.004515212402120232
1733507100995628500,7.595628662109375,0.005378185907006263,-0.005143646498769521,-0.01943074972219765
1733507101005645800,7.605645751953125,0.009013912060856819,-0.0035796120524406432,-0.025103315465897322
1733507101015662600,7.61566259765625,0.012778817552328108,0.010209405455738306,-0.012740239107608794
1733507101025681000,7.625680908203125,0.015927052450180054,-0.009976765743643045,-0.007825944385305046
1733507101035696400,7.6356962890625,0.014441197806596756,-0.006305529884994029,0.0005912438914179802
1733507101045714400,7.64571435546875,-0.000678045392036438,-0.011744944459944963,0.010591025184467435
1733507101055731200,7.655731201171875,0.015325579425692558,-0.01699658137783408,0.005817746368050575
1733507101065749500,7.66574951171875,0.004233107525110244,0.00508490204885602,0.0016779431495815515
1733507101075766300,7.675766357421875,0.011546645408868789,-0.0025517303094267844,-0.017609306448698042
1733507101085784300,7.685784423828125,0.003867196822166443,-0.015410627360641955,0.006553659427165985
1733507101095801300,7.69580126953125,0.022542671197652814,-0.03668357088342309,0.0286899417810142
1733507101105819400,7.7058193359375,0.017726795348525046,-0.0533421524785459,0.036435514406487346
1733507101115836400,7.71583642578125,0.025937574332952497,-0.0544303861066699,0.06361541695073246
1733507101125854200,7.725854248046875,0.015308628290891647,-0.03623392741978168,0.07057780330926179
1733507101135871500,7.73587158203125,-0.006060322952270507,-0.05202054848596453,0.06687719522565602
1733507101145889300,7.74588916015625,-0.013792963030934333,-0.029681729297339914,0.04241882659979165
1733507101155906600,7.755906494140625,-0.013409516671299934,-0.0066455754943192,0.010876710258051753
1733507101165924400,7.76592431640625,0.01645487571656704,-0.023623013780266044,0.025507804613560437
1733507101175941400,7.77594140625,0.025038579666614533,-0.0417765101082623,0.03645173488892615
1733507101185959400,7.78595947265625,0.015354805520176887,-0.04591989352330565,0.04129603311493993
1733507101195976200,7.79597607421875,0.03169277685880661,-0.05685132964327931,0.04521291429772973
1733507101205993500,7.805993408203125,0.03321487185955047,-0.06923340296298265,0.0340933351945132
1733507101216011300,7.81601123046875,0.01945814918577671,-0.05738266004100442,0.03484634551890194
1733507101226028500,7.826028564453125,0.001505143865942955,-0.05886617659702897,0.02321837850213051
1733507101236046300,7.83604638671875,0.016021160474419593,-0.0639005175024271,0.016736688332632182
1733507101246063400,7.8460634765625,0.007929623955488204,-0.06836275760829448,0.006441504289582371
1733507101256081400,7.856081298828125,0.0004576806396245956,-0.0476551928833127,-0.028927988320589064
1733507101266098200,7.86609814453125,0.014672668474912642,-0.02952069351673126,-0.01752498916611075
1733507101276116500,7.876116455078125,0.031872809600830075,-0.035205315024405714,-0.00926708310432732
1733507101286133200,7.88613330078125,0.013165771043300628,-0.02761909767910838,0.017080606399476526
1733507101296151300,7.8961513671875,0.01958849756717682,-0.03338774420842528,0.0017861527644097803
1733507101306168300,7.906168212890625,0.015085340929031372,-0.026780747158825394,-0.0007629471965134143
1733507101316186400,7.916186279296875,0.01166296526491642,-0.021153262665867804,0.011066387611255049
1733507101326203400,7.926203369140625,0.020944588351249693,-0.007502922976016998,0.018816636411845684
1733507101336221400,7.936221435546875,0.015693828216195107,-0.032197511510550975,0.0204045631904155
1733507101346238500,7.946238525390625,0.011208207234740256,-0.019015958376228808,0.03663834350220859
1733507101356256300,7.95625634765625,0.006381809991598129,-0.025000878004729745,0.04057926314771175
1733507101366273300,7.966273193359375,0.007661328408122062,-0.019668284805119035,0.028275077369809148
1733507101376291300,7.976291259765625,0.0007376666247844696,-0.01808481500595808,0.04790719488300383
1733507101386308400,7.986308349609375,0.016590484794974325,-0.04023585653752088,0.023819997657090423
1733507101396326400,7.996326416015625,0.01990823104083538,-0.03366027753949165,0.017736439959704874
1733507101406343400,8.006343505859375,0.007673603367805481,-0.040135611033439635,0.03958119202107191
1733507101416360400,8.0163603515625,0.005581599524617195,-0.04164177781268954,0.043362683321163054
1733507101426378200,8.026378173828125,0.014087562063336372,-0.04004369496628642,0.03950425432734191
1733507101436395500,8.0363955078125,0.008951368218660355,-0.0401043391123414,0.03930785497240722
1733507101446413300,8.046413330078124,0.01715104128718376,-0.05177870255410671,0.05173983184844255
1733507101456430300,8.056430419921876,0.016063830572366714,-0.05909896243959665,0.03444134491458535
1733507101466448400,8.066448486328126,0.03712590782344341,-0.04980784087255597,0.03945946533754468
1733507101476465400,8.07646533203125,0.015883797830343247,-0.04834127545133233,0.03081321754530072
1733507101486483500,8.0864833984375,-0.0010474632263183592,-0.051081514070183034,0.02995915799923241
1733507101496500200,8.096500244140625,0.0025350714355707165,-0.05210574255138636,0.04499598361141979
1733507101506518300,8.106518310546875,0.005077157133817673,-0.03340279564708471,0.013541253292188048
1733507101516535300,8.116535400390624,-0.021444939088821408,-0.045306145539134736,0.0242296013712883
1733507101526553300,8.12655322265625,-0.008334113103151321,-0.0357156026341021,0.009370178152620793
1733507101536570400,8.1365703125,0.0019295067578554152,-0.0283219852514565,-0.005298325603827834
1733507101546588400,8.14658837890625,0.01475508606135845,-0.028439766412228343,-0.002564297530055046
1733507101556605400,8.15660546875,0.028639819028973577,-0.0224757434412837,0.02447999593578279
1733507101566623500,8.16662353515625,0.018885317733883855,-0.024039485626667738,0.018567337825894356
1733507101576640300,8.17664013671875,0.0064484454870223995,-0.016880992174148558,0.03265358471497893
1733507101586658600,8.186658447265625,0.012290157252550124,-0.01699278198555112,0.008730199748650193
1733507101596675300,8.19667529296875,-0.00014729951620101928,-0.01655979739576578,-0.008597294083982706
1733507101606693400,8.206693359375,-0.0019949732095003126,-0.011367197188735008,0.011516396401077508
1733507101616710400,8.21671044921875,-0.005059036955237389,-0.0008542787417769431,-0.0031804566670209167
1733507101626727400,8.2267275390625,0.001751227581501007,-0.013287789987772702,0.010123188477009534
1733507101636745500,8.236745361328126,0.017986907589435577,-0.03171308899447322,0.022359788911417124
1733507101646762500,8.246762451171875,0.029461656805872916,-0.05189326884448528,0.034324440536648036
1733507101656780500,8.256780517578125,0.03273030321300029,-0.04422960234880447,0.041567981924116607
1733507101666797300,8.26679736328125,0.023353987580537795,-0.06731178725063801,0.0546410331826657
1733507101676815400,8.2768154296875,0.017304770544171334,-0.0629676205664873,0.06844568665139376
1733507101686832400,8.286832275390625,-0.014348843348026274,-0.0399355584166944,0.048907531031966205
1733507101696850200,8.29685009765625,-0.007436872002482414,-0.02657879484593868,0.019440905790030955
1733507101706867500,8.306867431640624,-0.00010346037447452545,0.0018530805207788944,-0.0061416445601731534
1733507101716885200,8.31688525390625,-0.0039034371793270108,0.0009131693221628665,-0.023837533313781023
1733507101726902500,8.326902587890626,0.006499298891425132,-0.011603928554058075,-0.024755671072006224
1733507101736920300,8.33692041015625,0.014663900646567344,-0.03534837675690651,0.01871186086311936
1733507101746937300,8.346937255859375,0.01775485239923,-0.0806231042444706,0.027860139893367886
1733507101756955400,8.356955322265625,0.036032267367839814,-0.06102496206611394,0.03490136364176869
1733507101766972400,8.366972412109375,0.008138298270106314,-0.039324879172444344,0.007867518504709004
1733507101776990500,8.376990478515625,-0.020056115078926084,0.0010148761309683322,-0.043140784198790784
1733507101787007200,8.38700732421875,-0.03166179719865322,0.005864654249697923,-0.05034260533638298
1733507101797025500,8.397025634765624,-0.013354571613669394,-0.01658887735977769,-0.003417480293288827
1733507101807042300,8.407042236328126,0.017338672813773156,-0.03151975837945938,0.015290873438492416
1733507101817060400,8.417060302734376,0.019554010775685308,-0.035949557520449156,0.020973887510970235
1733507101827077400,8.427077392578125,0.024315526089072226,-0.05932093462720513,0.0320545959085226
1733507101837094400,8.437094482421875,0.03880757730007171,-0.06237301567420363,0.057480275196582074
1733507101847112400,8.447112548828125,0.026990298256278036,-0.06683788612857461,0.0652013709679246
1733507101857129200,8.457129150390625,0.021191256588697433,-0.06695771311596035,0.025808468060567972
1733507101867147500,8.4671474609375,0.018742109870910642,-0.06522475184351205,0.04258205433748662
1733507101877164300,8.477164306640624,0.004141337588429451,-0.04905366150438785,0.017326982375979422
1733507101887182600,8.4871826171875,0.007480711144208908,-0.04761500700339675,-0.011292232256382703
1733507101897199400,8.497199462890626,0.006761749219894409,-0.029361265171319244,-0.021524507131054995
1733507101907217200,8.507217041015625,0.01036883380115032,-0.026791268552839753,-0.01512340791709721
1733507101917234400,8.517234375,0.016460136413574217,-0.0076252341814339155,-0.014385887422785163
1733507101927252200,8.527252197265625,0.0011339724659919738,-0.0167496208794415,-0.029495486010238527
1733507101937269500,8.53726953125,0.009181669843196868,-0.002202916871756315,-0.038409298697486514
1733507101947287300,8.547287353515625,0.03069850512444973,-0.01173939150199294,-0.018710180362686513
1733507101957304600,8.5573046875,0.023061142113804816,-0.018758914875239133,0.005493117523565888
1733507101967322400,8.567322265625,0.022146365356445312,-0.01504720087572932,0.014344167172908782
1733507101977339400,8.57733935546875,0.011079612419009208,-0.008010434106737374,0.01447977625131607
1733507101987357400,8.587357421875,0.0010188216537237167,-0.01263604808077216,0.019557152580842375
1733507101997374200,8.597374267578125,-0.00892974090874195,-0.006533493421971797,0.0003616729192435741
1733507102007392500,8.607392578125,0.0006996727019548416,-0.008764028953015804,0.020111790788918733
1733507102017409300,8.6174091796875,0.011375965017080306,-0.015527093347162008,0.03736044723168015
1733507102027427300,8.62742724609375,-0.007836684975028037,-0.026715865229070185,0.05049816122427583
1733507102037444600,8.637444580078125,0.018325930285453797,-0.056135874850302935,0.06195756674110889
1733507102047462400,8.64746240234375,0.04136602961122989,-0.05921557455658912,0.06067052260525524
1733507102057479700,8.657479736328124,0.019230185648798942,-0.056093935404717916,0.06062113050557673
1733507102067497500,8.66749755859375,0.014317863687872886,-0.04305222913250327,0.04202785452082753
1733507102077514800,8.6775146484375,0.005336684852838516,-0.026907880669832226,0.04388962980471551
1733507102087531500,8.687531494140625,0.018663783937692642,-0.03396598248779774,0.012828501912951469
1733507102097549600,8.697549560546875,-0.006184241592884063,-0.04369286512359977,0.012699395640566944
1733507102107566600,8.707566650390625,-0.006042202773690223,-0.03458791377842426,0.020617329158261418
1733507102117584400,8.71758447265625,-0.003194412127137184,-0.05910086213573813,0.01264934595376253
1733507102127601700,8.7276015625,0.002362052956223488,-0.04034545439183712,0.008248626776784658
1733507102137619500,8.737619384765624,0.01542436362504959,-0.04728314470052719,0.005317176434770226
1733507102147636700,8.74763671875,0.018203765210509298,-0.05311550411581993,0.021216391029953954
1733507102157654500,8.757654541015626,0.003760813838243484,-0.05947291031852364,0.012667320001870394
1733507102167671800,8.767671875,0.0035100539475679394,-0.04392798905372619,-0.013471183730661869
1733507102177689600,8.777689697265625,0.008358663022518158,-0.02904401591569185,-0.009330869055539369
1733507102187706400,8.787706298828125,0.002233458140492439,-0.02291851877272129,0.0027568974927067755
1733507102197724700,8.797724609375,0.0023708207845687863,-0.01354147248789668,0.001429156020283699
1733507102207741400,8.807741455078125,0.004465747237205505,-0.01454465818107128,0.0028572160620242357
1733507102217759500,8.817759521484374,0.011924831071496009,-0.004483136763423681,0.003351794645935297
1733507102227776500,8.827776611328124,0.012364976054430007,-0.006370265684276819,0.019048545471578835
1733507102237794600,8.837794677734376,0.009662731358408927,0.0009102467127144337,0.0029743396356701848
1733507102247811600,8.8478115234375,0.00291617970764637,-0.009221271201223135,0.003172930947691202
1733507102257829600,8.85782958984375,0.012467851907014845,-0.017841946160793303,-0.014717822790890931
1733507102267846700,8.8678466796875,-0.007768295913934707,-0.01766249794065952,-0.01334434248059988
1733507102277864400,8.877864501953125,0.011955810731649398,-0.020974983489513398,-0.013473375687748193
1733507102287881700,8.8878818359375,0.005331424155831337,-0.036339579751342534,0.008664514101296662
1733507102297899500,8.8978994140625,0.0034703064590692516,-0.05080883460864424,0.008283186633512378
1733507102307916500,8.90791650390625,-0.0019610709398984907,-0.06979176749810576,0.04945120945461094
1733507102317933600,8.91793359375,0.018988778108358383,-0.06712897802963852,0.03367437913008034
1733507102327951600,8.92795166015625,0.017512860336899756,-0.029775252799689768,0.03472629933580756
1733507102337968600,8.93796875,0.0013695347875356673,-0.025743659196048974,0.03388363796658814
1733507102347986400,8.947986328125,0.007642623707652092,-0.018594664224237202,-0.00826397047638893
1733507102358003700,8.958003662109375,0.006836568021774292,0.00013546294793486595,0.0056089259229600424
1733507102368021500,8.968021484375,0.012608721682429313,-0.03491933768987655,0.019415186826884746
1733507102378038500,8.97803857421875,0.027819150295853613,-0.056811874415725466,0.04577412837706506
1733507102388056600,8.988056640625,0.019711247164011,-0.03590893324911594,0.05274776678197086
1733507102398073600,8.998073486328124,-0.0028647417813539504,-0.026519465874135492,0.01834931116104126
1733507102408091600,9.008091552734374,-0.032760698351263995,-0.02765036960020661,-0.011792875254899263
1733507102418108400,9.0181083984375,-0.0099514851719141,-0.002716565482318401,-0.057418827332928773
1733507102428126500,9.02812646484375,-0.004494973331689835,-0.020083441477268933,-0.03641863633692265
1733507102438143500,9.0381435546875,0.025178280398249625,-0.043881227302551264,-0.011116437298059462
1733507102448161500,9.04816162109375,0.03673603172302246,-0.04614157344996929,0.014794614354148507
1733507102458178600,9.058178466796875,0.03748129713237285,-0.052501171609759326,0.00009513093754649162
1733507102468196600,9.068196533203125,0.03266425223946571,-0.05208689172044396,0.015184344324097036
1733507102478213600,9.078213623046874,0.0032920272827148436,-0.059468672534823415,0.022697204172238705
1733507102488231700,9.088231689453124,-0.0037660745352506636,-0.06079524496346712,0.01294138770289719
1733507102498248700,9.098248779296876,0.01984334911108017,-0.046792876965552566,0.013533654507622122
1733507102508266800,9.108266845703126,0.02344575751721859,-0.05007292154952883,0.033465339489281175
1733507102518283500,9.118283447265625,0.018389058649539946,-0.035243455077707764,0.021368805112689734
1733507102528301600,9.128301513671875,0.017373159605264664,-0.036421705076843496,-0.00044774376749992365
1733507102538318600,9.138318603515625,0.004523614904284477,-0.029224633179605004,0.006586611848697066
1733507102548336400,9.14833642578125,0.000030979660153388974,-0.02289557628855109,0.0007828209407627582
1733507102558353700,9.158353759765625,0.0046510406762361525,-0.012360299879312515,0.010067001310363411
1733507102568371500,9.168371337890624,0.0032739071041345594,-0.010078910943865775,-0.009880246566608547
1733507102578388700,9.178388671875,0.026558921101689337,-0.011924831071496009,-0.008720409006997942
1733507102588406500,9.188406494140626,0.018999884024262427,-0.020159721583873032,-0.004581117245182394
1733507102598423600,9.198423583984376,0.0032528643161058423,-0.022231997813284395,0.0020071751039475202
1733507102608440600,9.208440673828125,0.016381810480356217,-0.024824206263571975,0.012436068529263138
1733507102618458600,9.218458740234375,0.014233692535758017,-0.0328336174570024,0.020203122334182262
1733507102628475600,9.2284755859375,0.01087912141084671,-0.040556320663541555,0.032312735388055444
1733507102638493400,9.238493408203125,0.0012386018842458725,-0.02816357981935143,0.030903453112021088
1733507102648510500,9.248510498046874,0.019175240591168402,-0.028182722911238668,0.03611899580322206
1733507102658528500,9.258528564453124,0.02082709945142269,-0.030903526177257296,0.0330098508067429
1733507102668545500,9.268545654296876,0.01153612401485443,-0.0497007272362709,0.02305434704683721
1733507102678563600,9.2785634765625,0.019905308431386947,-0.06386676136329769,0.02809402171447873
1733507102688580600,9.28858056640625,0.008788286611437797,-0.04417231920361519,0.019117592119798063
1733507102698598700,9.2985986328125,0.01699731203019619,-0.03823562263101339,0.02709726576209068
1733507102708615400,9.308615478515625,0.01636544386744499,-0.040985651991516346,0.026524799636378882
1733507102718633700,9.3186337890625,0.0018266309052705765,-0.03002572042942047,0.016240502313524485
1733507102728650500,9.328650390625,0.010180033230781555,-0.023412439769506452,0.01682509726844728
1733507102738668800,9.338668701171875,0.008192658805847167,-0.012392010191828012,-0.0004913637135177851
1733507102748685600,9.348685546875,0.007684124761819839,-0.02029883779361844,0.017410934332385657
1733507102758703400,9.358703369140626,0.011817863565683364,-0.035100101084262134,0.017849179619178174
1733507102768720600,9.368720703125,0.01822889965176582,-0.04651625198125839,0.02805427422598004
1733507102778738400,9.378738525390625,0.017934885141253472,-0.06567834082990884,0.030361016798391937
1733507102788755700,9.388755615234375,0.0013584288716316222,-0.06741466310322285,0.017479177263006566
1733507102798773500,9.3987734375,0.012613982379436492,-0.04039221614301204,0.012269479790702462
1733507102808790800,9.408790771484375,0.007252163085341453,-0.04687368711680174,-0.004986337045207619
1733507102818808600,9.41880859375,0.025223288583755492,-0.04502762085869908,0.001154503797367215
1733507102828825600,9.42882568359375,0.021650106272101403,-0.02210544882416725,0.0002585778709501028
1733507102838843600,9.43884375,0.028556232398748396,0.004837503159046173,0.005374313449487089
1733507102848860400,9.4488603515625,0.009247136294841765,0.007598346174508333,0.004223170652985573
1733507102858877700,9.458877685546875,0.006833060890436172,-0.011611088947206735,-0.0017035159822553396
1733507102868895500,9.4688955078125,0.012491817304491996,-0.020186463460326192,-0.011909122045710683
1733507102878912800,9.478912841796875,0.001101239240169525,-0.01277180328965187,0.0008693301804363727
1733507102888930600,9.4889306640625,0.006477671581506729,-0.014170418041199445,-0.01031637296155095
1733507102898947600,9.498947509765625,0.002738485053181648,-0.013642156383395195,-0.004886602997779846
1733507102908965600,9.508965576171875,0.013942016112804411,-0.020977613838016985,-0.013102277353033423
1733507102918982400,9.518982421875,0.01421440331339836,-0.015110767631232737,-0.012830255478620529
1733507102929000700,9.529000732421874,0.0134065940618515,-0.0069070029094815254,-0.020160963692888615
1733507102939017500,9.539017578125,0.007939560827612876,-0.029327362901717422,-0.00028700024783611294
1733507102949035500,9.549035400390625,0.027590017715096473,-0.04759162612780928,0.015162059427052735
1733507102959052500,9.559052490234375,0.027362054178118704,-0.04593582174479961,0.03398096086122095
1733507102969070600,9.569070556640625,0.0212099612891674,-0.05078443081974983,0.054721843333914874
1733507102979087600,9.579087646484375,0.013426467806100845,-0.03503229654505849,0.05295147266052663
1733507102989105400,9.58910546875,0.01132744970023632,-0.017069938874989747,0.02699687412753701
1733507102999122700,9.599122802734374,0.023117256215214727,-0.006180734461545944,-0.0021221067205071447
1733507103009140500,9.609140380859374,0.01184767418205738,-0.009769991125166416,-0.0005495236415416002
1733507103019157800,9.61915771484375,-0.006914893954992294,-0.035167174971103665,0.01904452688358724
1733507103029175600,9.629175537109376,0.006025836160778999,-0.030690614078938958,0.04123582736030221
1733507103039192600,9.639192626953125,0.01629354767501354,-0.037951837253570556,0.033073782888427376
1733507103049210600,9.649210693359375,0.017159224593639374,-0.04634498706758022,0.02867109095007181
1733507103059227400,9.659227294921875,-0.012428104418516158,-0.03205781077891588,-0.022549539329856632
1733507103069245700,9.66924560546875,-0.021194179198145865,-0.011089841552078723,-0.04992584122903645
1733507103079262500,9.679262451171875,0.010616671082377432,-0.015988719509541987,-0.0369651643037796
1733507103089280500,9.689280517578124,0.012768880680203437,-0.041419951755553484,-0.0002444762803614139
1733507103099297500,9.699297607421874,0.027329905474185942,-0.07152282907441258,0.020399813950061796
1733507103109315600,9.709315673828126,0.03993044385015964,-0.04247311407029628,0.025206483579427
1733507103119332600,9.71933251953125,0.027072131320834157,-0.0314537074059248,0.03571567569933831
1733507103129350700,9.7293505859375,0.00804652833342552,-0.03280453749299049,0.023564488526061175
1733507103139367700,9.73936767578125,-0.015910101315379142,-0.04990896315947175,0.01876578300744295
1733507103149385700,9.7493857421875,-0.0018225392520427703,-0.0490843489035964,0.002756970557942986
1733507103159402500,9.759402587890625,0.010915361768007278,-0.03407046577557921,0.011336436724290251
1733507103169420500,9.769420654296875,0.014388590836524962,-0.04389993200302124,-0.01266169397868216
1733507103179437600,9.7794375,0.027600539109110832,-0.04396218358427286,-0.035205315024405714
1733507103189455600,9.78945556640625,0.008186229065060615,-0.041227644053846595,-0.027090689890831708
1733507103199472600,9.79947265625,0.01613163511157036,-0.02435322775095701,-0.0009175532363355159
1733507103209489700,9.80948974609375,0.014307926815748214,-0.013410831845551729,-0.02445807636491954
1733507103219507500,9.819507568359375,0.013664952737092971,-0.0176589908093214,-0.021760361713543532
1733507103229524700,9.829524658203125,0.01269990709722042,-0.03242810539603233,-0.040868893744051456
1733507103239542500,9.83954248046875,0.026555413970351216,-0.006632423751801252,-0.0006054916124790907
1733507103249559600,9.8495595703125,0.012444471031427382,-0.018568506869673727,0.01200388765707612
1733507103259577600,9.85957763671875,-0.0001537292569875717,-0.017604191882163285,0.004564823697507381
1733507103269594600,9.8695947265625,0.006565934386849403,-0.021040303810685872,0.011276304034888744
1733507103279612400,9.8796123046875,0.009989479094743728,-0.03354731868430972,0.03225231043770909
1733507103289629400,9.88962939453125,0.0011398176848888397,-0.02869417956471443,0.046748599432408805
1733507103299647500,9.8996474609375,0.005453004708886146,-0.014134031553566455,0.04272160893864929
1733507103309664500,9.90966455078125,0.014406711015105246,-0.021783669523894787,0.025433497268334028
1733507103319682600,9.9196826171875,0.004814122283458709,-0.017504969291388988,0.02612849379517138
1733507103329699600,9.929699462890625,0.018703531426191328,-0.04824848260134458,0.03879084536097944
1733507103339717600,9.939717529296875,0.018224807998538015,-0.04310381318926811,0.024268252881243825
1733507103349734700,9.949734619140624,0.023299042522907255,-0.03998363534212112,0.03780987149961292
1733507103359752700,9.959752685546874,0.033925065955519675,-0.04418094090148806,0.026455095401033756
1733507103369769500,9.96976953125,0.02374970889985561,-0.0666271659873426,0.02198138405308127
1733507103379787800,9.979787841796876,-0.0051005380094051355,-0.059318888800591225,0.025955256120115518
1733507103389804500,9.989804443359375,0.0047691140979528425,-0.04094473545923829,0.013103300266340373
1733507103399822600,9.999822509765625,0.014489128601551056,-0.02358253563940525,0.006599690525978803
1733507103409839600,10.009839599609375,0.0035240824729204177,-0.026303631166368722,-0.010336465901508926
1733507103419857400,10.019857421875,0.01051613331735134,-0.025970307558774948,0.010711582824215292
1733507103429874700,10.029874755859375,0.009873159238696097,-0.03827726981565356,-0.00657543286755681
1733507103439892500,10.039892578125,0.008937339693307875,-0.03665200670138001,-0.0057882280126214025
1733507103449909800,10.04990966796875,0.007852467066049576,-0.03252294407263398,-0.005241992306709289
1733507103459927600,10.059927490234376,0.02232639809846878,-0.055762365362793206,-0.006036065293848514
1733507103469944600,10.069944580078126,0.004317278677225113,-0.04186068126037717,0.009076309772580862
1733507103479962600,10.079962646484375,-0.0033434652090072628,-0.038205665884166955,0.014946590045467018
1733507103489979400,10.0899794921875,0.021308745488524437,-0.025003508353233336,0.008958455546572803
1733507103499997700,10.099997802734375,0.006299976927042007,-0.005293430233001709,0.011255991899222134
1733507103510014500,10.110014404296875,0.006099485918879509,-0.013445026376098394,0.009362360172346235
1733507103520032800,10.12003271484375,-0.0021907880425453183,-0.010947072080522775,0.005145984586328267
1733507103530049500,10.130049560546874,0.004634674063324928,-0.011432809770852327,-0.002307765485718846
1733507103540067600,10.140067626953124,0.01967909846007824,-0.017287673278898,-0.0018171324245631693
1733507103550084600,10.150084716796876,0.00822305394411087,-0.022954612999409436,0.01156366960890591
1733507103560102400,10.160102294921876,0.0005225625693798065,-0.01472220670506358,-0.004216813977435231
1733507103570119700,10.17011962890625,-0.004440028274059296,-0.01618877212628722,0.0029901217266917225
1733507103580137500,10.180137451171875,0.012447978162765503,-0.015103461107611656,-0.0011040157191455364
1733507103590154800,10.19015478515625,0.017804536759853364,-0.003913081790506839,-0.004250204790383577
1733507103600172500,10.200172607421875,0.0135591542750597,-0.02224924120903015,0.0003828618377447128
1733507103610189600,10.210189453125,0.00888531724512577,-0.023350188188254833,0.021219825096055862
1733507103620207600,10.22020751953125,0.012711013013124465,-0.03609890286326408,0.04076769839189946
1733507103630224400,10.230224365234376,0.00964694926738739,-0.043835926856100556,0.027602877196669578
1733507103640242700,10.24024267578125,-0.005844049853086471,-0.03275646056756377,-0.0158254187066108
1733507103650259500,10.250259521484375,0.012184358790516853,-0.008250964864343404,-0.0175806648761034
1733507103660277500,10.260277587890625,0.021522680500149726,-0.009597118776291609,-0.030034122931584716
1733507103670294500,10.27029443359375,0.0018459201276302337,-0.035558950767666096,-0.03405541433691978
1733507103680312600,10.2803125,0.0015969138026237486,-0.04857406129390001,-0.005208893754705787
1733507103690329600,10.29032958984375,0.021889175724983213,-0.06049786945208907,0.00679740505516529
1733507103700347600,10.30034765625,0.014812369206547736,-0.07348916071131825,0.017745280853286385
1733507103710364700,10.31036474609375,-0.005721884778141975,-0.048431437952816486,0.01587912165522575
1733507103720382700,10.3203828125,-0.014252397236227989,-0.015428163017332554,-0.00421133408471942
1733507103730399500,10.3303994140625,-0.016898527830839154,-0.013870558311790227,-0.02036722685471177
1733507103740417500,10.34041748046875,-0.004560439783334732,-0.03673953885436058,0.0015391922660171985
1733507103750434600,10.3504345703125,0.02063011557459831,-0.04462649271190166,0.021195055980980395
1733507103760452600,10.36045263671875,0.02828852137327194,-0.04703881455063819,0.055339975232258434
1733507103770469600,10.3704697265625,0.02380991465449333,-0.03630801556929946,0.05644647516943514
1733507103780486700,10.380486572265625,0.0294710091561079,-0.03479147352650761,0.05134294148534536
1733507103790504400,10.39050439453125,0.0038239422023296356,-0.03951178004667163,0.02071333687864244
1733507103800522500,10.4005224609375,-0.007138765838742255,-0.02346387769579887,0.0043717122782021755
1733507103810539500,10.41053955078125,0.005368249034881592,-0.0077519293010234825,-0.023140856286510823
1733507103820556500,10.420556640625,-0.01188859071433544,-0.020918723257631062,-0.02919906034693122
1733507103830574600,10.43057470703125,-0.0002858312040567398,-0.031389994519948956,-0.040160745474696155
1733507103840591600,10.440591552734375,0.014201543831825255,-0.03002674334272742,-0.024774302707239983
1733507103850609700,10.450609619140625,0.018659692284464836,-0.024796587604284284,-0.02967690699175
1733507103860626400,10.46062646484375,0.013700024050474166,-0.018455694144964216,-0.018301307300850746
1733507103870644500,10.47064453125,0.030444238102436065,-0.011016630185395478,-0.02633811795786023
1733507103880661500,10.48066162109375,0.00992401264309883,-0.021147709707915782,-0.007313245622813701
1733507103890679600,10.490679443359374,0.012907412368059158,-0.010852671795338392,-0.01416997964978218
1733507103900696600,10.500696533203126,0.01708791292309761,-0.019871260031312704,0.00768507460989058
1733507103910714600,10.510714599609376,-0.0020925883650779725,-0.028577129056304693,0.002547419460490346
1733507103920731600,10.520731689453125,-0.0066296472728252405,-0.04178922345936298,0.02221745783127844
1733507103930749700,10.530749755859375,-0.01160977377295494,-0.03582826922833919,0.03300517463162541
1733507103940766500,10.540766357421875,0.009310264658927916,-0.0489959399677813,0.04607917573824524
1733507103950784800,10.55078466796875,0.006150923845171928,-0.045194209597259755,0.04970971426032483
1733507103960801500,10.560801513671874,0.026839491608738896,-0.057026393949240445,0.030023309276625512
1733507103970819600,10.570819580078124,0.020296353575587272,-0.056313715635240076,0.021099121325835583
1733507103980836600,10.580836669921876,0.009839256969094276,-0.05434592269361019,0.025281229316070675
1733507103990854400,10.5908544921875,0.005370002600550651,-0.05512377519831061,0.02312127480320632
1733507104000871700,10.60087158203125,0.004164133942127227,-0.043415217225998635,0.0030156945593655107
1733507104010889500,10.610889404296875,0.01851999155282974,-0.047777357958257195,-0.0025306144561618566
1733507104020906800,10.62090673828125,0.00369651643037796,-0.02665770530104637,-0.00591053921803832
1733507104030924500,10.630924560546875,0.01876782883405685,-0.038226416411250824,-0.02782594536282122
1733507104040942000,10.640942138671875,0.021582886254787444,-0.02253434176072478,0.0022872341543436047
1733507104050960000,10.6509599609375,0.00034136078357696533,-0.036515374709665774,-0.0034035248331725594
1733507104060977000,10.660976806640624,0.006804419317841529,-0.020630553966015576,-0.04121836476884782
1733507104070995000,10.670994873046874,0.02205751802921295,-0.004195844254642725,-0.00965140624679625
1733507104081011700,10.68101171875,-0.0008417115211486816,-0.009475976614654064,0.017908654721453785
1733507104091029800,10.69102978515625,-0.012689385703206062,0.002044365309178829,0.006936302069202065
1733507104101046800,10.701046875,-0.00883563288450241,0.009937748907506466,0.020894027207791804
1733507104111064800,10.71106494140625,0.0001052139401435852,-0.00365033920109272,0.02209726551771164
1733507104121081900,10.721081787109375,-0.002740238618850708,0.004052198000252247,0.004440612795948982
1733507104131100000,10.731099853515625,0.007732055556774139,-0.001116144548356533,0.021984233597293495
1733507104141117000,10.741116943359375,0.0009849193841218948,-0.022191227411478758,0.016160934271290898
1733507104151135000,10.751135009765624,-0.024644611912965773,0.0015536591827869414,0.01764350097924471
1733507104161152000,10.761152099609374,0.0034592005431652068,-0.006413081912696361,0.0083339669726789
1733507104171169800,10.771169677734376,0.039347675526142115,-0.000848579653352499,0.0056108986843377345
1733507104181186800,10.781186767578125,0.014779635980725287,-0.0025783260554075238,-0.008446998893097043
1733507104191204900,10.791204833984375,0.008636310920119286,-0.012230536019802092,-0.022654534074291587
1733507104201222000,10.801221923828125,0.0006996727019548416,-0.010029080452769994,-0.03228365542404353
1733507104211240000,10.811239990234375,0.0008358663022518157,-0.025167028351873157,-0.03133161539621651
1733507104221257000,10.821257080078125,0.019524200159311292,-0.021835838102549313,-0.0483876718763262
1733507104231274800,10.831274658203125,-0.004425999748706817,-0.032848376634716986,-0.028758550037816164
1733507104241291800,10.841291748046874,0.012180267137289046,-0.026349223873764274,-0.019830489629507064
1733507104251309800,10.851309814453124,0.015460019460320471,-0.025948826379328965,-0.023078239379078148
1733507104261326800,10.861326904296876,0.001661211210489273,-0.021621172438561913,-0.00229475987367332
1733507104271345000,10.871344970703126,-0.0124175830245018,-0.03231909206360578,-0.01222490999661386
1733507104281362000,10.88136181640625,0.004601940837502479,-0.0172822664514184,-0.028543738243356345
1733507104291380000,10.8913798828125,-0.015488076511025428,-0.00623012656122446,-0.05191007384881377
1733507104301396700,10.901396728515625,0.010226210460066795,-0.03151084442064166,-0.05866042489185929
1733507104311415000,10.9114150390625,0.009420739296078682,-0.020008184283971785,-0.03091265933178365
1733507104321431800,10.921431884765624,0.012065700846910476,-0.04079612076878547,0.003160948248952627
1733507104331449900,10.931449951171874,0.02808276966810226,-0.05286021418049931,0.02730294440202415
1733507104341467000,10.941466796875,0.007150456276535987,-0.047489042536169285,0.02480257895365357
1733507104351484700,10.951484619140626,-0.007595861956477165,-0.030609219405800102,0.019809885232895612
1733507104361502000,10.961501953125,-0.0214192201256752,-0.010634937391430139,-0.009351911843568086
1733507104371519700,10.971519775390625,-0.03464636596739292,-0.003960281933099032,-0.020733502883836626
1733507104381537000,10.981537109375,-0.004639934760332107,-0.0030859833166003224,-0.012139496735483406
1733507104391554800,10.991554931640625,0.008913374295830726,-0.0005979658931493759,0.009224851397797464
1733507104401571800,11.00157177734375,0.029141923332214353,-0.01805135112777352,0.04064809060022235
1733507104411590000,11.01158984375,0.03709843529462814,-0.019685820461809635,0.02991495353132486
1733507104421606700,11.021606689453124,0.014227847316861152,-0.03053907677903771,0.010450228474289178
1733507104431625000,11.031625,0.022193711629509925,-0.031245179221779107,-0.002643427180871367
1733507104441641700,11.041641845703126,0.019982465320825576,-0.031405630480498076,-0.013780541940778494
1733507104451660000,11.051659912109375,0.006559504646062851,-0.03262640444710851,-0.02656535084247589
1733507104461676800,11.0616767578125,0.0036000703185796734,-0.01978738114014268,-0.018546368103101847
1733507104471694800,11.07169482421875,0.0018231237739324568,-0.019188684594631192,-0.021436828847602007
1733507104481711900,11.0817119140625,-0.003859598037600517,-0.02504661684259772,-0.034600846325233574
1733507104491730000,11.09172998046875,0.011234510719776153,-0.012389672104269266,-0.01882971508912742
1733507104501747000,11.101746826171874,0.006442600268125534,-0.006268851136416197,0.008779007326439022
1733507104511764700,11.1117646484375,0.004642857369780541,-0.02491086163371801,-0.0002708528306335211
1733507104521782000,11.121781982421876,0.01855798547565937,-0.027839024040102956,0.0046431496307253834
1733507104531799800,11.1317998046875,0.040566403666138645,-0.01191957037448883,0.02662650644518435
1733507104541816800,11.14181689453125,0.034164719930291174,-0.019729951864480972,0.03570720013193786
1733507104551835000,11.1518349609375,0.01744388675391674,-0.03558335455656052,0.031472412106394766
1733507104561852000,11.161851806640625,0.010878536888957024,-0.028888094701617954,0.023120178824663162
1733507104571870000,11.171869873046875,-0.009022095367312431,-0.044486207458376885,0.011080489201843739
1733507104581886700,11.18188671875,-0.012028291445970535,-0.03498231992349028,0.00892170373275876
1733507104591904800,11.19190478515625,-0.008161679145693778,-0.02848272877112031,0.014989844665303825
1733507104601921800,11.201921875,-0.011959902384877204,-0.037481443262845276,0.0064990796957165
1733507104611939800,11.21193994140625,0.00835807850062847,-0.036465105827152726,0.013299553490802645
1733507104621956900,11.221956787109375,0.024982465565204618,-0.03653802493289113,0.010662629115954041
1733507104631974000,11.231973876953125,0.03833411456942558,-0.04461217192560434,0.01578209102153778
1733507104641992000,11.241991943359375,0.03821253401637077,-0.04069061456769705,0.010251271836087107
1733507104652008700,11.2520087890625,0.010270634123682976,-0.03882452843487263,-0.001602174499630928
1733507104662027000,11.262027099609375,-0.0003314239114522934,-0.025670447829365728,0.015290946503728628
1733507104672043800,11.272043701171874,0.0017693477600812912,-0.021982845357805487,0.006295885273814201
1733507104682061800,11.282061767578124,0.006547229686379432,-0.026463059511780736,-0.003554550676420331
1733507104692078800,11.292078857421876,-0.009348843103647232,-0.019111235444247723,-0.005346110268309712
1733507104702097000,11.302096923828126,-0.005647650498151779,-0.017882570432126522,-0.0004526391383260488
1733507104712114000,11.312114013671875,-0.00253624047935009,-0.016746698269993067,-0.006108984399586915
1733507104722132000,11.322132080078125,-0.0013438158243894577,-0.01499108677431941,0.013187471418455242
1733507104732149000,11.33214892578125,0.007336334237456321,-0.01754968521595001,0.0011881138060241938
1733507104742166800,11.342166748046875,0.006873977422714233,-0.012784078249335288,0.005734671194478869
1733507104752183800,11.352183837890625,0.0167658413618803,-0.00873626416325569,0.005363499794527888
1733507104762201900,11.362201904296874,0.004479775762557983,0.00017287234887480735,0.0009440759170800447
1733507104772219000,11.372218994140624,0.0026437925070524216,-0.003295972805470228,0.0015128887809813022
1733507104782237000,11.38223681640625,0.0066617959767580025,-0.007730740382522344,0.0005474778149276971
1733507104792254000,11.39225390625,0.0018418284744024275,-0.023494126703590152,0.0163074300698936
1733507104802271700,11.402271728515625,0.019019173246622084,-0.026513474524766205,-0.010668401269614696
1733507104812288800,11.412288818359375,0.00400280590057373,-0.04080737281516194,-0.002899520833790302
1733507104822306800,11.422306884765625,-0.01144727668762207,-0.026539339618384835,-0.0028841040689498183
1733507104832323800,11.43232373046875,-0.005473462975025177,-0.03370806220397353,0.003251329946145415
1733507104842342000,11.442341796875,0.0009685527712106704,-0.029721915177255868,0.006377718338370323
1733507104852359000,11.45235888671875,0.005469371321797371,-0.029809593460708855,-0.004277531188726425
1733507104862377000,11.462376953125,0.01533551629781723,-0.024966829604655502,-0.021516323824599386
1733507104872393700,11.472393798828126,0.010501520270109177,-0.046433980525285,-0.03454071363583207
1733507104882412000,11.482412109375,0.008508300626277924,-0.05567059542611241,-0.03586092938892543
1733507104892428800,11.4924287109375,0.02115209362208843,-0.060300739444792265,-0.029985607614740728
1733507104902446800,11.50244677734375,0.017054010653495787,-0.06547302751615643,0.0102080172162503
1733507104912464000,11.5124638671875,0.03182721689343452,-0.06352978449389338,-0.00785122495703399
1733507104922481700,11.522481689453125,0.030799627411365507,-0.04980550278499722,0.0037220161978155373
1733507104932499000,11.5324990234375,0.027227029621601104,-0.025373656839877367,-0.00580225653797388
1733507104942516700,11.542516845703124,-0.01613280415534973,0.0006511573851108551,-0.03152808781638741
1733507104952534000,11.552533935546874,-0.022568390160799024,0.01163008590862155,-0.0203424577396363
1733507104962551800,11.5625517578125,-0.02468786653280258,0.015366495957970619,0.00042078269533813
1733507104972568800,11.57256884765625,-0.022207155632972715,-0.019468232188373805,0.05527772365100681
1733507104982587000,11.5825869140625,0.0017068039178848265,-0.02885828408524394,0.06634630321934819
1733507104992604000,11.59260400390625,0.015789105284214018,-0.013674012826383112,0.06953859645463525
1733507105002622000,11.6026220703125,0.014800094246864319,-0.019093553657084702,0.04208747575357556
1733507105012638700,11.612638671875,-0.007414075648784637,0.005569032303988934,-0.004633651150017976
1733507105022657000,11.622656982421875,-0.02344868012666702,0.02108516586571932,0.00399571857266128
1733507105032673800,11.632673828125,-0.011040449452400207,0.0021998481318354604,0.00010609072297811507
1733507105042691600,11.642691650390624,0.004335398855805397,-0.005363134468346834,0.012551073211058974
1733507105052708600,11.65270849609375,0.011861702707409858,0.001986643772572279,0.019918898565322158
1733507105062726700,11.6627265625,0.01828910540640354,-0.011800181778520345,0.012883520035818219
1733507105072743700,11.67274365234375,0.028263971453905103,-0.022087474776059386,0.01254106327369809
1733507105082761700,11.68276171875,0.02925356701314449,-0.042703707955777645,0.03497676696553826
1733507105092778800,11.69277880859375,0.024313772523403165,-0.05471840926781296,0.018120105515047908
1733507105102796800,11.702796875,0.029275778844952582,-0.05344239798262715,0.0023122224651277064
1733507105112813800,11.712813720703124,0.020935820522904394,-0.050391924370825285,-0.013025997246429324
1733507105122831600,11.72283154296875,0.004515431597828865,-0.036781039908528324,-0.03805186356194317
1733507105132848600,11.7328486328125,-0.0064221420019865035,-0.02431581835001707,-0.01765365704707801
1733507105142866700,11.74286669921875,-0.016631985849142075,-0.0140067519120872,-0.019966902425512672
1733507105152883700,11.7528837890625,-0.005333762243390083,-0.018581804742664097,0.0035080081209540367
1733507105162901800,11.76290185546875,-0.006914309433102607,-0.03511602930575609,0.028223785573989153
1733507105172918800,11.772918701171875,0.0051543140232563015,-0.021925562212616205,-0.02065203514546156
1733507105182936600,11.7829365234375,0.021014146456122398,-0.026772709982842206,-0.013316723821312187
1733507105192953600,11.79295361328125,0.01563186889588833,-0.017462153062969447,-0.01918298550620675
1733507105202971600,11.8029716796875,0.015036241090297699,-0.03405190720558166,-0.005483984369039535
1733507105212988700,11.81298876953125,0.022652561312913894,-0.034575346557796,-0.003309636004641652
1733507105223006700,11.8230068359375,-0.00041851767301559446,-0.029424831926822662,-0.013725450752675533
1733507105233023700,11.833023681640626,-0.01018763201534748,-0.013308540514856576,0.003406593573093414
1733507105243041800,11.843041748046875,0.007735562688112259,-0.02586144035682082,0.011670710179954767
1733507105253058600,11.85305859375,0.008930325430631637,-0.047806584052741526,0.024023119013756512
1733507105263076900,11.863076904296875,0.015377017351984977,-0.049776422820985315,0.029537279325351117
1733507105273093600,11.87309375,0.021697452545166016,-0.047155426667630666,0.036206527956202626
1733507105283112000,11.88311181640625,0.009492050966620445,-0.05029533212855458,0.02186572178415954
1733507105293128700,11.893128662109374,0.005807809495925903,-0.029039778131991625,0.011157719156518578
1733507105303146500,11.903146484375,0.008541033852100371,-0.018165771287679672,0.013111775833740829
1733507105313163800,11.913163818359376,0.004392682000994682,-0.011973200257867574,0.00857457079552114
1733507105323181600,11.923181640625,-0.005603811356425285,-0.02643120306879282,0.00909391849450767
1733507105333198800,11.93319873046875,-0.009967267262935639,-0.02627323602810502,0.014608151871338486
1733507105343216600,11.943216552734375,-0.009406710770726204,-0.02214373500794172,0.007812573447078466
1733507105353234000,11.95323388671875,0.011221066716313361,-0.024159020353108643,-0.011785860992223023
1733507105363251700,11.963251708984375,0.004022679644823074,-0.028663492165505886,-0.01713693969659507
1733507105373268500,11.9732685546875,-0.0009042553633451461,-0.02198649861961603,-0.024423954899609086
1733507105383286800,11.983286865234374,-0.00791150377690792,-0.0011424480333924293,-0.03505217028930783
1733507105393303600,11.993303466796876,-0.0061129299223423,-0.0076888009369373315,-0.017133944021910427
1733507105403320800,12.00332080078125,0.0036000703185796734,-0.0071769058920443055,-0.02752506272010505
1733507105413338600,12.013338623046875,-0.006132803666591644,-0.009540274022519588,-0.005856105617061257
