time,seconds_elapsed,z,y,x
1733507093422428700,0.0224287109375,-0.00459854444488883,0.029834339395165443,-0.023315273225307465
1733507093432445700,0.03244580078125,-0.003095989115536213,0.010489402338862419,-0.008644452318549156
1733507093442463700,0.042463623046875,-0.002485784702003002,-0.012350914999842644,0.001614526379853487
1733507093452480800,0.052480712890625,-0.0031752772629261017,-0.019092706963419914,0.010476460680365562
1733507093462498600,0.06249853515625,-0.003888501785695553,-0.006134632974863052,0.004304790403693914
1733507093472515600,0.072515625,-0.0024115126579999924,0.004095633514225483,0.0012778413947671652
1733507093482533600,0.08253369140625,-0.002256368286907673,0.006211016792804003,0.0017033120384439826
1733507093492550700,0.092550537109375,-0.0016193401534110308,0.0026647518388926983,0.004143034107983112
1733507093502567700,0.102567626953125,-0.0028180601075291634,0.0018244555685669184,0.006243142299354076
1733507093512585700,0.112585693359375,-0.002117915078997612,0.004976040683686733,0.005146984942257404
1733507093522602800,0.122602783203125,-0.001055623171851039,0.007286383770406246,0.0022213479969650507
1733507093532620500,0.13262060546875,-0.003150465665385127,0.007588386535644531,-0.0013669952750205994
1733507093542637600,0.142637451171875,-0.0009561390615999699,0.007221437990665436,0.000009490293450653553
1733507093552655600,0.152655517578125,-0.002670149551704526,0.006089594215154648,-0.005320293828845024
1733507093562672600,0.162672607421875,-0.0004336362471804023,0.006260475143790245,-0.005620814859867096
1733507093572690700,0.172690673828125,-0.00490827951580286,0.007045574486255646,-0.0068466681987047195
1733507093582707700,0.182707763671875,-0.0029292097315192223,0.011248059570789337,-0.004537492524832487
1733507093592724700,0.192724853515625,-0.0006636586040258408,0.013132511638104916,-0.0016405063215643167
1733507093602742800,0.20274267578125,-0.0011271662078797817,0.01646922156214714,0.002362654311582446
1733507093612759600,0.212759521484375,-0.0005780224455520511,0.012842528522014618,0.002008720301091671
1733507093622777600,0.222777587890625,-0.0015842389548197389,0.008146559819579124,0.006044259760528803
1733507093632794600,0.232794677734375,-0.0031477808952331543,0.004737979732453823,0.009131396189332008
1733507093642812700,0.242812744140625,-0.0055237263441085815,0.0005832419265061617,0.007346765603870153
1733507093652829700,0.25282958984375,-0.003265898674726486,0.0035974078346043825,0.006686834152787924
1733507093662847700,0.26284765625,-0.00038736185524612665,0.005513801705092192,0.0025294246152043343
1733507093672864800,0.27286474609375,-0.004459867719560862,0.011843336746096611,0.008068799041211605
1733507093682881500,0.282881591796875,-0.004622831474989653,0.009526893496513367,0.003858019132167101
1733507093692899600,0.292899658203125,-0.00044806022197008133,0.014577845111489296,-0.0012951972894370556
1733507093702916600,0.30291650390625,-0.0012797017116099596,0.01452476903796196,0.002281260909512639
1733507093712934700,0.3129345703125,-0.002404620870947838,0.01518629863858223,0.003102579852566123
1733507093722951700,0.32295166015625,-0.004015417769551277,0.012349801138043404,0.006214379798620939
1733507093732969700,0.3329697265625,-0.004293451551347971,0.00841870903968811,0.008925477042794228
1733507093742986800,0.34298681640625,-0.00593274412676692,0.007709544152021408,0.008924576453864574
1733507093753004800,0.3530048828125,-0.005885872524231672,0.007677053101360798,0.005395887419581413
1733507093763021800,0.363021728515625,-0.003850035136565566,0.015018554404377937,0.0050942543894052505
1733507093773039900,0.373039794921875,-0.0041397870518267155,0.018073733896017075,0.00007659266702830791
1733507093783056600,0.383056640625,-0.005146291106939316,0.018518757075071335,0.0011337086325511336
1733507093793073700,0.39307373046875,-0.007323957979679108,0.015175423584878445,-0.0021547626238316298
1733507093803091700,0.403091796875,-0.010474158450961113,0.012148517183959484,-0.0008386240224353969
1733507093813108700,0.413108642578125,-0.01232265867292881,0.01164251659065485,0.0007339725852943957
1733507093823126800,0.423126708984375,-0.010989479720592499,0.009334354661405087,0.00461952481418848
1733507093833143800,0.433143798828125,-0.008960683830082417,0.006658943369984627,0.006838470231741667
1733507093843161600,0.44316162109375,-0.006046780385077,0.007066880352795124,0.008756259456276894
1733507093853178600,0.4531787109375,-0.0039878906682133675,0.004871902987360954,0.007499247789382935
1733507093863196700,0.46319677734375,-0.0018463267479091883,0.009368348866701126,0.0013461178168654442
1733507093873213700,0.473213623046875,-0.004567278549075127,0.013369747437536716,-0.00474080303683877
1733507093883230700,0.483230712890625,-0.010324466973543167,0.012950103729963303,-0.008767976425588131
1733507093893248800,0.493248779296875,-0.006328394170850515,0.01076924055814743,-0.0057801753282547
1733507093903265800,0.503265869140625,-0.006807263009250164,0.004059337079524994,-0.004192724823951721
1733507093913283600,0.51328369140625,-0.010839022696018219,-0.001191084855236113,0.0017109708860516548
1733507093923300900,0.52330078125,-0.006380400154739618,-0.0010096717160195112,0.005837117787450552
1733507093933318700,0.533318603515625,-0.005704755894839764,0.0020998353138566017,0.0011424970580264926
1733507093943335700,0.543335693359375,-0.003893710905686021,0.007286067120730877,0.00037646456621587276
1733507093953353700,0.553353759765625,-0.0009871369693428278,0.011735409498214722,-0.009513717144727707
1733507093963370800,0.563370849609375,-0.0003577902680262923,0.008776584640145302,-0.012137574143707752
1733507093973388500,0.573388427734375,-0.0018635415472090244,0.006560835521668196,-0.012073125690221786
1733507093983405600,0.583405517578125,-0.0004988629370927811,0.003715798258781433,-0.014188259840011597
1733507093993422800,0.5934228515625,-0.0021513542160391808,0.0017820768989622593,-0.007308516185730696
1733507094003440600,0.603440673828125,-0.0021382509730756283,0.0030053099617362022,-0.003976897336542606
1733507094013457700,0.613457763671875,-0.0001611202023923397,0.007389139384031296,-0.007086137775331736
1733507094023475200,0.62347509765625,-0.002298648003488779,0.00806876178830862,-0.006019490770995617
1733507094033492000,0.633491943359375,-0.00019714748486876488,0.014753562398254871,-0.009649379178881645
1733507094043510000,0.643510009765625,0.0017012283205986023,0.014099505729973316,-0.012677710503339767
1733507094053527000,0.653527099609375,-0.0010865686926990747,0.018737133592367172,-0.014252970926463604
1733507094063545000,0.663545166015625,0.00029236217960715294,0.022253528237342834,-0.013913420960307121
1733507094073562000,0.67356201171875,-0.0009492034441791475,0.023897498846054077,-0.0090896375477314
1733507094083580000,0.683579833984375,0.0008556414395570755,0.027364375069737434,-0.005366594064980745
1733507094093597200,0.69359716796875,0.0009302098769694567,0.024978449568152428,-0.002290110569447279
1733507094103614200,0.7036142578125,-0.001972444588318467,0.02381356619298458,-0.005471737124025822
1733507094113632000,0.713632080078125,-0.004064624197781086,0.01952667534351349,-0.006172414869070053
1733507094123649000,0.72364892578125,-0.009123776108026505,0.02288922481238842,-0.011086742393672466
1733507094133667000,0.7336669921875,-0.014747573994100094,0.027195824310183525,-0.012177572585642338
1733507094143684000,0.74368408203125,-0.017948223277926445,0.026063259690999985,-0.014584903605282307
1733507094153702100,0.7537021484375,-0.024137409403920174,0.019793380051851273,-0.007840714417397976
1733507094163719200,0.76371923828125,-0.020755967125296593,0.011991500854492188,-0.0030797405634075403
1733507094173737000,0.773737060546875,-0.021508576348423958,0.005365289747714996,0.0022130256984382868
1733507094183754000,0.78375390625,-0.015670625492930412,0.002076089847832918,0.0005502061685547233
1733507094193771000,0.79377099609375,-0.014856230467557907,0.0022071171551942825,0.0033976580016314983
1733507094203789000,0.8037890625,-0.011248679831624031,0.005704183131456375,-0.000048679037718102336
1733507094213806000,0.81380615234375,-0.014100393280386925,0.01649903878569603,-0.0053259991109371185
1733507094223824100,0.82382421875,-0.011838145554065704,0.021060416474938393,-0.006471698638051748
1733507094233841200,0.833841064453125,-0.014590788632631302,0.028838975355029106,-0.009892263449728489
1733507094243859000,0.84385888671875,-0.012342376634478569,0.03224250674247742,-0.008592532947659492
1733507094253876000,0.8538759765625,-0.012249965220689774,0.03454933688044548,-0.011065543629229069
1733507094263894000,0.86389404296875,-0.011521686799824238,0.03277488052845001,-0.009037972427904606
1733507094273911000,0.8739111328125,-0.007665961980819702,0.03442870080471039,-0.009135976433753967
1733507094283929000,0.88392919921875,-0.006383713334798813,0.03392251208424568,-0.010194948874413967
1733507094293946000,0.893946044921875,-0.004480086266994476,0.04112902656197548,-0.011621871031820774
1733507094303963100,0.903963134765625,-0.002127918414771557,0.051684387028217316,-0.016179239377379417
1733507094313981200,0.913981201171875,0.00003669876605272293,0.0628688707947731,-0.016635438427329063
1733507094323998000,0.923998046875,-0.001441611209884286,0.06681070476770401,-0.015253142453730106
1733507094334016000,0.93401611328125,-0.0025233873166143894,0.05605606362223625,-0.012180653400719166
1733507094344033000,0.944032958984375,-0.004186179954558611,0.04664115235209465,-0.0075339265167713165
1733507094354051000,0.954051025390625,-0.0053353337571024895,0.03302654251456261,-0.0035021670628339052
1733507094364068000,0.964068115234375,-0.004840976558625698,0.027320468798279762,-0.005760579369962215
1733507094374086100,0.974086181640625,-0.006144327111542225,0.024633605033159256,-0.003007137216627598
1733507094384103200,0.984103271484375,-0.0064729610458016396,0.02332838997244835,-0.010065312497317791
1733507094394121200,0.994121337890625,-0.008032508194446564,0.027110345661640167,-0.015244095586240292
1733507094404138000,1.004137939453125,-0.010693507269024849,0.02983216568827629,-0.020018018782138824
1733507094414155000,1.014155029296875,-0.010525194928050041,0.03249532729387283,-0.01818017102777958
1733507094424173000,1.024173095703125,-0.009300343692302704,0.028711959719657898,-0.014824222773313522
1733507094434190000,1.034190185546875,-0.010354422964155674,0.02715640887618065,-0.004620321094989777
1733507094444208000,1.0442080078125,-0.011085353791713715,0.003054887754842639,0.011205787770450115
1733507094454225200,1.05422509765625,-0.003989094868302345,0.00003512948751449585,0.0048421649262309074
1733507094464243200,1.0642431640625,-0.012033205479383469,0.004228739999234676,0.003379230387508869
1733507094474260000,1.074260009765625,-0.01186409406363964,0.002438030671328306,-0.007632407825440168
1733507094484278000,1.084278076171875,-0.0767955482006073,0.027436796575784683,-0.023378830403089523
1733507094494295000,1.094294921875,-0.08755898475646973,0.024604259058833122,-0.020683445036411285
1733507094504312000,1.10431201171875,-0.02663528546690941,0.01326731126755476,-0.012659064494073391
1733507094514330000,1.114330078125,-0.002526220865547657,0.020207509398460388,-0.013054011389613152
1733507094524347100,1.12434716796875,-0.01880510337650776,0.030645553022623062,-0.01565314270555973
1733507094534365200,1.134365234375,-0.019910315051674843,0.02732831984758377,-0.010959322564303875
1733507094544382200,1.14438232421875,-0.02245655097067356,0.020989343523979187,-0.01229107566177845
1733507094554400000,1.15439990234375,-0.02408214472234249,0.014325582422316074,-0.009541361592710018
1733507094564417000,1.1644169921875,-0.02169608138501644,0.010718002915382385,-0.012520858086645603
1733507094574435000,1.17443505859375,-0.02120739035308361,0.009851144626736641,-0.01195626799017191
1733507094584452000,1.1844521484375,-0.02312171272933483,0.007078047841787338,-0.01676502637565136
1733507094594470100,1.19447021484375,-0.02906588837504387,0.007095091976225376,-0.001552518573589623
1733507094604487200,1.204487060546875,-0.020889418199658394,-0.0022834271658211946,-0.0023215797264128923
1733507094614504200,1.214504150390625,-0.023122746497392654,0.007841378450393677,-0.008433268405497074
1733507094624522000,1.22452197265625,-0.021162286400794983,0.01883012428879738,-0.014131012372672558
1733507094634539000,1.2345390625,-0.024772733449935913,0.030360812321305275,-0.009560761041939259
1733507094644557000,1.24455712890625,-0.022602014243602753,0.014310358092188835,-0.006484056357294321
1733507094654574000,1.254573974609375,-0.020872823894023895,0.019783953204751015,-0.010637789033353329
1733507094664592100,1.264592041015625,-0.02277277782559395,0.027746228501200676,-0.017980659380555153
1733507094674609200,1.274609130859375,-0.030093541368842125,0.02621597610414028,-0.00562652200460434
1733507094684627000,1.284626953125,-0.02484026551246643,0.018434202298521996,-0.007548738736659288
1733507094694644000,1.29464404296875,-0.029917048290371895,0.029401632025837898,-0.00474629458039999
1733507094704661200,1.3046611328125,-0.09186816960573196,0.03424571827054024,-0.0011939533287659287
1733507094714679000,1.314678955078125,-0.12495448440313339,0.037059880793094635,0.005548637825995684
1733507094724696000,1.324696044921875,-0.0831197202205658,0.03901025652885437,0.014970862306654453
1733507094734714000,1.334714111328125,-0.013321728445589542,0.03234409913420677,0.01660125143826008
1733507094744731100,1.344731201171875,-0.0022043720819056034,0.042652569711208344,0.016936425119638443
1733507094754749200,1.354749267578125,-0.005136778578162193,0.05169479921460152,0.006895509548485279
1733507094764766000,1.364765869140625,-0.004982049111276865,0.07274708896875381,0.010175724513828754
1733507094774784000,1.374783935546875,-0.0019851939287036657,0.07407280802726746,0.008388743735849857
1733507094784801000,1.384801025390625,0.003650736529380083,0.07059076428413391,0.009453105740249157
1733507094794819000,1.394819091796875,-0.0004089860012754798,0.07464542984962463,0.012367935851216316
1733507094804836000,1.404836181640625,-0.06976637244224548,0.08723415434360504,0.011246315203607082
1733507094814853000,1.41485302734375,-0.09643952548503876,0.09363745898008347,0.009807676076889038
1733507094824871200,1.42487109375,-0.06848449259996414,0.08635903149843216,0.008156408555805683
1733507094834888000,1.434887939453125,-0.027828413993120193,0.07683130353689194,0.011931439861655235
1733507094844906000,1.444906005859375,0.01141854003071785,0.07041557878255844,0.005213445518165827
1733507094854923000,1.454923095703125,0.006901553366333246,0.076034314930439,-0.007602218072861433
1733507094864941000,1.464941162109375,0.005969785153865814,0.09501880407333374,-0.010072717443108559
1733507094874958000,1.4749580078125,0.004540998488664627,0.09196043014526367,-0.004377281758934259
1733507094884976000,1.48497607421875,0.009635495953261852,0.0796738713979721,-0.007060900330543518
1733507094894993200,1.4949931640625,-0.009656975977122784,0.07451160252094269,-0.008545879274606705
1733507094905011200,1.50501123046875,-0.07430876791477203,0.10386550426483154,-0.006061575375497341
1733507094915028000,1.515028076171875,-0.08089955896139145,0.10949276387691498,0.004174284171313047
1733507094925045000,1.525044921875,-0.050177086144685745,0.09618071466684341,0.012778480537235737
1733507094935063000,1.53506298828125,-0.009015269577503204,0.0788525938987732,0.018079236149787903
1733507094945080000,1.545080078125,0.02152450941503048,0.07221735268831253,0.013814239762723446
1733507094955098000,1.55509814453125,0.019567618146538734,0.07966966927051544,0.00968101341277361
1733507094965115100,1.565115234375,0.020655766129493713,0.08885521441698074,0.005409624427556992
1733507094975133200,1.57513330078125,-0.017770186066627502,0.0949501246213913,-0.014874075539410114
1733507094985150200,1.585150146484375,-0.05231459438800812,0.11351513862609863,-0.025148911401629448
1733507094995168000,1.59516796875,-0.03673217073082924,0.1202489361166954,-0.035786908119916916
1733507095005185000,1.60518505859375,-0.00028527737595140934,0.10959722846746445,-0.03201892226934433
1733507095015202000,1.6152021484375,0.030656926333904266,0.10399553179740906,-0.025775142014026642
1733507095025220600,1.625220703125,0.04637815058231354,0.09343160688877106,-0.030420489609241486
1733507095035238000,1.63523779296875,0.03304343670606613,0.10993122309446335,-0.02677222527563572
1733507095045255700,1.645255615234375,0.028213420882821083,0.10904643684625626,-0.03130067139863968
1733507095055272700,1.655272705078125,-0.002382571343332529,0.10223540663719177,-0.046385880559682846
1733507095065290800,1.665290771484375,-0.04072073474526405,0.10667330771684647,-0.04729603976011276
1733507095075307800,1.675307861328125,-0.030387936159968376,0.09937117993831635,-0.04782307893037796
1733507095085325800,1.685325927734375,-0.0059320880100131035,0.09293586760759354,-0.046756062656641006
1733507095095342600,1.695342529296875,0.0069219255819916725,0.08235512673854828,-0.03902730345726013
1733507095105360600,1.705360595703125,-0.0008670713868923485,0.0769919604063034,-0.02694319374859333
1733507095115377700,1.715377685546875,-0.027620922774076462,0.08849921077489853,-0.024945290759205818
1733507095125395000,1.72539501953125,-0.025716334581375122,0.09168028086423874,-0.028818335384130478
1733507095135412700,1.735412841796875,-0.026922214776277542,0.08860885351896286,-0.03910825401544571
1733507095145429800,1.7454296875,-0.05581669136881828,0.061013951897621155,-0.03493567183613777
1733507095155447800,1.75544775390625,-0.08038409054279327,0.04324214160442352,-0.046323880553245544
1733507095165464600,1.765464599609375,-0.07718530297279358,0.01544100884348154,-0.04447685927152634
1733507095175482600,1.775482666015625,-0.06421010941267014,0.025778867304325104,-0.04768170788884163
1733507095185499600,1.785499755859375,-0.03010992333292961,0.034747473895549774,-0.04087403789162636
1733507095195517700,1.795517578125,-0.002015437465161085,0.058039482682943344,-0.03431946784257889
1733507095205534700,1.80553466796875,-0.012102426029741764,0.07611275464296341,-0.031419020146131516
1733507095215551700,1.8155517578125,-0.02625260129570961,0.0774291530251503,-0.028633885085582733
1733507095225569800,1.82556982421875,-0.037503357976675034,0.06676167249679565,-0.030104156583547592
1733507095235586600,1.835586669921875,-0.07289943099021912,0.06598535925149918,-0.046669553965330124
1733507095245604900,1.84560498046875,-0.07485288381576538,0.05204538255929947,-0.04799709469079971
1733507095255621600,1.85562158203125,-0.04393066093325615,0.05001258850097656,-0.04959073290228844
1733507095265639700,1.8656396484375,-0.028730913996696472,0.04904423654079437,-0.0533442497253418
1733507095275656700,1.87565673828125,-0.04008769616484642,0.06047932058572769,-0.04825148731470108
1733507095285674800,1.8856748046875,-0.0428682342171669,0.06014256924390793,-0.044445447623729706
1733507095295691800,1.89569189453125,-0.04400593787431717,0.07242000848054886,-0.04770702123641968
1733507095305709800,1.905709716796875,-0.05555374175310135,0.06493358314037323,-0.04139580577611923
1733507095315726800,1.915726806640625,-0.07633545249700546,0.061539649963378906,-0.04094972833991051
1733507095325743600,1.92574365234375,-0.06613942980766296,0.0480528324842453,-0.03308264538645744
1733507095335761700,1.93576171875,-0.03955788537859917,0.0423739068210125,-0.034241653978824615
1733507095345778700,1.94577880859375,-0.0043493155390024185,0.04449141025543213,-0.04892786592245102
1733507095355796700,1.955796630859375,-0.0004882648354396224,0.049829985946416855,-0.046985890716314316
1733507095365813800,1.965813720703125,0.003889705752953887,0.05815848708152771,-0.06115497276186943
1733507095375831800,1.975831787109375,0.00463592354208231,0.08125555515289307,-0.06432812660932541
1733507095385848800,1.985848876953125,0.009235584177076817,0.06943108141422272,-0.06638665497303009
1733507095395866600,1.99586669921875,-0.019068490713834763,0.07222873717546463,-0.06315144151449203
1733507095405884000,2.0058837890625,-0.015988320112228394,0.0639554113149643,-0.05327686294913292
1733507095415901700,2.015901611328125,0.012190587818622589,0.06532374024391174,-0.05425424128770828
1733507095425918700,2.025918701171875,0.051170554012060165,0.0714530199766159,-0.055119287222623825
1733507095435935700,2.035935791015625,0.06224743649363518,0.08057248592376709,-0.06243925169110298
1733507095445953800,2.045953857421875,0.06187756359577179,0.08397263288497925,-0.06875814497470856
1733507095455970800,2.055970703125,0.05593552067875862,0.09942056238651276,-0.0680292397737503
1733507095465988600,2.065988525390625,0.015420452691614628,0.1047581359744072,-0.08074668049812317
1733507095476006000,2.076005859375,-0.005385758355259895,0.09904831647872925,-0.08234990388154984
1733507095486023700,2.086023681640625,0.009874248877167702,0.08486724644899368,-0.07410433143377304
1733507095496040700,2.096040771484375,0.05530591309070587,0.07520130276679993,-0.07659385353326797
1733507095506058800,2.106058837890625,0.0520988404750824,0.07706019282341003,-0.0809197872877121
1733507095516075800,2.11607568359375,0.04098307341337204,0.07172854989767075,-0.07045462727546692
1733507095526092800,2.1260927734375,0.03958245366811752,0.07006867974996567,-0.07736270129680634
1733507095536110600,2.136110595703125,0.02363171987235546,0.08018709719181061,-0.07087258249521255
1733507095546128000,2.1461279296875,0.014131881296634674,0.07799316197633743,-0.06902669370174408
1733507095556145700,2.156145751953125,-0.025456540286540985,0.08113489300012589,-0.06958329677581787
1733507095566163000,2.166162841796875,-0.021170997992157936,0.08489438146352768,-0.06390714645385742
1733507095576180700,2.1761806640625,-0.00853190291672945,0.064836785197258,-0.05342094600200653
1733507095586197800,2.18619775390625,0.01691056787967682,0.06661662459373474,-0.05451779067516327
1733507095596215800,2.1962158203125,0.013517966493964195,0.05865537375211716,-0.058409735560417175
1733507095606232600,2.206232666015625,0.004254794213920832,0.05647072568535805,-0.07016448676586151
1733507095616251000,2.2162509765625,-0.0034870151430368423,0.055848609656095505,-0.06589144468307495
1733507095626267600,2.226267578125,0.0014229698572307825,0.04178088530898094,-0.06206081807613373
1733507095636285000,2.236284912109375,-0.0021363450214266777,0.05988664925098419,-0.06589630246162415
1733507095646302700,2.246302734375,-0.006923472508788109,0.07390633970499039,-0.06512973457574844
1733507095656319700,2.25631982421875,-0.011630343273282051,0.07093771547079086,-0.04864263907074928
1733507095666337800,2.266337890625,-0.03801492601633072,0.06477054208517075,-0.05255988985300064
1733507095676354600,2.2763544921875,-0.017770370468497276,0.07326256483793259,-0.05572772026062012
1733507095686372900,2.286372802734375,0.017860224470496178,0.060823600739240646,-0.05788673460483551
1733507095696389600,2.2963896484375,0.015158981084823608,0.06654433906078339,-0.06939904391765594
1733507095706407700,2.30640771484375,0.006589658558368683,0.07117357105016708,-0.06389733403921127
1733507095716424700,2.3164248046875,0.009201154112815857,0.08601084351539612,-0.06673680245876312
1733507095726442800,2.32644287109375,0.008528877049684525,0.1010875403881073,-0.0775589793920517
1733507095736459800,2.336459716796875,0.016722092404961586,0.0979149118065834,-0.06834258139133453
1733507095746476500,2.3464765625,0.022601647302508354,0.07432808727025986,-0.058208297938108444
1733507095756494800,2.356494873046875,0.029537849128246307,0.06826140731573105,-0.050273142755031586
1733507095766511600,2.36651171875,0.029489872977137566,0.0896248072385788,-0.05862896516919136
1733507095776529700,2.37652978515625,0.026491422206163406,0.09235028177499771,-0.0608694814145565
1733507095786546700,2.386546630859375,0.02627844735980034,0.0981673151254654,-0.061901941895484924
1733507095796564700,2.396564697265625,0.023660026490688324,0.1010400652885437,-0.05614232271909714
1733507095806581800,2.406581787109375,0.024282170459628105,0.09223265200853348,-0.044801559299230576
1733507095816599800,2.416599853515625,0.017666080966591835,0.07215508073568344,-0.032337699085474014
1733507095826616800,2.426616943359375,-0.008727211505174637,0.0711027979850769,-0.032619256526231766
1733507095836633600,2.436633544921875,-0.0038743990007787943,0.08833398669958115,-0.036776185035705566
1733507095846652000,2.44665185546875,0.026127446442842484,0.08941510319709778,-0.04822128266096115
1733507095856668700,2.456668701171875,0.02303365245461464,0.09381171315908432,-0.05945023521780968
1733507095866686700,2.466686767578125,0.026888955384492874,0.06965134292840958,-0.06778939068317413
1733507095876703700,2.476703857421875,0.029834678396582603,0.040883611887693405,-0.05471672862768173
1733507095886721800,2.4867216796875,0.030801938846707344,0.026173248887062073,-0.04640916362404823
1733507095896738800,2.49673876953125,0.0204843208193779,0.05527068302035332,-0.05205453559756279
1733507095906756600,2.506756591796875,0.007901094853878021,0.09031902253627777,-0.05246049910783768
1733507095916774000,2.51677392578125,0.007438236381858587,0.08406165987253189,-0.04191038757562637
1733507095926791700,2.526791748046875,0.01216325256973505,0.06604012101888657,-0.025355324149131775
1733507095936808700,2.53680859375,0.015576093457639217,0.04027377441525459,-0.020313160493969917
1733507095946825700,2.54682568359375,0.018681740388274193,0.02919789031147957,-0.01858631707727909
1733507095956843800,2.55684375,0.019182682037353516,0.019792672246694565,-0.01754581928253174
1733507095966860800,2.56686083984375,0.015073595568537712,0.030636807903647423,-0.0339055135846138
1733507095976878600,2.576878662109375,0.01698867417871952,0.0306722279638052,-0.03191453218460083
1733507095986896000,2.586895751953125,0.01040062215179205,0.08312772959470749,-0.05502309650182724
1733507095996913700,2.59691357421875,0.008798996917903423,0.09147833287715912,-0.05696720629930496
1733507096006931000,2.606930908203125,0.012862106785178185,0.06752265244722366,-0.04913479834794998
1733507096016948700,2.61694873046875,0.022806616500020027,0.03848833590745926,-0.035309795290231705
1733507096026965200,2.62696533203125,0.02265082113444805,0.03628270700573921,-0.029719555750489235
1733507096036983300,2.6369833984375,0.026650089770555496,0.03506990149617195,-0.013252165168523788
1733507096047000000,2.647,0.02211647853255272,0.043532807379961014,-0.020570535212755203
1733507096057017000,2.65701708984375,0.01573527790606022,0.040352191776037216,-0.021178003400564194
1733507096067035100,2.66703515625,0.014545109122991562,0.03887000307440758,-0.01917141117155552
1733507096077052200,2.67705224609375,0.013612203299999237,0.02648603916168213,-0.013688229024410248
1733507096087070200,2.6870703125,0.013241682201623917,0.04142981767654419,-0.020835835486650467
1733507096097087200,2.697087158203125,0.009704737924039364,0.036588456481695175,-0.024500077590346336
1733507096107105300,2.707105224609375,0.010140943340957165,0.03699275106191635,-0.016662605106830597
1733507096117122000,2.7171220703125,0.008850108832120895,0.049220919609069824,-0.01819765195250511
1733507096127140400,2.727140380859375,0.0008108846377581358,0.07195651531219482,-0.02335928939282894
1733507096137157000,2.7371572265625,-0.00046982953790575266,0.05176389217376709,-0.011298897676169872
1733507096147175400,2.747175537109375,0.006875430233776569,0.024624275043606758,0.0013896345626562834
1733507096157192200,2.757192138671875,0.0038578021340072155,0.02547542192041874,0.004023500718176365
1733507096167209200,2.767209228515625,-0.0008915426442399621,0.02009417675435543,-0.0010359238367527723
1733507096177227300,2.777227294921875,-0.0005645065102726221,0.013939877972006798,-0.0014556380920112133
1733507096187244300,2.787244384765625,-0.0008534594671800733,0.008069737814366817,-0.0033038717228919268
1733507096197262300,2.797262451171875,-0.0007621130207553506,0.01901133544743061,-0.00658248970285058
1733507096207279000,2.807279052734375,-0.0014455558266490698,0.025742724537849426,-0.011881595477461815
1733507096217297400,2.81729736328125,0.00028469995595514774,0.009018871001899242,-0.0015772923361510038
1733507096227314200,2.827314208984375,0.0015438226982951164,0.001621169038116932,0.006594672333449125
1733507096237332200,2.837332275390625,0.0014671236276626587,0.0022811004891991615,0.0051786694675683975
1733507096247349200,2.847349365234375,0.0014228194486349821,0.005753072444349527,0.0053635998629033566
1733507096257366300,2.8573662109375,0.002550934674218297,0.011339053511619568,-0.0016631503822281957
1733507096267384300,2.86738427734375,0.0053558507934212685,0.024796022102236748,-0.0032254126854240894
1733507096277401000,2.877401123046875,0.0066256457939744,0.011379283852875233,0.002523020375519991
1733507096287419100,2.887419189453125,0.0075392089784145355,0.003696463303640485,0.0007717186817899346
1733507096297436200,2.897436279296875,0.008851881138980389,0.0013779152650386095,-0.0042001367546617985
1733507096307454200,2.9074541015625,0.009121696464717388,-0.001299288822337985,-0.011583162471652031
1733507096317471200,2.91747119140625,0.010270850732922554,0.01593935303390026,-0.019068242982029915
1733507096327489000,2.927489013671875,0.010811034590005875,0.027114499360322952,-0.023722488433122635
1733507096337506300,2.93750634765625,0.00979157630354166,0.03148181736469269,-0.01953679881989956
1733507096347524000,2.947524169921875,0.01636461913585663,0.005293881054967642,-0.01072583720088005
1733507096357541000,2.957541015625,0.020211821421980858,0.005906940903514624,-0.007551616057753563
1733507096367558100,2.96755810546875,0.018646225333213806,0.004856075160205364,-0.00784594751894474
1733507096377576200,2.977576171875,0.0186624713242054,0.007967713288962841,-0.006117289885878563
1733507096387593200,2.98759326171875,0.01833132468163967,0.0065099336206912994,-0.006126183085143566
1733507096397611300,2.997611328125,0.015928354114294052,0.0062271058559417725,-0.006080909166485071
1733507096407628300,3.007628173828125,0.014445164240896702,0.005778612568974495,-0.009569598361849785
1733507096417646000,3.01764599609375,0.01179052609950304,0.003435829421505332,-0.010552571155130863
1733507096427663000,3.0276630859375,0.011234361678361893,0.005805252119898796,-0.012639849446713924
1733507096437681200,3.03768115234375,0.007229234557598829,0.004094437696039677,-0.010341541841626167
1733507096447698200,3.0476982421875,0.006688633002340794,0.00225043878890574,-0.013132322579622269
1733507096457716200,3.05771630859375,0.00648916233330965,0.004141815938055515,-0.00947633571922779
1733507096467733200,3.067733154296875,0.001851493027061224,0.009160329587757587,-0.010644820518791676
1733507096477750300,3.077750244140625,0.0017513581551611423,0.009827984496951103,-0.00766394380480051
1733507096487768000,3.08776806640625,0.0015047332271933556,0.009491262957453728,-0.007745016366243362
1733507096497785000,3.09778515625,0.000863976776599884,0.007867533713579178,0.00008707420784048736
1733507096507803100,3.10780322265625,0.0004346913192421198,0.006894245743751526,-0.002864927751943469
1733507096517820200,3.117820068359375,-0.00034907704684883356,0.004010042175650597,0.0012398024555295706
1733507096527838200,3.127838134765625,-0.001218578778207302,0.006109917536377907,0.0004072431765962392
1733507096537855200,3.137855224609375,-0.003152300138026476,0.006672644056379795,0.002755085937678814
1733507096547873300,3.147873291015625,-0.0026805391535162926,0.008158652111887932,0.0012797992676496506
1733507096557890300,3.157890380859375,-0.0018296592170372605,0.008085149340331554,-0.0012222406221553683
1733507096567908400,3.167908447265625,-0.000314054312184453,0.005905085243284702,-0.0015849631745368242
1733507096577925000,3.177925048828125,0.0012585422955453396,0.003929286263883114,-0.002583914902061224
1733507096587942100,3.187942138671875,0.004413684830069542,0.022062208503484726,-0.010634491220116615
1733507096597960200,3.197960205078125,0.007654219400137663,0.0071988399140536785,-0.004912157543003559
1733507096607977200,3.207977294921875,0.005836933851242065,-0.0009093754924833775,0.005316780414432287
1733507096617995300,3.217995361328125,0.006276355590671301,0.000999045791104436,0.005386555101722479
1733507096628012300,3.22801220703125,0.0075564999133348465,-0.0005235543940216303,0.003958511166274548
1733507096638030300,3.2380302734375,0.009786897338926792,-0.002441829303279519,0.0011414196342229843
1733507096648047000,3.248047119140625,0.009640460833907127,-0.004780546762049198,0.00304696848616004
1733507096658065200,3.258065185546875,0.008725665509700775,-0.0014414751203730702,0.0006325466092675924
1733507096668082200,3.268082275390625,0.010189168155193329,-0.0004290756769478321,-0.0016604409320279956
1733507096678100200,3.278100341796875,0.010532449930906296,0.004285784903913736,-0.00076934730168432
1733507096688117200,3.2881171875,0.008360394276678562,0.0017151341307908297,0.0007250627386383712
1733507096698134300,3.29813427734375,0.0072927325963974,0.00012842286378145218,0.0030529319774359465
1733507096708152300,3.30815234375,0.007124210707843304,-0.0005098923575133085,0.004370133858174086
1733507096718169000,3.318169189453125,0.0052413553930819035,-0.0005098923575133085,0.0018055097898468375
1733507096728187100,3.328187255859375,0.0031467233784496784,0.0017292492557317019,0.0019242842681705952
1733507096738204200,3.3382041015625,0.0036940029822289944,0.003186530666425824,-0.0011628521606326103
1733507096748222200,3.34822216796875,0.0002588094212114811,0.007340908050537109,0.00017170645878650248
1733507096758239200,3.3582392578125,0.001909969374537468,0.007479925639927387,-0.0004139226512052119
1733507096768257000,3.368257080078125,0.000993938883766532,0.005628880113363266,0.0026881834492087364
1733507096778274300,3.3782744140625,0.0010045915842056274,0.004322865977883339,0.004385149572044611
1733507096788292000,3.3882919921875,-0.00045130227226763964,0.0025849316734820604,0.004576100967824459
1733507096798309000,3.39830908203125,-0.0033663983922451735,0.002974551869556308,0.0012261103838682175
1733507096808327200,3.4083271484375,-0.0025697320234030485,0.003462673630565405,-0.0012891405494883657
1733507096818344200,3.41834423828125,-0.0035170186311006546,0.010679841041564941,-0.005029816646128893
1733507096828361200,3.428361328125,-0.0031993230804800987,0.014698842540383339,-0.002153281820937991
1733507096838379300,3.438379150390625,-0.0004139228258281946,0.012108386494219303,-0.004778892267495394
1733507096848396300,3.448396240234375,0.004302932880818844,0.008709456771612167,0.0006091658724471927
1733507096858414000,3.4584140625,0.006699511781334877,0.005665463395416737,-0.001023085555061698
1733507096868431000,3.46843115234375,0.008164385333657265,0.0020192672964185476,-0.0007495295139960945
1733507096878449200,3.47844921875,0.004700944293290377,-0.0017365887761116028,-0.0022307797335088253
1733507096888466200,3.488466064453125,0.0005852952599525452,-0.0030055849347263575,-0.00714564323425293
1733507096898484200,3.498484130859375,-0.0010094055905938148,-0.00009235297329723835,-0.007653774693608284
1733507096908501200,3.508501220703125,-0.0028219143860042095,0.00030120834708213806,-0.0056530507281422615
1733507096918519300,3.518519287109375,-0.001097517553716898,-0.0007728445343673229,-0.0015856046229600906
1733507096928536000,3.5285361328125,0.008619442582130432,-0.0075149936601519585,0.0027236538007855415
1733507096938553000,3.538552978515625,0.008717180229723454,-0.009857776574790478,-0.00036774337058886886
1733507096948571100,3.548571044921875,0.010546469129621983,-0.010467054322361946,0.004972535185515881
1733507096958588200,3.558588134765625,0.0036235821899026632,0.0013025205116719007,0.00824928842484951
1733507096968606200,3.568606201171875,-0.00011920614633709192,0.008688503876328468,0.00382678909227252
1733507096978623200,3.578623291015625,-0.000428931787610054,0.005416810978204012,0.003739703446626663
1733507096988641300,3.588641357421875,-0.001305910642258823,0.00010819174349308014,0.007012627087533474
1733507096998658300,3.598658203125,-0.00040016963612288237,-0.0028290085028856993,0.010228659957647324
1733507097008676400,3.60867626953125,-0.002313250442966819,-0.007080541457980871,0.007260084617882967
1733507097018693000,3.618693115234375,-0.004573475569486618,-0.007751391734927893,0.007418010383844376
1733507097028711400,3.62871142578125,-0.004996634554117918,-0.004318745341151953,0.006615977734327316
1733507097038728200,3.638728271484375,-0.004491698928177357,-0.0029759793542325497,0.011066918261349201
1733507097048745200,3.6487451171875,-0.006539613474160433,-0.004863302689045668,0.009146984666585922
1733507097058763300,3.65876318359375,-0.00741206482052803,-0.0002970467321574688,0.009604250080883503
1733507097068780300,3.6687802734375,-0.004759839735925198,0.0009800929110497236,0.006928789429366589
1733507097078798300,3.67879833984375,-0.00240533915348351,0.0002415983472019434,0.0053122504614293575
1733507097088815000,3.688815185546875,-0.003605264239013195,0.0016839574091136456,0.0035824207589030266
1733507097098833400,3.69883349609375,-0.0014856543857604265,0.0012389433104544878,0.00420400220900774
1733507097108850200,3.70885009765625,-0.0031601167283952236,-0.00039070798084139824,0.0010149178560823202
1733507097118868200,3.7188681640625,-0.004834712482988834,-0.0021409373730421066,0.0008868197910487652
1733507097128885200,3.72888525390625,-0.0025912844575941563,-0.0017294520512223244,0.00042614713311195374
1733507097138903000,3.738903076171875,-0.006920519284904003,-0.0033654319122433662,-0.003604547120630741
1733507097148920300,3.74892041015625,-0.006333672441542149,-0.0022322209551930428,-0.003830488072708249
1733507097158937000,3.75893701171875,-0.007410123012959957,-0.002125428058207035,0.001720338361337781
1733507097168955400,3.768955322265625,-0.008034576661884785,-0.004022479057312012,-0.0003203383239451796
1733507097178972200,3.77897216796875,-0.008893179707229137,-0.003396902233362198,0.00022001707111485302
1733507097188990500,3.788990478515625,-0.011816779151558876,-0.0066149672493338585,0.001444116234779358
1733507097199007200,3.79900732421875,-0.01124340109527111,-0.00554171297699213,-0.006683318875730038
1733507097209025000,3.80902490234375,-0.015069032087922096,-0.002114757662639022,-0.004260374698787928
1733507097219042300,3.819042236328125,-0.011570436879992485,-0.004242623224854469,-0.009597349911928177
1733507097229060000,3.82906005859375,-0.013087600469589233,-0.003449587617069483,-0.012538386508822441
1733507097239077400,3.839077392578125,-0.01006384752690792,-0.0021789935417473316,-0.01343773677945137
1733507097249095200,3.84909521484375,-0.008405668660998344,-0.00420699967071414,-0.007930160500109196
1733507097259112400,3.859112548828125,-0.011113038286566734,-0.004777449183166027,-0.01234967540949583
1733507097269130200,3.869130126953125,-0.007326023653149605,-0.007537815719842911,-0.005769005045294762
1733507097279147300,3.879147216796875,-0.006010687910020351,-0.006702115759253502,-0.0022400501184165478
1733507097289164300,3.889164306640625,-0.005053186789155006,-0.006778290495276451,-0.005847408901900053
1733507097299182000,3.89918212890625,-0.005851335823535919,-0.003797414479777217,-0.004439928103238344
1733507097309199400,3.909199462890625,-0.004316461272537708,-0.0025284274015575647,-0.0050198049284517765
1733507097319217200,3.919217041015625,-0.0011385113466531038,-0.0022336153779178858,-0.0033931462094187737
1733507097329234200,3.929234130859375,-0.0019668121822178364,-0.004038218874484301,-0.0020402614027261734
1733507097339252200,3.939252197265625,-0.0016224655555561185,-0.0009050099179148674,-0.0013560955412685871
1733507097349269200,3.949269287109375,-0.000294974772259593,-0.0005824917461723089,0.00005841604433953762
1733507097359287300,3.959287353515625,0.0010105068795382977,0.00028623128309845924,0.0009172855061478913
1733507097369304000,3.969303955078125,0.002128103282302618,0.0028762188740074635,-0.0010721472790464759
1733507097379322400,3.979322265625,0.002885239664465189,-0.001046617515385151,-0.004992054309695959
1733507097389339100,3.989339111328125,0.0008003648836165667,-0.0021702414378523827,-0.0029764685314148664
1733507097399356200,3.999356201171875,0.0021668330300599337,-0.0033545491751283407,-0.005145879462361336
1733507097409374200,4.009374267578125,-0.0005112234503030777,-0.0015577414305880666,-0.0033357825595885515
1733507097419391200,4.01939111328125,-0.0029235146939754486,-0.002972146263346076,0.0019652394112199545
1733507097429409300,4.0294091796875,0.00044264434836804867,-0.0024304776452481747,0.003336553927510977
1733507097439426300,4.03942626953125,-0.00017680693417787552,0.0002673044800758362,0.004329380579292774
1733507097449444400,4.0494443359375,-0.0026968796737492085,0.00669738557189703,0.003865835489705205
1733507097459461000,4.059461181640625,0.0005881295073777437,0.011308115907013416,-0.0009555512224324048
1733507097469479400,4.0694794921875,0.0012051276862621307,-0.0027057486586272717,0.004722306039184332
1733507097479496200,4.07949609375,-0.002594138029962778,-0.003927340731024742,0.003279139054939151
1733507097489514200,4.08951416015625,-0.002341272309422493,-0.00984162651002407,0.0036660463083535433
1733507097499531300,4.09953125,-0.005897924304008484,-0.009723648428916931,0.0005701214540749788
1733507097509548300,4.10954833984375,-0.010252038016915321,-0.010058497078716755,0.001582384924404323
1733507097519566300,4.11956640625,-0.006881008855998516,-0.004736702423542738,0.00207853177562356
1733507097529583000,4.1295830078125,-0.009109239093959332,-0.004727435763925314,0.0047743418253958225
1733507097539601400,4.139601318359375,-0.008365417830646038,-0.005801222287118435,0.005453447811305523
1733507097549618200,4.1496181640625,-0.007541302125900984,-0.0069766780361533165,0.00490185571834445
1733507097559636500,4.159636474609375,-0.005516767036169767,-0.003658645786345005,0.0036211414262652397
1733507097569653200,4.1696533203125,-0.005191328935325146,-0.00486345961689949,0.0036003687418997288
1733507097579671000,4.179671142578125,-0.006002527661621571,-0.003379546571522951,0.0009422677685506642
1733507097589688300,4.189688232421875,-0.003142178524285555,-0.0051362039521336555,0.0016566328704357147
1733507097599706000,4.1997060546875,-0.0037581678479909897,-0.003507680958136916,-0.000603591906838119
1733507097609723400,4.209723388671875,-0.0038772488478571177,-0.0033502336591482162,0.000560317886993289
1733507097619740200,4.219740234375,-0.005490591749548912,0.0004045572131872177,0.0023656748235225677
1733507097629758500,4.229758544921875,-0.004675227217376232,-0.0004764075856655836,0.005342130549252033
1733507097639775200,4.239775146484375,-0.0038493808824568987,0.0011414627078920603,0.0035546165890991688
1733507097649793000,4.24979296875,-0.004874583333730698,0.005171322263777256,0.005837051197886467
1733507097659810300,4.259810302734375,-0.002934204414486885,0.004381428472697735,0.006132661830633879
1733507097669828000,4.269828125,-0.003600071184337139,0.006348421331495047,0.0016902955248951912
1733507097679845400,4.279845458984375,-0.0019561017397791147,0.007677871268242598,-0.0003707248833961785
1733507097689863200,4.28986328125,-0.0026609832420945168,0.00992775522172451,-0.0028061841148883104
1733507097699880200,4.299880126953125,-0.0053822011686861515,0.011363731697201729,-0.0011997652472928166
1733507097709898200,4.309898193359375,-0.0052145556546747684,0.006528432480990887,-0.001622890355065465
1733507097719915300,4.319915283203125,-0.0018089052755385637,0.00615985132753849,0.00012068115756846964
1733507097729933300,4.329933349609375,-0.003685197327286005,0.00601152190938592,-0.0014526076847687364
1733507097739950000,4.3399501953125,-0.003193311393260956,0.00706640025600791,-0.002766877645626664
1733507097749967400,4.34996728515625,-0.0015175171429291368,0.005855790805071592,-0.0038361879996955395
1733507097759985200,4.359985107421875,-0.0012365536531433463,0.0061857555992901325,-0.0031749247573316097
1733507097770002200,4.370002197265625,-0.00017007242422550917,0.0029950581956654787,-0.004946031607687473
1733507097780020200,4.380020263671875,-0.002841223031282425,0.001639775699004531,-0.0027249555569142103
1733507097790037200,4.390037353515625,0.0017852783203125,0.0008077237289398909,0.007049747742712498
1733507097800055300,4.40005517578125,0.0011977849062532187,0.0007877498865127563,0.009753921069204807
1733507097810072000,4.410072021484375,-0.003941164817661047,-0.0017882897518575191,0.0033550390508025885
1733507097820090400,4.42009033203125,-0.0006457692943513393,-0.0011169067583978176,-0.0013755338732153177
1733507097830107100,4.430107177734375,-0.0030975325498729944,-0.0001377076841890812,-0.00461953179910779
1733507097840125400,4.44012548828125,-0.0008061487460508943,-0.0016202894039452076,-0.006868305150419474
1733507097850142200,4.45014208984375,-0.00041688967030495405,-0.0002684597857296467,-0.005954201798886061
1733507097860160300,4.46016015625,0.00000548770185559988,-0.002129210392013192,-0.003867881139740348
1733507097870177300,4.47017724609375,-0.000049489899538457394,-0.003236910328269005,-0.0030590808019042015
1733507097880194300,4.4801943359375,0.0012836884707212448,-0.006653745658695698,-0.00112109852489084
1733507097890212400,4.49021240234375,-0.004244213458150625,-0.007887488231062889,-0.003545531537383795
1733507097900229000,4.50022900390625,-0.002262288937345147,-0.008293087594211102,0.00046199298230931163
1733507097910247400,4.510247314453125,-0.0028995072934776545,-0.009966866113245487,0.0033725090324878693
1733507097920264200,4.52026416015625,-0.0019426335347816348,-0.0065218014642596245,-0.00021396990632638335
1733507097930282200,4.5302822265625,-0.00373296276666224,-0.0043058209121227264,-0.00020747310190927237
1733507097940299300,4.54029931640625,-0.0032725022174417973,-0.002984094200655818,-0.00134783866815269
1733507097950317000,4.550317138671875,-0.00347304018214345,0.0017316904850304127,-0.003455564845353365
1733507097960334300,4.560334228515625,-0.00315825454890728,0.0018390156328678131,-0.0018896261462941766
1733507097970352000,4.57035205078125,0.00018837046809494495,0.004987536463886499,0.00020840589422732592
1733507097980369400,4.580369384765625,-0.0021062090527266264,0.005567573476582766,0.0012632840080186725
1733507097990386200,4.59038623046875,0.0039047931786626577,0.002792053623124957,-0.0029393965378403664
1733507098000404500,4.600404541015625,-0.002987467683851719,0.005515402182936668,-0.0009473518002778292
1733507098010421200,4.610421142578125,-0.0003139203181490302,0.00567785557359457,-0.0008094001095741987
1733507098020439000,4.62043896484375,0.00157878827303648,0.006092242896556854,-0.0023574954830110073
1733507098030456300,4.630456298828125,-0.00011186266783624887,0.008028343319892883,-0.0040091355331242085
1733507098040474400,4.640474365234375,0.003226409899070859,0.006610475946217775,-0.002772363368421793
1733507098050491400,4.650491455078125,0.00435379846021533,0.003986885771155357,-0.0019094474846497178
1733507098060509400,4.660509521484375,0.003813975490629673,-0.0014531529741361737,-0.001526751322671771
1733507098070526500,4.6705263671875,0.002253097714856267,-0.009278332814574242,0.0011417982168495655
1733507098080544500,4.68054443359375,0.0004778343718498945,-0.01386855635792017,0.00446515716612339
1733507098090561300,4.690561279296875,-0.00254015508107841,-0.013701021671295166,0.0010518277995288372
1733507098100579300,4.700579345703125,-0.002534296130761504,-0.013499952852725983,0.0001697888656053692
1733507098110596400,4.710596435546875,-0.004074912518262863,-0.007914937101304531,-0.00004528659337665886
1733507098120614400,4.720614501953125,-0.00250684330239892,-0.003314059693366289,-0.0023132343776524067
1733507098130631400,4.73063134765625,-0.0001896668691188097,-0.0019703018479049206,-0.002424875507131219
1733507098140648400,4.7406484375,-0.0007627791492268443,-0.0026249068323522806,0.000016177858924493194
1733507098150666500,4.75066650390625,-0.00004070147406309843,-0.0025125304237008095,0.0043964385986328125
1733507098160683500,4.76068359375,-0.0012958492152392864,-0.0022012069821357727,0.0027692471630871296
1733507098170701300,4.770701416015625,-0.00045799731742590666,-0.00023835711181163788,0.0032356753945350647
1733507098180718300,4.78071826171875,-0.0009400294511578977,0.0002926771994680166,0.002344315405935049
1733507098190736400,4.790736328125,-0.0005751211429014802,-0.0010072937002405524,0.0027332413010299206
1733507098200753400,4.80075341796875,-0.003655599430203438,-0.0007388470694422722,0.0006959231686778367
1733507098210771200,4.810771240234375,-0.0024956034030765295,0.0019277578685432673,0.0012256790651008487
1733507098220788500,4.82078857421875,-0.0020170332863926888,0.0012704897671937943,-0.0005487852031365037
1733507098230806300,4.83080615234375,-0.004078641068190336,0.0031923088245093822,-0.0016988433199003339
1733507098240823300,4.8408232421875,-0.005421140696853399,0.0008034536149352789,0.0007531291339546442
1733507098250840300,4.85084033203125,-0.0035358888562768698,-0.0006213376764208078,0.0015094667905941606
1733507098260858400,4.8608583984375,-0.006537538021802902,0.0018580653704702854,0.003530539572238922
1733507098270875400,4.87087548828125,-0.0028009326197206974,0.0014860033988952637,0.004153239540755749
1733507098280893400,4.8808935546875,-0.005064619705080986,0.001684142742305994,0.001586751313880086
1733507098290910500,4.890910400390625,-0.0038016722537577152,0.0047252243384718895,0.005284497980028391
1733507098300928300,4.90092822265625,-0.0042200549505651,0.0053010000847280025,0.0021504894830286503
1733507098310945300,4.9109453125,-0.002879419829696417,0.004260769113898277,-0.0012178763281553984
1733507098320963300,4.92096337890625,-0.002275148406624794,0.00035950448364019394,0.0005754962330684066
1733507098330980400,4.93098046875,-0.0018076873384416103,-0.002333998680114746,-0.0031636343337595463
1733507098340998400,4.940998291015625,-0.001982923364266753,-0.00036698789335787296,-0.0009846361353993416
1733507098351015400,4.951015380859375,-0.0001404164358973503,-0.003050985047593713,-0.002387803979218006
1733507098361033500,4.961033447265625,-0.0016823867335915565,0.00030885892920196056,0.0013115929905325174
1733507098371050200,4.97105029296875,0.0006726281717419624,-0.0029707965441048145,0.003941784612834454
1733507098381067300,4.9810673828125,0.00022548343986272812,-0.0035564256832003593,0.00519853038713336
1733507098391085300,4.991085205078125,-0.0019428851082921028,-0.0053863851353526115,0.004266050178557634
1733507098401102300,5.001102294921875,0.000900305574759841,-0.00408596359193325,0.001941643189638853
1733507098411120400,5.011120361328125,0.0003376789391040802,-0.00610105786472559,0.0012695160694420338
1733507098421137400,5.021137451171875,0.00005511753261089325,-0.0013246785383671522,-0.0023838081397116184
1733507098431155500,5.031155517578125,-0.0008173154201358557,-0.0017393599264323711,-0.0016174045158550143
1733507098441172500,5.04117236328125,0.0007491558790206909,-0.0003342761192470789,-0.0011939618270844221
1733507098451190500,5.0511904296875,0.0005900119431316853,0.0032114197965711355,0.00023173418594524264
1733507098461207300,5.061207275390625,-0.0013189420569688082,0.004173886030912399,0.0012583828065544367
1733507098471225300,5.071225341796875,-0.0021464605815708637,0.0030906214378774166,0.0011459470260888338
1733507098481242400,5.081242431640625,-0.002058309968560934,0.0003302549012005329,-0.0008522226708009839
1733507098491260400,5.091260498046875,-0.0017825586255639791,-0.002522026654332876,-0.0015506857307627797
1733507098501277400,5.10127734375,-0.0019298314582556486,-0.0032450747676193714,-0.0035014511086046696
1733507098511294500,5.11129443359375,-0.0021633177530020475,-0.0045301602222025394,-0.00022730938508175313
1733507098521312500,5.1213125,-0.001858385861851275,-0.0031322669237852097,-0.004916603211313486
1733507098531329300,5.131329345703125,0.0005488675087690353,0.0010924064554274082,-0.0029004826210439205
1733507098541347300,5.141347412109375,-0.0018889900529757142,0.0014857552014291286,-0.0005403892137110233
1733507098551364400,5.1513642578125,-0.0023123600985854864,0.0012438301928341389,0.0031156502664089203
1733507098561382400,5.16138232421875,0.0005838274955749512,0.0019679435063153505,0.0022349427454173565
1733507098571399400,5.1713994140625,0.00014974968507885933,-0.0002638131845742464,0.0033121383748948574
1733507098581417200,5.181417236328125,0.002284273039549589,-0.0030785081908106804,-0.001509781228378415
1733507098591434500,5.1914345703125,-0.0013582620304077864,-0.0018307522404938936,-0.0017963905120268464
1733507098601452300,5.201452392578125,-0.0021076754201203585,-0.0044068279676139355,-0.00018864018784370273
1733507098611469300,5.21146923828125,0.0009162886999547482,-0.002863976638764143,-0.00047104019904509187
1733507098621487400,5.2214873046875,-0.001023824093863368,0.002100954530760646,0.0018927815835922956
1733507098631504400,5.23150439453125,0.00096745858900249,0.002246841322630644,0.0019328874768689275
1733507098641521400,5.241521484375,-0.00032923452090471983,0.005128114949911833,0.0037827189080417156
1733507098651539200,5.251539306640625,-0.0006463812896981835,0.0021008444018661976,0.002451830543577671
1733507098661556500,5.261556396484375,0.00398006197065115,-0.005892367102205753,0.0028427825309336185
1733507098671574300,5.27157421875,-0.0029480743687599897,-0.010096680372953415,0.0033045217860490084
1733507098681591300,5.28159130859375,-0.0053071025758981705,-0.014317524619400501,0.0012847802136093378
1733507098691609300,5.291609375,-0.0061877514235675335,-0.01127561554312706,-0.0023280633613467216
1733507098701626400,5.30162646484375,-0.006065778434276581,-0.0067162844352424145,-0.005014660302549601
1733507098711644400,5.31164453125,-0.0034959460608661175,-0.0019847385119646788,-0.00212379964068532
1733507098721661400,5.321661376953125,-0.003909268416464329,0.0003271515015512705,-0.0001703710004221648
1733507098731679500,5.331679443359375,-0.0022532206494361162,0.0005212866235524416,0.0035598124377429485
1733507098741696300,5.3416962890625,-0.00028967205435037613,-0.0014587736222893,0.005980093032121658
1733507098751714600,5.351714599609375,0.001480762381106615,-0.0031053503043949604,0.0036414116621017456
1733507098761731300,5.3617314453125,0.00011935457587242126,-0.004058229271322489,0.002755111549049616
1733507098771748400,5.371748291015625,0.00030927802436053753,-0.0032392344437539577,0.000007316295523196459
1733507098781766400,5.381766357421875,0.0011420485097914934,-0.00013798312284052372,-0.0017732731066644192
1733507098791783400,5.391783447265625,0.0008181703742593527,-0.00217817653901875,-0.003574793227016926
1733507098801801500,5.401801513671875,0.0014762375503778458,-0.0005001185927540064,-0.002944955602288246
1733507098811818200,5.411818359375,0.003498692065477371,0.0018824005965143442,0.00198529870249331
1733507098821836500,5.42183642578125,0.00038092932663857937,0.004731450229883194,0.0016526697436347604
1733507098831853300,5.431853271484375,-0.0017815512837842107,0.003279091790318489,0.003647803794592619
1733507098841871400,5.441871337890625,-0.004471610300242901,0.0058477106504142284,-0.00006277872307691723
1733507098851888400,5.451888427734375,-0.005165197886526585,0.002977235009893775,0.0009699416114017367
1733507098861906200,5.46190625,-0.002508428879082203,0.0007742682937532663,-0.00043780531268566847
1733507098871923500,5.47192333984375,-0.001009157975204289,0.0031712520867586136,0.00011133914813399315
1733507098881941200,5.481941162109375,-0.002613446209579706,0.004574471618980169,-0.0020503487903624773
1733507098891958500,5.49195849609375,-0.002522347727790475,0.0022367211058735847,0.0009376642992720008
1733507098901975300,5.501975341796875,-0.0024504424072802067,0.005254881922155619,-0.0002192129468312487
1733507098911993300,5.511993408203125,-0.0034317043609917164,0.0019016589503735304,0.0032390078995376825
1733507098922010400,5.52201025390625,-0.001232199720107019,0.0002997675910592079,0.0032121099065989256
1733507098932028400,5.5320283203125,-0.0015324149280786514,0.0005077417008578777,0.005269455257803202
1733507098942045400,5.54204541015625,-0.002296475926414132,0.0018140221945941448,0.0008067961316555738
1733507098952063200,5.552063232421875,-0.002587137743830681,-0.00016534165479242802,-0.0015551043907180429
1733507098962080500,5.56208056640625,0.00024326983839273453,-0.0019512574654072523,-0.0005684031639248133
1733507098972098300,5.572098388671875,0.002765257377177477,-0.003317155409604311,-0.0016373994294553995
1733507098982115300,5.582115234375,0.0036265235394239426,-0.0031333970837295055,-0.000984392361715436
1733507098992133400,5.59213330078125,0.002137154573574662,-0.003997261635959148,-0.0014915119390934706
1733507099002150400,5.602150390625,0.007034974172711372,-0.004286481067538261,0.0024142800830304623
1733507099012168400,5.61216845703125,0.003647302743047476,-0.003118087537586689,0.002296782098710537
1733507099022185200,5.622185302734375,0.007753630634397268,-0.008786626160144806,0.004437164403498173
1733507099032204000,5.6322041015625,0.004140153061598539,-0.005299869459122419,-0.0004769538063555956
1733507099042220800,5.642220703125,-0.0009206521208398044,-0.003947515971958637,-0.004716972354799509
1733507099052237800,5.65223779296875,0.0014805484097450972,-0.0022702666465193033,-0.0045064231380820274
1733507099062255900,5.662255859375,0.0017620446160435677,-0.00022256211377680302,-0.004547968506813049
1733507099072273000,5.67227294921875,-0.0025902383495122194,-0.0006207509431988001,-0.0023877155035734177
1733507099082291000,5.682291015625,-0.0021247179247438908,0.00068819266743958,0.001687719952315092
1733507099092307700,5.6923076171875,0.00008157268166542053,-0.0008129570633172989,0.003477520775049925
1733507099102326000,5.702325927734375,-0.0025158082135021687,0.00021875160746276379,-0.0007816729485057294
1733507099112342800,5.7123427734375,-0.001354113919660449,-0.0003289589658379555,0.003591877408325672
1733507099122360800,5.72236083984375,-0.0026217785198241472,0.0006316432263702154,0.000993697321973741
1733507099132377900,5.7323779296875,-0.0026013129390776157,0.004704341292381287,-0.0046639759093523026
1733507099142395600,5.742395751953125,-0.0025451204273849726,0.0025988465640693903,-0.003225069958716631
1733507099152413000,5.752412841796875,-0.0003479180159047246,0.0035860708449035883,-0.001245382591150701
1733507099162430700,5.7624306640625,-0.00008373241871595383,0.0016073423903435469,-0.003591094631701708
1733507099172448000,5.772447998046875,0.0014784950762987137,-0.0008015147177502513,-0.003305923193693161
1733507099182465800,5.7824658203125,0.000864103902131319,-0.00592730101197958,0.0005769654526375234
1733507099192482800,5.79248291015625,0.0009829229675233364,-0.007768003270030022,0.0009067179635167122
1733507099202499800,5.802499755859375,-0.00015957315918058157,-0.01103730034083128,-0.00016147593851201236
1733507099212517600,5.812517578125,0.0001673500519245863,-0.007181538734585047,0.0011135395616292953
1733507099222535000,5.822534912109375,-0.0018798218807205558,-0.0031050380785018206,0.001406487193889916
1733507099232552700,5.832552734375,0.0003349757753312588,0.00269608898088336,-0.0016621671384200454
1733507099242570000,5.842570068359375,0.001230863155797124,0.0033328509889543056,-0.0044923084788024426
1733507099252587800,5.852587890625,0.0029651315417140722,0.0035285651683807373,-0.004081702325493097
1733507099262604800,5.862604736328125,0.0013597779907286167,0.0009229283314198256,-0.0003759137762244791
1733507099272622800,5.872622802734375,0.0028553365264087915,-0.006890143267810345,0.0003955524298362434
1733507099282639600,5.8826396484375,-0.0005798750789836049,-0.00944624561816454,0.0039269039407372475
1733507099292658000,5.892657958984375,-0.0043233903124928474,-0.011187824420630932,0.0013889097608625889
1733507099302674700,5.9026748046875,-0.006122089456766844,-0.006375492550432682,0.0011020873207598925
1733507099312693000,5.91269287109375,-0.005454469937831163,-0.002750874264165759,-0.0005090184276923537
1733507099322709800,5.922709716796875,-0.003136188257485628,-0.00016228179447352886,-0.0026837559416890144
1733507099332726800,5.932726806640625,-0.0006131458794698119,-0.001282352372072637,-0.0022327753249555826
1733507099342744800,5.942744873046875,0.0012382837012410164,-0.005570574663579464,-0.0004905352834612131
1733507099352761900,5.952761962890625,0.00010013754945248365,-0.0066157374531030655,0.003493819385766983
1733507099362780000,5.96277978515625,0.00518278032541275,-0.00859526451677084,0.0028480025939643383
1733507099372796700,5.972796630859375,0.002500960137695074,-0.00972841214388609,0.004734372720122337
1733507099382815000,5.98281494140625,0.0023707314394414425,-0.009151571430265903,0.005897641181945801
1733507099392831700,5.992831787109375,0.004044828470796347,-0.00906187854707241,0.006468517705798149
1733507099402849800,6.002849853515625,0.0014748780522495508,-0.005968617275357246,0.0045393239706754684
1733507099412866800,6.01286669921875,0.001568303443491459,0.00001745368354022503,0.0024949738290160894
1733507099422884900,6.022884765625,0.0017320879269391298,0.003039075993001461,0.002298166276887059
1733507099432902000,6.03290185546875,-0.0000405280152335763,0.0054153031669557095,0.002260565757751465
1733507099442919700,6.042919677734375,-0.003148437011986971,0.00874931551516056,0.0020698835141956806
1733507099452937000,6.05293701171875,-0.0013191555626690388,0.0040702056139707565,0.0020856461487710476
1733507099462954800,6.062954833984375,-0.00495303887873888,0.0023500702809542418,0.004585288930684328
1733507099472972000,6.072971923828125,-0.002116044284775853,0.006621092092245817,0.001935923588462174
1733507099482988800,6.08298876953125,-0.002353864489123225,0.0028420668095350266,0.001988121774047613
1733507099493006600,6.093006591796875,-0.0030817301012575626,0.004937606863677502,0.00032034312607720494
1733507099503023900,6.10302392578125,-0.0002132392255589366,0.003313078312203288,0.00129612535238266
1733507099513041700,6.113041748046875,-0.003242697101086378,0.0024145650677382946,-0.001031583989970386
1733507099523059000,6.123058837890625,-0.0016671709017828107,0.002232937142252922,-0.002588201779872179
1733507099533076700,6.13307666015625,0.0007829547394067049,0.0013346255291253328,-0.00004866454401053488
1733507099543094000,6.143093994140625,-0.0007739291759207845,-0.0004978957585990429,-0.0013642660342156887
1733507099553111800,6.15311181640625,0.0007068389095366001,0.00031241984106600285,-0.001460830681025982
1733507099563128800,6.16312890625,0.0002786025870591402,0.0013052462600171566,-0.0012379242107272148
1733507099573147000,6.17314697265625,0.0012884822208434343,-0.0017913465853780508,-0.0006441472796723247
1733507099583163600,6.18316357421875,0.0013872855342924595,-0.003067533252760768,-0.0036276865284889936
1733507099593182000,6.193181884765625,0.002303309738636017,-0.003129173768684268,-0.0010732345981523395
1733507099603198700,6.20319873046875,0.0007091416046023369,-0.004224798176437616,-0.001074299798347056
1733507099613216800,6.213216796875,0.0009569006506353617,-0.006303246598690748,0.0006454088143073022
1733507099623233800,6.22323388671875,-0.0016111854929476976,-0.00653973501175642,-0.0004944241372868419
1733507099633250800,6.233250732421875,-0.0024163182824850082,-0.0050180512480437756,0.0002286238013766706
1733507099643268900,6.243268798828125,0.0001765354536473751,-0.0061064851470291615,0.0021325175184756517
1733507099653285600,6.25328564453125,-0.002965994644910097,-0.002793779131025076,-0.0008030848111957312
1733507099663304000,6.263303955078125,-0.0031018159352242947,0.0019546370021998882,-0.004424450919032097
1733507099673320700,6.27332080078125,-0.0016548256389796734,0.0025386589113622904,-0.0054884906858205795
1733507099683339000,6.283339111328125,-0.001192500814795494,0.000542353605851531,-0.003730537835508585
1733507099693355800,6.293355712890625,0.0006629643030464649,-0.0025329908821731806,-0.006585393100976944
1733507099703373800,6.303373779296875,-0.0020782274659723043,-0.0017265859059989452,-0.0027062324807047844
1733507099713390800,6.313390869140625,-0.0014859042130410671,-0.004508845508098602,0.0009706870187073946
1733507099723409000,6.323408935546875,0.0010504904203116894,-0.005763194523751736,0.00009930069791153073
1733507099733426000,6.333426025390625,0.00008850195445120335,-0.0038930403534322977,0.0010424870997667313
1733507099743443700,6.343443603515625,-0.0017173874657601118,-0.00304828560911119,0.0017096088267862797
1733507099753461000,6.3534609375,-0.0009452057420276105,-0.00041927676647901535,-0.0005444384878501296
1733507099763478800,6.363478759765625,-0.0009358846582472324,0.0008542467840015888,0.0012832889333367348
1733507099773495800,6.373495849609375,-0.00196550483815372,0.0015436650719493628,-0.0017282668268308043
1733507099783513900,6.383513916015625,0.0017610564827919006,0.0028193190228194,-0.0028675668872892857
1733507099793531000,6.39353076171875,0.001146620837971568,0.0016770139336585999,-0.006277796346694231
1733507099803548000,6.4035478515625,0.002794584957882762,0.0020069796591997147,-0.004834362771362066
1733507099813565700,6.413565673828125,0.0012065090704709291,-0.0005533266812562943,-0.0032643245067447424
1733507099823583000,6.4235830078125,0.0013955936301499605,0.0020459184888750315,-0.0001865093072410673
1733507099833600800,6.433600830078125,0.001526722451671958,0.0039262305945158005,0.0008532420033589005
1733507099843617800,6.44361767578125,-0.0006733149057254195,0.00481119891628623,0.0010961223160848022
1733507099853635800,6.4536357421875,-0.0009138053865171969,0.007042265497148037,-0.0018276554765179753
1733507099863652600,6.463652587890625,0.0015344386920332909,0.008305935189127922,0.0016680097905918956
1733507099873671000,6.4736708984375,0.0033170352689921856,0.004390460904687643,-0.001275845686905086
1733507099883687700,6.483687744140625,0.0028488514944911003,0.0021017403341829777,-0.0014460216043516994
1733507099893705700,6.493705810546875,0.001298390096053481,-0.007204733788967133,0.000229802040848881
1733507099903722800,6.50372265625,-0.0029927613213658333,-0.013440258800983429,0.0010788177605718374
1733507099913740800,6.51374072265625,-0.006126079708337784,-0.014569399878382683,0.0006217108457349241
1733507099923757800,6.5237578125,-0.004523655399680138,-0.00928622204810381,0.0019080175552517176
1733507099933776000,6.53377587890625,-0.006496204063296318,-0.003727730829268694,-0.0009821024723351002
1733507099943793000,6.54379296875,-0.006011242046952248,-0.00020570051856338978,0.0007382995681837201
1733507099953809700,6.5538095703125,-0.0044946493580937386,0.0019881930202245712,-0.00006405760359484702
1733507099963828000,6.563827880859375,-0.0011164292227476835,-0.0002885435242205858,-0.0023242824245244265
1733507099973844700,6.5738447265625,-0.0010652283672243357,-0.004098307341337204,0.0008537225075997412
1733507099983862800,6.58386279296875,0.00039711338467895985,-0.004121743142604828,0.0013219062238931656
1733507099993879800,6.5938798828125,0.0014383927918970585,-0.00371904531493783,0.0008292740094475448
1733507100003897900,6.60389794921875,0.0003121418412774801,0.002957765944302082,0.0007134265033528209
1733507100013915000,6.613914794921875,-0.0000643804669380188,0.0031299865804612637,0.0005510828923434019
1733507100023933000,6.623932861328125,-0.000007655122317373753,0.009733028709888458,0.0013148774160072207
1733507100033950700,6.63395068359375,0.0004099230282008648,0.01245627086609602,0.001260758494026959
1733507100043968800,6.64396875,-0.0006201876094564795,0.012547084130346775,0.0010993710020557046
1733507100053985500,6.653985595703125,0.00010382139589637518,0.015085488557815552,-0.0004050998541060835
1733507100064003600,6.664003662109375,-0.001740950276143849,0.012164532206952572,-0.002903677523136139
1733507100074020600,6.6740205078125,-0.003402658272534609,0.011234678328037262,-0.003207226749509573
1733507100084038700,6.68403857421875,-0.002039918676018715,0.008986438624560833,-0.0009334199130535126
1733507100094055700,6.6940556640625,-0.0009849895723164082,0.01240212470293045,-0.0008113395888358355
1733507100104073700,6.70407373046875,-0.00041374145075678825,0.012644472531974316,0.0007492727600038052
1733507100114090800,6.7140908203125,0.00003085075877606869,0.012357079423964024,0.005121980793774128
1733507100124107500,6.724107421875,-0.0005430604796856642,0.016957156360149384,0.004835691303014755
1733507100134125800,6.734125732421875,-0.0009390804334543645,0.010900755412876606,0.002829210367053747
1733507100144142600,6.744142578125,0.0010031629353761673,0.010052804835140705,0.0025389257352799177
1733507100154160600,6.75416064453125,0.002400829456746578,0.007072778418660164,-0.0006657048361375928
1733507100164177700,6.764177734375,0.003515362273901701,0.00864111352711916,-0.0011804938549175858
1733507100174195700,6.77419580078125,0.0012721337843686342,0.0052320873364806175,-0.0032626627944409847
1733507100184212700,6.784212646484375,0.001345903379842639,0.005942352116107941,-0.004481858108192682
1733507100194230800,6.794230712890625,0.0019213787745684385,0.007090763188898563,-0.0017706546932458878
1733507100204247800,6.804247802734375,0.003485186956822872,0.0068087344989180565,-0.0023152711801230907
1733507100214265600,6.814265625,0.005640283226966858,0.008104781620204449,-0.0005420821835286915
1733507100224282600,6.82428271484375,0.00598409678786993,0.006940980441868305,-0.0024845919106155634
1733507100234300700,6.83430078125,0.004311050288379192,0.008005796931684017,-0.004244517534971237
1733507100244317700,6.844317626953125,0.006028256379067898,0.006692858412861824,-0.005220300052314997
1733507100254335700,6.854335693359375,0.004253762774169445,0.009614774957299232,-0.007310451939702034
1733507100264352800,6.864352783203125,0.004627671092748642,0.009641406126320362,-0.008073980920016766
1733507100274369800,6.874369873046875,0.0040177246555686,0.009762722067534924,-0.0053090900182724
1733507100284387600,6.8843876953125,0.0036222455091774464,0.011173398233950138,-0.006813509855419397
1733507100294404900,6.89440478515625,0.0058133648708462715,0.011739118956029415,-0.005422328133136034
1733507100304422700,6.904422607421875,0.0048967041075229645,0.00887994933873415,-0.005134706385433674
1733507100314439700,6.914439697265625,0.003953670617192984,0.008781547658145428,-0.005253908224403858
1733507100324457700,6.924457763671875,0.004322252236306667,0.004357238300144672,-0.004451764281839132
1733507100334474800,6.934474853515625,0.0028883726336061954,0.016743391752243042,-0.007823220454156399
1733507100344492800,6.944492919921875,0.0061323693953454494,0.011927862651646137,-0.007368086837232113
1733507100354509600,6.954509521484375,0.005253053270280361,0.0021280087530612946,-0.0018215212039649487
1733507100364527600,6.964527587890625,0.005328686907887459,0.0002811066806316376,-0.002708620158955455
1733507100374544600,6.974544677734375,0.007194626610726118,0.003020901931449771,-0.0011887004366144538
1733507100384562700,6.984562744140625,0.0073413667269051075,0.004882451146841049,-0.0011815098114311695
1733507100394579700,6.994579833984375,0.007890325039625168,0.006421082653105259,-0.0013713882071897388
1733507100404597800,7.00459765625,0.009276500903069973,0.009232582524418831,-0.00173198024276644
1733507100414614800,7.01461474609375,0.008726337924599648,0.028519270941615105,-0.010621562600135803
1733507100424632800,7.0246328125,0.008658161386847496,0.015341684222221375,-0.007096601650118828
1733507100434649600,7.034649658203125,0.010550226084887981,0.008447596803307533,-0.001187155139632523
1733507100444666600,7.04466650390625,0.008477221243083477,0.009685700759291649,-0.002930194139480591
1733507100454684700,7.0546845703125,0.010009381920099258,0.010856500826776028,-0.0029602355789393187
1733507100464701700,7.06470166015625,0.008350498974323273,0.01102321408689022,-0.00016950906137935817
1733507100474719700,7.0747197265625,0.005112756043672562,0.013563538901507854,-0.0014419133076444268
1733507100484736800,7.08473681640625,0.007490426301956177,0.014791521243751049,0.0013008762616664171
1733507100494754800,7.0947548828125,0.005706063471734524,0.032603200525045395,-0.009135570377111435
1733507100504771600,7.104771484375,0.0057516032829880714,0.022143902257084846,-0.0035631719511002302
1733507100514789600,7.11478955078125,0.009604554623365402,-0.002126778941601515,-0.0011536518577486277
1733507100524806700,7.124806640625,0.005666538141667843,-0.006938844453543425,-0.0040940479375422
1733507100534824700,7.13482470703125,0.0070870062336325645,-0.011474521830677986,-0.00581737793982029
1733507100544841700,7.144841796875,0.006810836493968964,-0.01132245548069477,-0.0033523559104651213
1733507100554859500,7.154859619140625,0.006415308453142643,-0.010731148533523083,-0.002258172258734703
1733507100564876800,7.164876708984375,0.007485632784664631,-0.007056518457829952,0.00008434423943981528
1733507100574894600,7.17489453125,0.009529641829431057,-0.005971869919449091,0.0011444438714534044
1733507100584911600,7.18491162109375,0.010628195479512215,-0.004930041264742613,0.004278718493878841
1733507100594929700,7.1949296875,0.007497583050280809,0.002053945092484355,0.002440548501908779
1733507100604946700,7.20494677734375,0.009797489270567894,0.007269212976098061,0.0006596927414648235
1733507100614964700,7.21496484375,0.00475695775821805,0.01242583617568016,-0.0022003815975040197
1733507100624981800,7.224981689453125,0.0065143778920173645,0.009513136930763721,-0.0024826766457408667
1733507100634998800,7.234998779296875,0.006473131477832794,0.0018197405152022839,0.0018427246250212193
1733507100645016600,7.2450166015625,0.003916230518370867,0.0036719688214361668,-0.0027048892807215452
1733507100655033600,7.25503369140625,0.004883818328380585,0.004693605005741119,-0.0012577289016917348
1733507100665051600,7.2650517578125,0.004906987771391869,0.005135157145559788,-0.002087836153805256
1733507100675068700,7.275068603515625,0.003502290928736329,0.008098815567791462,0.0006991607369855046
1733507100685086700,7.285086669921875,0.002448211656883359,0.006566433236002922,0.0030462045688182116
1733507100695103700,7.295103759765625,0.003142910310998559,0.005515988916158676,0.0036115946713835
1733507100705121800,7.305121826171875,0.0032989715691655874,0.006506152451038361,-0.0006926061469130218
1733507100715138600,7.315138671875,0.0050722761079669,0.003797460813075304,-0.00006372750794980675
1733507100725156900,7.325156982421875,0.005610500928014517,0.005538901314139366,-0.0006118060555309057
1733507100735173600,7.335173583984375,0.004350747913122177,0.005281621590256691,-0.0006482376484200358
1733507100745192000,7.34519189453125,0.0031603151001036167,0.00726194866001606,0.0018111916724592447
1733507100755208700,7.355208740234375,0.0068080006167292595,0.003653555177152157,0.001977854873985052
1733507100765226500,7.3652265625,0.006040744483470917,0.004154761787503958,0.0022082182113081217
1733507100775243800,7.375243896484375,0.005667462944984436,0.002029283670708537,0.0023015893530100584
1733507100785261600,7.385261474609375,0.005754814483225346,0.0010654854122549295,0.002104781800881028
1733507100795278800,7.39527880859375,0.0047919247299432755,0.00010005082003772259,0.0022694733925163746
1733507100805296600,7.405296630859375,0.004840394482016563,-0.0001713251695036888,0.0018478952115401626
1733507100815314000,7.41531396484375,0.005207503214478493,0.00013343640603125095,0.0018319119699299335
1733507100825330700,7.42533056640625,0.0047494396567344666,-0.0003307526931166649,0.001228439505212009
1733507100835348500,7.435348388671875,0.0033056780230253935,-0.002564659807831049,-0.002416360890492797
1733507100845365800,7.44536572265625,0.0010680898558348417,-0.002987303538247943,0.00008274949504993856
1733507100855383600,7.455383544921875,0.001065865159034729,-0.002889822470024228,-0.0032961631659418344
1733507100865400800,7.46540087890625,0.0005260424222797155,-0.0020706341601908207,-0.00455770269036293
1733507100875418600,7.475418701171875,-0.00126413453835994,-0.0022131132427603006,-0.002372845308855176
1733507100885435600,7.485435546875,-0.0017405740218237042,-0.003352679777890444,-0.004921756684780121
1733507100895453700,7.49545361328125,-0.004521298222243786,-0.006341614760458469,-0.002571413991972804
1733507100905470700,7.505470703125,-0.0005880758399143815,-0.008908901363611221,-0.003877960843965411
1733507100915488800,7.51548876953125,-0.0031117736361920834,-0.012234540656208992,-0.0035084187984466553
1733507100925505500,7.525505615234375,-0.004392754286527634,-0.012662775814533234,-0.0021824308205395937
1733507100935523800,7.53552392578125,-0.0028794831596314907,-0.011713741347193718,-0.0009884772589430213
1733507100945540600,7.54554052734375,-0.0034272954799234867,-0.010471642948687077,-0.0012755660573020577
1733507100955558700,7.55555859375,-0.004479667171835899,-0.007438444532454014,0.001293633133172989
1733507100965575700,7.56557568359375,-0.0018173051066696644,-0.006157197058200836,0.0012741921236738563
1733507100975593700,7.57559375,-0.003907337784767151,-0.004831504076719284,-0.0030436431989073753
1733507100985610800,7.58561083984375,-0.005210688803344965,-0.006046971306204796,-0.002036968246102333
1733507100995628500,7.595628662109375,-0.00370329269208014,-0.004272326827049255,-0.0021926527842879295
1733507101005645800,7.605645751953125,-0.006349941715598106,-0.0014786709798499942,-0.0009859745623543859
1733507101015662600,7.61566259765625,-0.004681973718106747,-0.0021906946785748005,-0.0007877334719523787
1733507101025681000,7.625680908203125,-0.006389591842889786,0.002458119299262762,-0.002091617090627551
1733507101035696400,7.6356962890625,-0.004051743075251579,0.0014130279887467623,-0.0017418882343918085
1733507101045714400,7.64571435546875,-0.0016844595083966851,0.0008678790181875229,0.0011202110908925533
1733507101055731200,7.655731201171875,-0.0022364547476172447,0.0009935989510267973,0.0017121776472777128
1733507101065749500,7.66574951171875,0.0002935484517365694,0.0008188956417143345,0.00002772817970253527
1733507101075766300,7.675766357421875,-0.00277109257876873,0.0026209894567728043,0.002212109509855509
1733507101085784300,7.685784423828125,-0.004608407616615295,0.00013785832561552525,0.0010461778147146106
1733507101095801300,7.69580126953125,-0.0013837424339726567,0.002125500002875924,0.003152519464492798
1733507101105819400,7.7058193359375,-0.0031773815862834454,0.001375553896650672,-0.00044567734585143626
1733507101115836400,7.71583642578125,-0.004001034423708916,-0.0012150179827585816,0.004004789050668478
1733507101125854200,7.725854248046875,-0.0004925857065245509,-0.009039118885993958,0.001649755984544754
1733507101135871500,7.73587158203125,-0.00454358384013176,-0.01468187291175127,0.0060983034782111645
1733507101145889300,7.74588916015625,-0.0064626578241586685,-0.017866481095552444,0.003270559012889862
1733507101155906600,7.755906494140625,-0.008240347728133202,-0.019053127616643906,0.003917277324944735
1733507101165924400,7.76592431640625,-0.010771682485938072,-0.016888776794075966,0.00301686255261302
1733507101175941400,7.77594140625,-0.01033998467028141,-0.01149800606071949,0.0023521375842392445
1733507101185959400,7.78595947265625,-0.010107222944498062,-0.012363798916339874,0.0034709316678345203
1733507101195976200,7.79597607421875,-0.00919679831713438,-0.010110460221767426,0.00261994288302958
1733507101205993500,7.805993408203125,-0.006408735178411007,-0.008227339014410973,0.002010079100728035
1733507101216011300,7.81601123046875,-0.005563886370509863,-0.011583730578422546,0.0036989497020840645
1733507101226028500,7.826028564453125,-0.004545493517071009,-0.005394278094172478,0.0005958345718681812
1733507101236046300,7.83604638671875,-0.0040763383731245995,-0.003397163935005665,0.003351246938109398
1733507101246063400,7.8460634765625,-0.0037908474914729595,-0.003522066166624427,0.0008750398992560804
1733507101256081400,7.856081298828125,-0.005110820289701223,-0.00543817225843668,0.0005497599486261606
1733507101266098200,7.86609814453125,-0.0040383655577898026,-0.0012492863461375237,0.003293614834547043
1733507101276116500,7.876116455078125,-0.004192546475678682,-0.004020067863166332,0.0006325320573523641
1733507101286133200,7.88613330078125,-0.004048735834658146,-0.0023875501938164234,0.0012461243895813823
1733507101296151300,7.8961513671875,-0.006427142769098282,0.001702580600976944,-0.00019091906142421067
1733507101306168300,7.906168212890625,-0.00854941550642252,-0.0016612582840025425,-0.0012649719137698412
1733507101316186400,7.916186279296875,-0.004646209068596363,-0.0014657634310424328,-0.00079737463966012
1733507101326203400,7.926203369140625,-0.005240093916654587,-0.0013933255104348063,0.000013291573850437999
1733507101336221400,7.936221435546875,-0.002492965664714575,-0.0020116926170885563,-0.0004094057949259877
1733507101346238500,7.946238525390625,-0.0014990739291533828,-0.00017570937052369118,0.0005037921364419162
1733507101356256300,7.95625634765625,-0.005996305495500565,0.00022154860198497772,0.001887946156784892
1733507101366273300,7.966273193359375,-0.003596264636144042,0.0000497747678309679,0.0036653399001806974
1733507101376291300,7.976291259765625,-0.003329745028167963,-0.002768696518614888,0.0014732943382114172
1733507101386308400,7.986308349609375,-0.005977459717541933,-0.003292274195700884,-0.0006455165566876531
1733507101396326400,7.996326416015625,-0.007278054021298885,0.00083694770000875,-0.0034014617558568716
1733507101406343400,8.006343505859375,-0.0030292468145489693,0.0013107240665704012,-0.005074193235486746
1733507101416360400,8.0163603515625,-0.0034601460210978985,0.001324838725849986,-0.002232600236311555
1733507101426378200,8.026378173828125,-0.004451907239854336,0.0025096789468079805,-0.0006046098424121737
1733507101436395500,8.0363955078125,-0.004164583049714565,-0.0010873951250687242,-0.000059090860304422677
1733507101446413300,8.046413330078124,-0.003346460172906518,-0.001470091287046671,0.002140680095180869
1733507101456430300,8.056430419921876,-0.0029671951197087765,-0.005065948702394962,-0.0005625318735837936
1733507101466448400,8.066448486328126,-0.00045104045420885086,0.00033068074844777584,-0.0012791885528713465
1733507101476465400,8.07646533203125,-0.002463716082274914,-0.00358303333632648,-0.002768751000985503
1733507101486483500,8.0864833984375,0.00010277226101607084,-0.004981192760169506,0.00006591749843209982
1733507101496500200,8.096500244140625,-0.002476327121257782,-0.0007249192567542195,-0.0024575877469033003
1733507101506518300,8.106518310546875,-0.0018475549295544624,-0.0021318672224879265,-0.001397116924636066
1733507101516535300,8.116535400390624,-0.00014692277181893587,-0.002144698752090335,-0.0010485071688890457
1733507101526553300,8.12655322265625,-0.002823399845510721,-0.002831794321537018,-0.0005861823447048664
1733507101536570400,8.1365703125,-0.003970865160226822,-0.0004326668567955494,-0.0011378875933587551
1733507101546588400,8.14658837890625,-0.000017935060895979404,0.0021543276961892843,-0.0013485436793416739
1733507101556605400,8.15660546875,-0.004433547146618366,-0.00015957839787006378,0.0013931895373389125
1733507101566623500,8.16662353515625,-0.0006063181208446622,0.0016170165035873652,-0.001393009559251368
1733507101576640300,8.17664013671875,-0.0013963055098429322,0.0008942442946135998,-0.002343385713174939
1733507101586658600,8.186658447265625,-0.003411519341170788,0.0017067745793610811,-0.0038667137268930674
1733507101596675300,8.19667529296875,-0.0011955512454733253,0.0012208335101604462,0.0002933004579972476
1733507101606693400,8.206693359375,-0.0016453592106699944,0.004274413920938969,0.0017532453639432788
1733507101616710400,8.21671044921875,-0.0019996839109808207,0.002415964612737298,0.0018515196861699224
1733507101626727400,8.2267275390625,-0.0032764035277068615,0.0063270824030041695,-0.000729349791072309
1733507101636745500,8.236745361328126,-0.0019297366961836815,0.00596223957836628,-0.002276540268212557
1733507101646762500,8.246762451171875,-0.00010653655044734478,0.005259964615106583,-0.0028286136221140623
1733507101656780500,8.256780517578125,0.001463741296902299,0.0027219904586672783,-0.0047022015787661076
1733507101666797300,8.26679736328125,0.0023194150999188423,-0.002327895490452647,-0.00573710585013032
1733507101676815400,8.2768154296875,0.002635844750329852,-0.002563405316323042,-0.004924730397760868
1733507101686832400,8.286832275390625,0.0020233173854649067,-0.004390333779156208,-0.0004663325962610543
1733507101696850200,8.29685009765625,0.0003474690020084381,-0.006807665806263685,0.00012163887731730938
1733507101706867500,8.306867431640624,-0.0020312664564698935,-0.0020097149536013603,0.00033762125531211495
1733507101716885200,8.31688525390625,0.001776989782229066,0.0016720567364245653,0.0025813376996666193
1733507101726902500,8.326902587890626,-0.001762883854098618,0.003643328556790948,0.004269781522452831
1733507101736920300,8.33692041015625,0.0007110056467354298,0.005976174026727676,-0.001274502370506525
1733507101746937300,8.346937255859375,0.0012247294653207064,0.0050856126472353935,-0.00013493583537638187
1733507101756955400,8.356955322265625,0.002744861878454685,-0.0055225566029548645,-0.004838344641029835
1733507101766972400,8.366972412109375,-0.00126905448269099,-0.00980278942734003,-0.0018031399231404066
1733507101776990500,8.376990478515625,-0.0032519022934138775,-0.014148631133139133,0.0015535118291154504
1733507101787007200,8.38700732421875,-0.00836117658764124,-0.009117387235164642,-0.00006569002289324999
1733507101797025500,8.397025634765624,-0.007918653078377247,-0.0054531339555978775,0.002587190829217434
1733507101807042300,8.407042236328126,-0.007590285502374172,-0.002538836793974042,0.0007892907015047967
1733507101817060400,8.417060302734376,-0.007111715618520975,0.00007505598478019238,0.0017405718099325895
1733507101827077400,8.427077392578125,-0.005429130047559738,-0.0018077989807352424,0.0023203419987112284
1733507101837094400,8.437094482421875,-0.00022796133998781443,-0.003784958738833666,0.003303529229015112
1733507101847112400,8.447112548828125,-0.0012631320860236883,-0.005405492149293423,0.0006366398301906884
1733507101857129200,8.457129150390625,0.0017980141565203667,-0.005145340226590633,-0.0018152237171307206
1733507101867147500,8.4671474609375,0.0014904190320521593,-0.005564255174249411,-0.005093042738735676
1733507101877164300,8.477164306640624,0.0026442580856382847,-0.0018499060533940792,-0.00334265548735857
1733507101887182600,8.4871826171875,0.004347615875303745,-0.005308553576469421,-0.002446768106892705
1733507101897199400,8.497199462890626,0.0060805645771324635,-0.0026078997179865837,-0.0014820076758041978
1733507101907217200,8.507217041015625,0.0020227059721946716,-0.0009202545043081045,-0.0006692109163850546
1733507101917234400,8.517234375,0.0012450958602130413,0.0007552460301667452,0.004416994284838438
1733507101927252200,8.527252197265625,-0.0022108883131295443,0.004725752864032984,0.0005210562376305461
1733507101937269500,8.53726953125,0.0008096531964838505,0.0033177686855196953,0.0012705220142379403
1733507101947287300,8.547287353515625,-0.004467933438718319,0.0034895422868430614,-0.0021119588054716587
1733507101957304600,8.5573046875,-0.003352663479745388,0.004481522366404533,-0.0021843949798494577
1733507101967322400,8.567322265625,-0.0013742012670263648,0.0048839254304766655,-0.0032669699285179377
1733507101977339400,8.57733935546875,-0.0017730646068230271,0.0034383810125291348,-0.0025184096302837133
1733507101987357400,8.587357421875,0.00034894212149083614,0.003638650756329298,0.0008715282892808318
1733507101997374200,8.597374267578125,-0.003331703133881092,0.004829578101634979,0.003757704049348831
1733507102007392500,8.607392578125,-0.0005428408039733768,0.00499735726043582,0.0037150937132537365
1733507102017409300,8.6174091796875,-0.0003097840817645192,0.0011990985367447138,0.0065818834118545055
1733507102027427300,8.62742724609375,0.0007115381304174662,0.0016041654162108898,0.0021107024513185024
1733507102037444600,8.637444580078125,0.0011207882780581713,0.00017073028720915318,0.0013202691916376352
1733507102047462400,8.64746240234375,0.0006004066672176123,0.00029376824386417866,-0.001378578250296414
1733507102057479700,8.657479736328124,0.0019739249255508184,-0.00021522864699363708,-0.0022373918909579515
1733507102067497500,8.66749755859375,-0.0008556838147342205,0.000022325199097394943,-0.00023016729392111301
1733507102077514800,8.6775146484375,0.0024552822578698397,-0.004101913422346115,0.0030730084981769323
1733507102087531500,8.687531494140625,0.0008685707580298185,-0.004152779933065176,0.0012053336249664426
1733507102097549600,8.697549560546875,0.0025322476867586374,-0.0015178483445197344,0.0012247746344655752
1733507102107566600,8.707566650390625,0.0039269449189305305,-0.0020696553401649,0.0006681740051135421
1733507102117584400,8.71758447265625,0.00006573821883648634,-0.002401360310614109,-0.0021826927550137043
1733507102127601700,8.7276015625,0.0039451648481190205,-0.0033670226112008095,-0.0013661675620824099
1733507102137619500,8.737619384765624,0.002555637154728174,-0.003663737094029784,-0.004724306054413319
1733507102147636700,8.74763671875,0.0005079328548163176,-0.0037718615494668484,-0.004402862396091223
1733507102157654500,8.757654541015626,0.003152984194457531,-0.004143105819821358,-0.002251827158033848
1733507102167671800,8.767671875,0.0017548247706145048,-0.0032623987644910812,-0.0022028249222785234
1733507102177689600,8.777689697265625,0.0013031368143856525,-0.001215197960846126,-0.002599849831312895
1733507102187706400,8.787706298828125,0.0012717116624116898,-0.00018428824841976166,0.0005429463926702738
1733507102197724700,8.797724609375,-0.0015799072571098804,-0.0012772588524967432,-0.0006324127316474915
1733507102207741400,8.807741455078125,-0.0000749549362808466,-0.001711354125291109,0.0017899986123666167
1733507102217759500,8.817759521484374,-0.0014013501349836588,-0.0021332663018256426,-0.00026244332548230886
1733507102227776500,8.827776611328124,-0.0030168236698955297,0.0020308522507548332,-0.0015950890956446528
1733507102237794600,8.837794677734376,0.0010181786492466927,0.0011337101459503174,0.0009149899706244469
1733507102247811600,8.8478115234375,0.00046530645340681076,0.001088170101866126,-0.0015020950231701136
1733507102257829600,8.85782958984375,-0.002956339158117771,0.004012083634734154,0.0018801719415932894
1733507102267846700,8.8678466796875,-0.0017967987805604935,0.003722597612068057,0.0012785637518391013
1733507102277864400,8.877864501953125,-0.0031044906936585903,0.0038928568828850985,-0.0007253490039147437
1733507102287881700,8.8878818359375,-0.0005931300111114979,0.004635079763829708,0.0009268761496059597
1733507102297899500,8.8978994140625,0.001212787814438343,0.004076023586094379,0.0008751089917495847
1733507102307916500,8.90791650390625,0.002214935375377536,0.0001531869638711214,0.000473238033009693
1733507102317933600,8.91793359375,0.0017335948068648577,-0.002735238056629896,-0.0010352862300351262
1733507102327951600,8.92795166015625,0.0008430336602032185,-0.0050993263721466064,0.001137054292485118
1733507102337968600,8.93796875,-0.00012696476187556982,-0.004966022912412882,0.002535630948841572
1733507102347986400,8.947986328125,0.0027332701720297337,-0.002151061547920108,0.00292285461910069
1733507102358003700,8.958003662109375,0.0011258753947913647,0.00004507298581302166,0.006249633617699146
1733507102368021500,8.968021484375,0.001840667799115181,-0.00222127721644938,0.005539635196328163
1733507102378038500,8.97803857421875,0.0013579200021922588,-0.003395813051611185,0.002931482857093215
1733507102388056600,8.988056640625,0.0019051996059715748,-0.007266185246407986,0.0037828953936696053
1733507102398073600,8.998073486328124,0.0017506098374724388,-0.011356896720826626,0.002359973732382059
1733507102408091600,9.008091552734374,-0.0021684980019927025,-0.010345694608986378,0.0017429193248972297
1733507102418108400,9.0181083984375,-0.005215310491621494,-0.011774888262152672,0.0009544043568894267
1733507102428126500,9.02812646484375,-0.006460604257881641,-0.009904017671942711,-0.00009434844832867384
1733507102438143500,9.0381435546875,-0.004662046208977699,-0.004344203509390354,0.0015203822404146194
1733507102448161500,9.04816162109375,-0.0035664215683937073,-0.0005755641032010317,-0.0014690160751342773
1733507102458178600,9.058178466796875,-0.003085301723331213,0.002159642055630684,-0.0018275226466357708
1733507102468196600,9.068196533203125,-0.0027697172481566668,-0.00030298298224806786,0.003286545630544424
1733507102478213600,9.078213623046874,0.00033941539004445076,0.0005039942916482687,0.0015010529896244407
1733507102488231700,9.088231689453124,0.00097431312315166,0.00028641405515372753,0.002681099809706211
1733507102498248700,9.098248779296876,0.00013048481196165085,0.00031687086448073387,0.0007787978393025696
1733507102508266800,9.108266845703126,0.000978435156866908,-0.002988111926242709,-0.00029658660059794784
1733507102518283500,9.118283447265625,0.000783303752541542,-0.0010911235585808754,-0.0030125323683023453
1733507102528301600,9.128301513671875,0.002882407046854496,-0.0009901897283270955,-0.0037635439075529575
1733507102538318600,9.138318603515625,0.0000952036352828145,-0.0028742256108671427,-0.00047980621457099915
1733507102548336400,9.14833642578125,0.0014329093974083662,0.00044007832184433937,-0.00034105553640984
1733507102558353700,9.158353759765625,-0.0018683597445487976,0.001220946665853262,-0.0006105161737650633
1733507102568371500,9.168371337890624,-0.0027567902579903603,0.0023072499316185713,0.00031253547058440745
1733507102578388700,9.178388671875,0.00004486984107643366,0.0029599613044410944,0.0018978639272972941
1733507102588406500,9.188406494140626,-0.003968779928982258,0.003983680158853531,0.00033538739080540836
1733507102598423600,9.198423583984376,-0.001967493910342455,0.0036534289829432964,-0.001689359312877059
1733507102608440600,9.208440673828125,-0.0025736293755471706,0.004762369208037853,-0.0005173021927475929
1733507102618458600,9.218458740234375,-0.001248361193574965,0.0029732773546129465,0.0002943746803794056
1733507102628475600,9.2284755859375,-0.00003928609658032656,0.00442949403077364,0.0011175577528774738
1733507102638493400,9.238493408203125,0.0004964969120919704,0.0011517622042447329,0.002046888926997781
1733507102648510500,9.248510498046874,0.0001580091193318367,-0.00037422915920615196,-0.0019225524738430977
1733507102658528500,9.258528564453124,-0.001099269138649106,-0.0007947422564029694,-0.00003570286207832396
1733507102668545500,9.268545654296876,-0.0010454733856022358,0.0005179296713322401,-0.0015502425376325846
1733507102678563600,9.2785634765625,-0.0022522651124745607,0.0016951868310570717,0.0005964866140857339
1733507102688580600,9.28858056640625,0.0007200890686362982,-0.0002987219486385584,0.0022851971443742514
1733507102698598700,9.2985986328125,0.0018406538292765617,0.0020680390298366547,-0.00025988026754930615
1733507102708615400,9.308615478515625,-0.000017433660104870796,0.0023782975040376186,-0.00011393903696443886
1733507102718633700,9.3186337890625,0.00017429934814572334,0.0006507344078272581,0.0004576264473143965
1733507102728650500,9.328650390625,-0.0001881567295640707,-0.0012568878009915352,-0.0012673030141741037
1733507102738668800,9.338668701171875,0.0010563237592577934,-0.001252064830623567,0.0022752853110432625
1733507102748685600,9.348685546875,-0.00011253764387220144,0.0007200059480965137,-0.003912569489330053
1733507102758703400,9.358703369140626,-0.00017026462592184544,0.003247660119086504,-0.002622270956635475
1733507102768720600,9.368720703125,0.0009727641008794308,-0.0004397525917738676,-0.0019096089527010918
1733507102778738400,9.378738525390625,0.0025908518582582474,-0.004136830102652311,-0.0036910458002239466
1733507102788755700,9.388755615234375,0.001587106380611658,-0.003615383291617036,-0.0011226932983845472
1733507102798773500,9.3987734375,0.0023778779432177544,-0.003655311418697238,-0.0018596446607261896
1733507102808790800,9.408790771484375,-0.00003015215042978525,-0.0020472947508096695,-0.001464964123442769
1733507102818808600,9.41880859375,0.0004702701698988676,-0.0031924829818308353,0.00017522549023851752
1733507102828825600,9.42882568359375,0.0010969119612127542,-0.003534166608005762,-0.0011102823773398995
1733507102838843600,9.43884375,0.0014300441835075617,-0.0034614037722349167,0.001886409125290811
1733507102848860400,9.4488603515625,-0.00022857263684272766,0.00012800446711480618,-0.0011858134530484676
1733507102858877700,9.458877685546875,0.00038450188003480434,0.000899759354069829,0.0008788839331828058
1733507102868895500,9.4688955078125,-0.00005625118501484394,0.00008483207784593105,-0.0012657598126679659
1733507102878912800,9.478912841796875,-0.00004763540346175432,0.0009338383097201586,-0.00015506107592955232
1733507102888930600,9.4889306640625,0.00015476485714316368,0.0009175930172204971,-0.00010206416482105851
1733507102898947600,9.498947509765625,0.0005124418530613184,0.00002753501757979393,0.0006552876438945532
1733507102908965600,9.508965576171875,-0.0010612200712785125,-0.0008166871266439557,0.0013277358375489712
1733507102918982400,9.518982421875,-0.0009936693822965026,0.001398806693032384,-0.000042887404561042786
1733507102929000700,9.529000732421874,0.0004961029626429081,0.005334425717592239,0.004268504213541746
1733507102939017500,9.539017578125,0.0006782773416489363,0.006348794791847467,0.0036143807228654623
1733507102949035500,9.549035400390625,0.0016343521419912577,0.006826566066592932,0.0028367377817630768
1733507102959052500,9.559052490234375,0.0010853218846023083,0.002906785113736987,0.001596282236278057
1733507102969070600,9.569070556640625,0.0026962680276483297,0.0006801162380725145,0.003902579890564084
1733507102979087600,9.579087646484375,-0.0001003175275400281,-0.004988422151654959,0.002279382897540927
1733507102989105400,9.58910546875,0.0010315258987247944,-0.0047647166065871716,0.0032836610917001963
1733507102999122700,9.599122802734374,-0.0022602833341807127,-0.0028038988821208477,0.0024914280511438847
1733507103009140500,9.609140380859374,0.0006849064957350492,-0.0012299705995246768,0.004877087660133839
1733507103019157800,9.61915771484375,0.00014911126345396042,-0.0005406381096690893,0.0061411247588694096
1733507103029175600,9.629175537109376,0.0020913544576615095,-0.0020288124214857817,0.004974127281457186
1733507103039192600,9.639192626953125,0.0037636426277458668,-0.003465684363618493,0.0059611001051962376
1733507103049210600,9.649210693359375,0.0007715808460488915,-0.006863611750304699,0.004206343088299036
1733507103059227400,9.659227294921875,0.00019573059398680925,-0.0096000786870718,0.0010870408732444048
1733507103069245700,9.66924560546875,-0.0016282685101032257,-0.009500741958618164,-0.0009468152420595288
1733507103079262500,9.679262451171875,-0.003533407114446163,-0.010967819020152092,-0.00027000377303920686
1733507103089280500,9.689280517578124,-0.005235433578491211,-0.0076681626960635185,0.0020687843207269907
1733507103099297500,9.699297607421874,-0.003368021920323372,-0.0072317784652113914,-0.0004842198686674237
1733507103109315600,9.709315673828126,-0.0026721381582319736,-0.004392848815768957,-0.0008144518360495567
1733507103119332600,9.71933251953125,-0.0011603354942053556,-0.004860924556851387,0.003631260944530368
1733507103129350700,9.7293505859375,-0.0006010716315358877,-0.0029280020389705896,0.0009803504217416048
1733507103139367700,9.73936767578125,0.0034341667778789997,-0.003058289410546422,0.0016625500284135342
1733507103149385700,9.7493857421875,0.0037713232450187206,-0.002566669834777713,0.0007173941121436656
1733507103159402500,9.759402587890625,0.002209410769864917,-0.0032888215500861406,-0.0007292416994459927
1733507103169420500,9.769420654296875,0.003988668322563171,-0.0007950374856591225,-0.0012142033083364367
1733507103179437600,9.7794375,0.0012918226420879364,-0.0002169627696275711,-0.005001211538910866
1733507103189455600,9.78945556640625,0.0020162025466561317,0.0003982274793088436,-0.0027540363371372223
1733507103199472600,9.79947265625,0.0003354379441589117,0.002495821099728346,-0.0018611911218613386
1733507103209489700,9.80948974609375,-0.0017330392729490995,0.005058847367763519,-0.00014797959011048079
1733507103219507500,9.819507568359375,-0.0030225557275116444,0.004880061373114586,0.0030433989595621824
1733507103229524700,9.829524658203125,-0.004989566281437874,0.003243548795580864,0.0028862725012004375
1733507103239542500,9.83954248046875,-0.002310800366103649,0.004877171479165554,0.0019916072487831116
1733507103249559600,9.8495595703125,-0.005428030621260405,0.004913389682769775,-0.001806060434319079
1733507103259577600,9.85957763671875,-0.006114672403782606,0.005860124249011278,-0.003955975640565157
1733507103269594600,9.8695947265625,-0.005546886473894119,0.004237459972500801,-0.0020757841411978006
1733507103279612400,9.8796123046875,-0.005305352620780468,0.0022369229700416327,0.0009413623483851552
1733507103289629400,9.88962939453125,-0.0030123707838356495,0.00016631511971354485,0.0007152599282562733
1733507103299647500,9.8996474609375,-0.002367856912314892,-0.00006703659892082214,0.00216365116648376
1733507103309664500,9.90966455078125,-0.0037271343171596527,0.0007343085017055273,0.0002387183194514364
1733507103319682600,9.9196826171875,-0.001971247373148799,-0.0004659290425479412,0.0009316691430285573
1733507103329699600,9.929699462890625,-0.0018071967642754316,0.0018901696894317865,0.0011351346038281918
1733507103339717600,9.939717529296875,-0.0027698357589542866,0.0015551343094557524,-0.0003299761738162488
1733507103349734700,9.949734619140624,0.00020225183106958866,0.001386822434142232,-0.0012852519284933805
1733507103359752700,9.959752685546874,-0.001396083738654852,0.001847006380558014,-0.0030718063935637474
1733507103369769500,9.96976953125,-0.00004586111754179001,0.0008624359034001827,-0.002455018227919936
1733507103379787800,9.979787841796876,0.0011779405176639557,0.002826537238433957,-0.0046404628083109856
1733507103389804500,9.989804443359375,0.0027358895167708397,0.003592994762584567,-0.0011692986590787768
1733507103399822600,9.999822509765625,-0.0012614508159458637,0.0026513496413826942,-0.0041757444851100445
1733507103409839600,10.009839599609375,0.002568973693996668,0.0038966438733041286,-0.001074227038770914
1733507103419857400,10.019857421875,0.003824920393526554,0.003908894490450621,-0.0041155568324029446
1733507103429874700,10.029874755859375,0.001218484714627266,0.005871644243597984,-0.003477729856967926
1733507103439892500,10.039892578125,0.0015197459142655134,0.002438179450109601,-0.0025314469821751118
1733507103449909800,10.04990966796875,0.0016102935187518597,0.003413428785279393,-0.004374886862933636
1733507103459927600,10.059927490234376,0.0018914297688752413,0.00729659479111433,-0.0019355920376256108
1733507103469944600,10.069944580078126,0.0025737318210303783,0.007187671028077602,-0.004653614014387131
1733507103479962600,10.079962646484375,-0.00022758229169994593,0.005707801319658756,-0.003104989882558584
1733507103489979400,10.0899794921875,0.0008920105174183846,0.00795577559620142,-0.0023715554270893335
1733507103499997700,10.099997802734375,0.0023371849674731493,0.006308678537607193,-0.002861102344468236
1733507103510014500,10.110014404296875,0.0011486161965876818,0.007444782182574272,0.0011632005916908383
1733507103520032800,10.12003271484375,0.002371302805840969,0.007655114866793156,0.001141526154242456
1733507103530049500,10.130049560546874,0.0023185722529888153,0.005617796443402767,-0.0010510542197152972
1733507103540067600,10.140067626953124,0.006261130794882774,0.00458339462056756,-0.0021267561241984367
1733507103550084600,10.150084716796876,0.004402510356158018,0.00661112554371357,0.001192075083963573
1733507103560102400,10.160102294921876,0.004309220239520073,0.0032331524416804314,-0.0014811510918661952
1733507103570119700,10.17011962890625,0.0031909591052681208,0.004274182487279177,-0.0002869896707125008
1733507103580137500,10.180137451171875,0.001992932055145502,0.006253275088965893,-0.0025488194078207016
1733507103590154800,10.19015478515625,0.003336496651172638,0.008506042882800102,-0.0019392217509448528
1733507103600172500,10.200172607421875,0.004232974722981453,0.009721659123897552,-0.004030540119856596
1733507103610189600,10.210189453125,0.005789059214293957,0.010605028830468655,-0.002501353155821562
1733507103620207600,10.22020751953125,0.008222533389925957,0.008745678700506687,0.0003923790354747325
1733507103630224400,10.230224365234376,0.009239861741662025,0.007797593250870705,0.0006850603967905045
1733507103640242700,10.24024267578125,0.006232689134776592,0.005789155140519142,0.0017364895902574062
1733507103650259500,10.250259521484375,0.006263049319386482,0.007274133153259754,0.0028440982569009066
1733507103660277500,10.260277587890625,0.005049419589340687,0.008793260902166367,0.004147558007389307
1733507103670294500,10.27029443359375,0.007339206524193287,0.004341254476457834,0.0022425991483032703
1733507103680312600,10.2803125,0.004376252181828022,0.005182833410799503,0.004016741644591093
1733507103690329600,10.29032958984375,0.00908898189663887,0.0026112848427146673,0.0014862061943858862
1733507103700347600,10.30034765625,0.0037719670217484236,-0.0015906213084235787,0.002912646159529686
1733507103710364700,10.31036474609375,0.007103049196302891,-0.005394414067268372,0.004397890996187925
1733507103720382700,10.3203828125,0.004168286453932524,-0.007639547809958458,0.0020048890728503466
1733507103730399500,10.3303994140625,0.00009950902312994003,-0.009169001132249832,-0.0015887804329395294
1733507103740417500,10.34041748046875,0.0016929167322814465,-0.0065470109693706036,-0.0012600496411323547
1733507103750434600,10.3504345703125,-0.0000783517025411129,-0.003742702305316925,0.00007126459968276322
1733507103760452600,10.36045263671875,0.0012712201569229364,-0.002692480105906725,-0.0009610180277377367
1733507103770469600,10.3704697265625,0.00516849011182785,0.000763770192861557,-0.0004896385362371802
1733507103780486700,10.380486572265625,0.008278409019112587,0.0004487880505621433,0.0029204790480434895
1733507103790504400,10.39050439453125,0.01094583235681057,0.0026781202759593725,0.0009060639422386885
1733507103800522500,10.4005224609375,0.006920263171195984,0.003382575698196888,0.0026166082825511694
1733507103810539500,10.41053955078125,0.009784226305782795,0.004964226856827736,0.000312174903228879
1733507103820556500,10.420556640625,0.010068613104522228,0.0072368597611784935,0.00048571647494100034
1733507103830574600,10.43057470703125,0.008281099610030651,0.007782008498907089,-0.002024845452979207
1733507103840591600,10.440591552734375,0.00569574162364006,0.007640969939529896,-0.004634113982319832
1733507103850609700,10.450609619140625,0.00828087143599987,0.007251082919538021,-0.003677773056551814
1733507103860626400,10.46062646484375,0.0062819309532642365,0.005751930642873049,-0.0023393696174025536
1733507103870644500,10.47064453125,0.005538642406463623,0.010165853425860405,-0.0058142622001469135
1733507103880661500,10.48066162109375,0.005931179039180279,0.012579240836203098,-0.005997703410685062
1733507103890679600,10.490679443359374,0.0038611036725342274,0.01219334825873375,-0.006647248286753893
1733507103900696600,10.500696533203126,0.004702676087617874,0.012204503640532494,-0.004151917062699795
1733507103910714600,10.510714599609376,0.00419614277780056,0.015223463997244835,-0.005945023614913225
1733507103920731600,10.520731689453125,0.006388003937900066,0.011208501644432545,-0.0014981321291998029
1733507103930749700,10.530749755859375,0.006464969366788864,0.008440944366157055,-0.0023596647661179304
1733507103940766500,10.540766357421875,0.007849760353565216,0.003923610784113407,-0.00017325501539744437
1733507103950784800,10.55078466796875,0.0066300323233008385,0.00034725177101790905,0.00013434007996693254
1733507103960801500,10.560801513671874,0.005982751026749611,-0.001455608755350113,-0.0015527819050475955
1733507103970819600,10.570819580078124,0.007825925014913082,0.0007638696115463972,-0.0028662527911365032
1733507103980836600,10.580836669921876,0.009913202375173569,-0.0005745957605540752,-0.002552642021328211
1733507103990854400,10.5908544921875,0.010273794643580914,0.0019117312040179968,-0.0026346673257648945
1733507104000871700,10.60087158203125,0.009939196519553661,0.003084694966673851,-0.0002672092814464122
1733507104010889500,10.610889404296875,0.010395928286015987,0.0035142628476023674,-0.0013516484759747982
1733507104020906800,10.62090673828125,0.010309163480997086,0.003260277211666107,-0.00041417055763304234
1733507104030924500,10.630924560546875,0.009873736649751663,0.004063220228999853,-0.002555085811764002
1733507104040942000,10.640942138671875,0.008719667792320251,0.004991933703422546,-0.002938640071079135
1733507104050960000,10.6509599609375,0.008816605433821678,0.004091518931090832,-0.007009548135101795
1733507104060977000,10.660976806640624,0.008615592494606972,0.005670654587447643,-0.005376699846237898
1733507104070995000,10.670994873046874,0.008152734488248825,0.005283164791762829,-0.0034387176856398582
1733507104081011700,10.68101171875,0.008422765880823135,0.003963331691920757,-0.0008450148743577302
1733507104091029800,10.69102978515625,0.006634453311562538,0.004487708210945129,0.0003283739206381142
1733507104101046800,10.701046875,0.008268858306109905,0.006983760744333267,-0.001248335000127554
1733507104111064800,10.71106494140625,0.006278146058320999,0.005388527177274227,-0.001948213903233409
1733507104121081900,10.721081787109375,0.008370446972548962,0.006237741094082594,-0.003993196878582239
1733507104131100000,10.731099853515625,0.004492086358368397,0.02133307047188282,-0.012299862690269947
1733507104141117000,10.741116943359375,0.00635614013299346,0.013585895299911499,-0.005442912224680185
1733507104151135000,10.751135009765624,0.006558539811521769,0.0024626704398542643,-0.000766933779232204
1733507104161152000,10.761152099609374,0.007177671417593956,-0.0008277448359876871,0.0019161555683240294
1733507104171169800,10.771169677734376,0.007580341771245003,-0.0025297710672020912,0.0028993948362767696
1733507104181186800,10.781186767578125,0.004282761365175247,-0.0025925023946911097,0.0009349826141260564
1733507104191204900,10.791204833984375,0.002688859822228551,-0.0033203442580997944,0.002189331455156207
1733507104201222000,10.801221923828125,0.006781832315027714,-0.004367874935269356,0.0004608436138369143
1733507104211240000,10.811239990234375,0.004354361444711685,-0.00002053077332675457,-0.00010854018910322338
1733507104221257000,10.821257080078125,0.002018822357058525,0.00441104918718338,-0.0023394247982650995
1733507104231274800,10.831274658203125,0.0016478439792990685,0.0027849229518324137,-0.001694673439487815
1733507104241291800,10.841291748046874,0.0025216799695044756,0.001921938732266426,-0.0014285582583397627
1733507104251309800,10.851309814453124,0.00197040569037199,0.0034370110370218754,0.0020138435065746307
1733507104261326800,10.861326904296876,0.0011679145973175764,-0.001690659555606544,0.00007911279681138694
1733507104271345000,10.871344970703126,-0.00011626165360212326,-0.0025460668839514256,0.004050684627145529
1733507104281362000,10.88136181640625,-0.0007512909360229969,-0.004331615753471851,0.0044778455048799515
1733507104291380000,10.8913798828125,-0.003423773217946291,-0.000421029981225729,0.0025443900376558304
1733507104301396700,10.901396728515625,-0.004385973326861858,0.0014588951598852873,0.0020389221608638763
1733507104311415000,10.9114150390625,-0.0064168996177613735,0.004145491868257523,0.003223496489226818
1733507104321431800,10.921431884765624,-0.004734141752123833,0.0012903271708637476,0.0012656458420678973
1733507104331449900,10.931449951171874,-0.005335750058293343,-0.0003973180428147316,-0.000996443210169673
1733507104341467000,10.941466796875,-0.005684039555490017,-0.004311553202569485,0.0002978995908051729
1733507104351484700,10.951484619140626,-0.008130685426294804,-0.010284490883350372,0.0007045643287710845
1733507104361502000,10.961501953125,-0.006778370589017868,-0.016642363741993904,0.00430506095290184
1733507104371519700,10.971519775390625,-0.010509725660085678,-0.017714019864797592,0.004463518969714642
1733507104381537000,10.981537109375,-0.009083270095288754,-0.01697600819170475,0.0017247197683900595
1733507104391554800,10.991554931640625,-0.012329930439591408,-0.01309924479573965,0.0014980847481638193
1733507104401571800,11.00157177734375,-0.009427630342543125,-0.00931832566857338,0.0008885378483682871
1733507104411590000,11.01158984375,-0.007092304527759552,-0.00805971585214138,0.004455575719475746
1733507104421606700,11.021606689453124,-0.0058194724842906,-0.009261373430490494,0.0013309989590197802
1733507104431625000,11.031625,-0.0041683129966259,-0.010538360103964806,0.00383516913279891
1733507104441641700,11.041641845703126,-0.003009385196492076,-0.00992159079760313,0.0004761793534271419
1733507104451660000,11.051659912109375,-0.006174285896122456,-0.006371330935508013,-0.000323834246955812
1733507104461676800,11.0616767578125,-0.0050192466005682945,-0.0050536589697003365,-0.000057352197472937405
1733507104471694800,11.07169482421875,-0.003051703330129385,-0.00277452589944005,-0.0002541597932577133
1733507104481711900,11.0817119140625,-0.00536993145942688,-0.00009397417306900024,-0.0004357421421445906
1733507104491730000,11.09172998046875,-0.004629306495189667,-0.0006513737607747316,0.00008623741450719535
1733507104501747000,11.101746826171874,-0.007990762591362,0.0018698710482567549,-0.0005547348409891129
1733507104511764700,11.1117646484375,-0.005936932284384966,0.0005087293684482574,-0.0020074890926480293
1733507104521782000,11.121781982421876,-0.00578233553096652,0.0005243420600891113,-0.0016900307964533567
1733507104531799800,11.1317998046875,-0.006644933484494686,0.00016588065773248672,-0.0005917432135902345
1733507104541816800,11.14181689453125,-0.007753221783787012,-0.0025762473233044147,-0.0010135467164218426
1733507104551835000,11.1518349609375,-0.007873862981796265,-0.003067600540816784,-0.00026626366889104247
1733507104561852000,11.161851806640625,-0.0068439906463027,-0.0038221334107220173,0.002578956075012684
1733507104571870000,11.171869873046875,-0.008289555087685585,-0.003749162657186389,0.0020133010111749172
1733507104581886700,11.18188671875,-0.00726350536569953,-0.003041344229131937,0.004301493521779776
1733507104591904800,11.19190478515625,-0.0060421801172196865,-0.0010996335186064243,0.0037821773439645767
1733507104601921800,11.201921875,-0.006159133277833462,-0.0013155265478417277,0.005647873040288687
1733507104611939800,11.21193994140625,-0.005803867243230343,-0.0012366969604045153,0.0023804407101124525
1733507104621956900,11.221956787109375,-0.005871990695595741,-0.0029071513563394547,-0.002460055984556675
1733507104631974000,11.231973876953125,-0.0038173620123416185,-0.002449087565764785,-0.0021228999830782413
1733507104641992000,11.241991943359375,-0.004468278028070927,-0.0027043945156037807,-0.002763239433988929
1733507104652008700,11.2520087890625,-0.004696777556091547,-0.0016140964580699801,-0.0022505808155983686
1733507104662027000,11.262027099609375,-0.0029904767870903015,-0.0002971931826323271,-0.00132331857457757
1733507104672043800,11.272043701171874,-0.004728455562144518,-0.0009323570411652327,-0.00291775306686759
1733507104682061800,11.282061767578124,-0.0013302620500326157,0.0028464023489505053,-0.0005954766529612243
1733507104692078800,11.292078857421876,-0.002792337443679571,0.0016578335780650377,-0.00036830903263762593
1733507104702097000,11.302096923828126,-0.005455139093101025,-0.0014540802221745253,0.0008060394902713597
1733507104712114000,11.312114013671875,-0.003533401992172003,-0.0019425039645284414,-0.0017420731019228697
1733507104722132000,11.322132080078125,-0.003718026215210557,-0.0017484098207205534,0.00008139849524013698
1733507104732149000,11.33214892578125,-0.002370466710999608,-0.0026629394851624966,-0.00042833053157664835
1733507104742166800,11.342166748046875,-0.004372857511043549,-0.0022495067678391933,0.0004173189518041909
1733507104752183800,11.352183837890625,-0.007486625574529171,-0.003971506841480732,-0.0006849634228274226
1733507104762201900,11.362201904296874,-0.004587281960994005,-0.002681048819795251,0.0012388082686811686
1733507104772219000,11.372218994140624,-0.004442139528691769,0.0009597586467862129,0.0018769018352031708
1733507104782237000,11.38223681640625,-0.00450343219563365,-0.0008716071024537086,0.000436548754805699
1733507104792254000,11.39225390625,-0.004987594671547413,-0.00022472534328699112,0.0010176504729315639
1733507104802271700,11.402271728515625,-0.004565483890473843,-0.0010021020425483584,0.002097828546538949
1733507104812288800,11.412288818359375,-0.004224066622555256,-0.0018263503443449736,0.0041870782151818275
1733507104822306800,11.422306884765625,-0.0035792887210845947,-0.003950547426939011,0.00529005890712142
1733507104832323800,11.43232373046875,-0.004541222006082535,-0.0029763630591332912,0.0013067690888419747
1733507104842342000,11.442341796875,-0.0019414995331317186,-0.005006837658584118,-0.000566542730666697
1733507104852359000,11.45235888671875,-0.004092535004019737,0.00018233153969049454,-0.001459500752389431
1733507104862377000,11.462376953125,-0.0026934545021504164,0.0006093666888773441,-0.0007649088511243463
1733507104872393700,11.472393798828126,-0.0049342382699251175,0.004539393354207277,0.0010223385179415345
1733507104882412000,11.482412109375,-0.002618475118651986,0.005773637909442186,-0.0008445767452940345
1733507104892428800,11.4924287109375,-0.003142052562907338,0.008030135184526443,0.0020856992341578007
1733507104902446800,11.50244677734375,-0.0015942355385050178,0.005708953365683556,0.0012287438148632646
1733507104912464000,11.5124638671875,-0.004908805713057518,0.0015477645210921764,-0.0015974027337506413
1733507104922481700,11.522481689453125,-0.0016882710624486208,-0.000343019375577569,-0.002815698739141226
1733507104932499000,11.5324990234375,-0.003996699117124081,-0.0018082907190546393,-0.0006577393505722284
1733507104942516700,11.542516845703124,-0.005920993164181709,-0.0009033888345584273,-0.002252063248306513
1733507104952534000,11.552533935546874,-0.006846441421657801,0.0034538088366389275,-0.0006549655226990581
1733507104962551800,11.5625517578125,-0.0029300772584974766,0.002394383307546377,0.0005570946377702057
1733507104972568800,11.57256884765625,-0.0045058694668114185,0.004890830721706152,0.0006577621097676456
1733507104982587000,11.5825869140625,-0.003426280803978443,0.002371931681409478,-0.0004000886983703822
1733507104992604000,11.59260400390625,-0.001771392417140305,-0.010247456841170788,0.001479304046370089
1733507105002622000,11.6026220703125,-0.004123031627386808,-0.01470489427447319,0.003759058192372322
1733507105012638700,11.612638671875,-0.0070695532485842705,-0.020448800176382065,0.003499399870634079
1733507105022657000,11.622656982421875,-0.00562262674793601,-0.019037630409002304,-0.0004957638448104262
1733507105032673800,11.632673828125,-0.008041310124099255,-0.017661042511463165,-0.00003104220377281308
1733507105042691600,11.642691650390624,-0.005986348260194063,-0.011161495000123978,0.0016789839137345552
1733507105052708600,11.65270849609375,-0.0038201333954930305,-0.005137158557772636,-0.00024222052888944745
1733507105062726700,11.6627265625,-0.005234961397945881,-0.0018762415274977684,0.002805468160659075
1733507105072743700,11.67274365234375,-0.0031153513118624687,0.0002028881572186947,0.00575305474922061
1733507105082761700,11.68276171875,0.0003869695356115699,0.0014346607495099306,0.0013379004085436463
1733507105092778800,11.69277880859375,0.0028874115087091923,0.0017294723074883223,-0.00038117001531645656
1733507105102796800,11.702796875,0.00509067066013813,0.0009256701450794935,-0.004030333831906319
1733507105112813800,11.712813720703124,0.002490093931555748,-0.0000479815062135458,-0.003030583029612899
1733507105122831600,11.72283154296875,0.0012403902364894748,0.0008270626422017813,-0.0035871220752596855
