time,seconds_elapsed,z,y,x
1733706832878697000,0.068697021484375,0.02435658875182271,-0.23538404236733912,0.5646364549994468
1733706832888717000,0.078717041015625,0.018352964422851798,-0.04919570032358169,-0.20981471682488917
1733706832898738000,0.088738037109375,0.06380991660952567,-0.001115267765522003,-0.7435539292573928
1733706832908758000,0.098758056640625,0.05380348637998104,-0.02364917113482952,-0.951354383650422
1733706832918777900,0.10877783203125,-0.003412292661517858,-0.10716741229891777,0.011771101814508437
1733706832928798000,0.1187978515625,-0.008110095088928937,-0.02450608022511005,0.26175124028921126
1733706832938818800,0.12881884765625,0.09764978849962354,-0.07865326547622681,0.20482757606208324
1733706832948839000,0.1388388671875,0.17208397497609257,-0.30723581113517284,0.6764718591094017
1733706832958858800,0.148858642578125,0.22870880238711833,-0.46257133427560326,1.2055074238955974
1733706832968879900,0.1588798828125,0.23137641416117546,-0.2588561033695936,0.47897301850020885
1733706832978900000,0.16889990234375,0.144662007304281,-0.09177811998724937,-0.1607043566972017
1733706832988919800,0.178919921875,0.018534604600071905,-0.07769406505525112,-0.599847469112277
1733706832998941000,0.18894091796875,-0.07892565267682075,0.016782207974791526,-0.6255570799082517
1733706833008960800,0.198960693359375,-0.04440963509082794,-0.017263269490003584,-0.26330256138443947
1733706833018980900,0.20898095703125,0.05222878440916538,-0.12013444589972495,0.24250118089616296
1733706833029000700,0.219000732421875,0.015689590432494877,-0.19458324542343616,0.5405658435821533
1733706833039021800,0.229021728515625,-0.004575198961049318,-0.17754852399230003,0.43393852950930595
1733706833049041700,0.239041748046875,0.060098348740488285,-0.11125731196105479,0.06918459538519382
1733706833059061800,0.249061767578125,0.08417334407195448,-0.09229717542529106,-0.36935295235216614
1733706833069082600,0.25908251953125,0.005237316131591796,-0.16955401810705661,-0.6751274587631225
1733706833079102700,0.269102783203125,-0.05480316494181752,-0.22929566236436366,-0.6165630415916442
1733706833089122800,0.279122802734375,-0.07062851058319211,-0.4470552007138729,-0.1657943733125925
1733706833099143700,0.289143798828125,-0.14250453700944782,-0.580106411331892,0.3212432936996221
1733706833109163800,0.299163818359375,-0.1709906267814338,-0.6401607748001813,0.49995150912106034
1733706833119184000,0.309183837890625,-0.04286693569347262,-0.6499100153982639,0.5237503178596497
1733706833129203700,0.31920361328125,0.10498656112849712,-0.6437690284252167,0.5160574252694845
1733706833139224800,0.329224853515625,0.2183155647970736,-1.5398714804530143,0.47518531665503977
1733706833149244700,0.33924462890625,0.07190276830270886,-1.081201829791069,0.8364069849997758
1733706833159264800,0.3492646484375,0.06588511544838548,-0.7185895838707685,0.5861299094051122
1733706833169286000,0.359285888671875,0.11631678730770945,-0.7780132482200861,0.4470762435019016
1733706833179305700,0.3693056640625,0.17511223675608634,-0.948409562370181,0.38961774174571034
1733706833189325800,0.379325927734375,0.38241526302099227,-1.0785188743174074,0.4662199199110269
1733706833199346700,0.3893466796875,0.4590158337511122,-0.980922423440218,0.41202889551818367
1733706833209366800,0.39936669921875,0.20456395668983457,-0.6463666437029838,0.3542588435947895
1733706833219387000,0.409386962890625,-0.22974106804430483,-0.20084522842764854,0.176285956710577
1733706833229407700,0.41940771484375,-0.44299211599342525,0.08194178562760353,-0.07031272263228892
1733706833239427800,0.429427734375,-0.44441944538280365,0.1644137326091528,-0.31612814264297484
1733706833249448000,0.439447998046875,-0.20976853959560393,0.15172610047161578,-0.303318929952383
1733706833259467800,0.4494677734375,0.12484518087394535,0.3036252194225788,-0.25377310101687905
1733706833269489000,0.459489013671875,0.13054368477649986,0.24466624997556208,-0.2265051548629999
1733706833279508700,0.4695087890625,-0.07201302374415099,-0.6724655460774898,0.29701018519699574
1733706833289528800,0.47952880859375,-0.13175466800145805,-0.9327718482553958,0.16756255202889442
1733706833299549700,0.4895498046875,-0.1589063673645258,-1.7204969276726245,0.8467255499184131
1733706833309569800,0.49956982421875,-0.06315700565874577,-2.2664275131583214,1.6318424926638602
1733706833319590000,0.50958984375,-0.12680376759581266,-1.3015472929805516,1.4474579851716756
1733706833329610800,0.51961083984375,-0.16333054048232734,-0.9829816940575837,1.2183066997140646
1733706833339630800,0.529630859375,-0.14819098514802753,-1.4307552721738814,0.6471425965115427
1733706833349651000,0.53965087890625,-0.06955993150360881,-1.774168896627426,0.33907442620545625
1733706833359670800,0.5496708984375,0.011771101814508437,-1.898458708640933,0.0902262143701315
1733706833369692000,0.55969189453125,-0.06833579653613268,-1.9319436296135186,-0.02811024219691753
1733706833379711700,0.569711669921875,-0.17962058102600276,-2.006864722824097,-0.13823825786709784
1733706833389731800,0.57973193359375,-0.2999954115528613,-1.8752327313542365,-0.1271118836969137
1733706833399753000,0.5897529296875,-0.21973631831519305,-1.4360685761511325,-0.15017010320127008
1733706833409772800,0.599772705078125,-0.14856084137372672,-1.0434972452968359,-0.04449292946010828
1733706833419793000,0.60979296875,-0.12744148097746075,-0.6914058088690042,0.0826639624223113
1733706833429813800,0.619813720703125,-0.23531733380667863,-0.2884446014255285,0.10023410590440034
1733706833439833900,0.629833740234375,-0.30920214277207847,0.06995499523580073,0.0738911656409502
1733706833449854000,0.63985400390625,-0.2488653821658343,0.41771629350483414,0.11091185952425002
1733706833459874800,0.649874755859375,-0.07629998034834862,0.8253829021602869,0.1454413211137056
1733706833469895000,0.65989501953125,0.04733041790835559,1.2051502810209989,0.1078042488977313
1733706833479915000,0.6699150390625,0.12006138066351413,1.6324726072609423,-0.10891980892419814
1733706833489934800,0.679934814453125,0.21161562876701354,2.1769980021238324,-0.29313392828553914
1733706833499956000,0.6899560546875,0.10127601617276669,3.493807161644101,-0.8102738880947232
1733706833509975800,0.699975830078125,-0.07611994760632515,4.744192422664165,-1.3188643384844063
1733706833519996000,0.709995849609375,-0.006100143506005406,5.918052077886462,-1.9233678167089818
1733706833530017000,0.72001708984375,-0.3448333915909752,7.0713862469524145,-2.4670196436077356
1733706833540036900,0.730036865234375,-0.3756424078851938,5.920359185785054,-0.9046145520463585
1733706833550057000,0.740056884765625,-0.3168745405634865,0.7782564093261957,-0.06722673931568861
1733706833560077800,0.750077880859375,-0.188934425881505,-2.092322992140055,-0.6477250725746154
1733706833570098000,0.760097900390625,0.09805234141852706,-1.3977683638513088,-0.5201633992835879
1733706833580118000,0.770117919921875,0.08950959053337573,-0.2161795756816864,0.1952060534968972
1733706833590139000,0.780138916015625,-0.1027174471527338,-0.014607786545157432,0.4110258559554815
1733706833600159000,0.790158935546875,-0.2048948326120153,-0.09716098206937313,0.174857385212183
1733706833610179000,0.800178955078125,-0.18262801921367644,-0.20472177760004995,-0.04474252030700445
1733706833620199000,0.810198974609375,-0.0888835310569033,-0.3384767525732517,-0.2562558577433228
1733706833630220000,0.820219970703125,0.03806936268601566,-0.37994507351517676,-0.3071002020567655
1733706833640239900,0.830239990234375,-0.026232100300118327,-0.3307920432895422,-0.24407471382319926
1733706833650260000,0.840260009765625,-0.17197974741663782,-0.10292319885790348,-0.31994244023412466
1733706833660280800,0.85028076171875,-0.2891664676929824,0.06398936482965946,-0.4748223285615444
1733706833670301000,0.860301025390625,-0.34227439129054543,-0.0062216509938240044,-0.5447431292667985
1733706833680321000,0.870321044921875,-0.3687058866202831,-0.16478081235587597,-0.5583408619865775
1733706833690342000,0.880341796875,-0.3468067740231752,-0.22830431323945521,-0.47770197565108535
1733706833700362000,0.890362060546875,-0.42569443277716634,-0.2205044531434774,-0.46645928162485356
1733706833710382000,0.900382080078125,-0.41582536519169805,-0.3247685452163219,-0.3730576520889997
1733706833720402000,0.91040185546875,-0.3923042043507099,-0.3247352274686098,-0.4004904334157705
1733706833730423000,0.920423095703125,-0.4587339480698108,-0.29606852043271065,-0.4934446114450693
1733706833740443000,0.93044287109375,-0.34569501338899133,-0.31086335398256776,-0.4407818195328116
1733706833750462700,0.940462646484375,-0.24945757590532303,-0.28064006515443324,-0.4283075378850102
1733706833760484000,0.950484130859375,-0.3994114060074091,-0.19085048863589762,-0.5072527720451354
1733706833770504000,0.96050390625,-0.4068190519154072,-0.19172493338286875,-0.5064873406305909
1733706833780523800,0.970523681640625,-0.28971535201370713,-0.2702028422921896,-0.43504269135892387
1733706833790545000,0.980544921875,-0.3334592166721821,-0.18530688303411005,-0.5629366653442383
1733706833800564700,0.990564697265625,-0.44112814875245093,-0.1786959404617548,-0.7003259051665663
1733706833810584800,1.000584716796875,-0.39025253251791,-0.19597791465222836,-0.7300897597894072
1733706833820605000,1.01060498046875,-0.2159317384004593,-0.30274609850049017,-0.6364674732401967
1733706833830625800,1.020625732421875,-0.3101999216377735,-0.2576227621823549,-0.6949632090896367
1733706833840646000,1.03064599609375,-0.4990507608890533,-0.17987082946002483,-0.7168111760213971
1733706833850665700,1.040665771484375,-0.4006465007603168,-0.0722007283359766,-0.65635144662261
1733706833860686800,1.050686767578125,-0.2948807719528675,-0.03415419853627682,-0.6391203258365392
1733706833870706700,1.060706787109375,-0.33865912340283394,-0.07170680733919144,-0.5549632022470236
1733706833880726800,1.070726806640625,-0.3799871590912342,-0.1852344023197889,-0.497764520470798
1733706833890748000,1.080747802734375,-0.33779169291853905,-0.2861100209981203,-0.5463859280377626
1733706833900767700,1.090767822265625,-0.192854832461942,-0.33117490512728687,-0.5953276536002755
1733706833910787800,1.100787841796875,-0.053124856466054915,-0.29909108312427996,-0.6315010830044746
1733706833920808000,1.110807861328125,0.07439683187445625,-0.2708247735828161,-0.7070578437700867
1733706833930828800,1.120828857421875,0.23504792401446029,-0.2872685433834791,-0.6949816215291619
1733706833940849000,1.130848876953125,0.35278818652033805,-0.35805589779019353,-0.6486021476700902
1733706833950868700,1.14086865234375,0.3687105627954006,-0.3292839768141508,-0.6181687232226133
1733706833960889900,1.150889892578125,0.4852607204675674,-0.25058044245541095,-0.5250844890728592
1733706833970910000,1.160909912109375,0.5785176808357239,-0.17451485538482664,-0.3560094866544008
1733706833980929800,1.1709296875,0.6046902329683304,-0.14029285230934618,-0.23110037369877098
1733706833990951000,1.180950927734375,0.5465571929514408,-0.11322072098851203,-0.11910130345970392
1733706834000970800,1.190970703125,0.47759530040621756,-0.029927520751953124,-0.0039048984840512274
1733706834010990800,1.200990966796875,0.42320203143954277,0.06993745957911014,0.13778466888070107
1733706834021011000,1.211010986328125,0.38989601069781926,0.10208324090242385,0.30016046592146156
1733706834031031800,1.22103173828125,0.31661099425647404,-0.022766543081402777,0.46481589833199977
1733706834041052000,1.231052001953125,0.23808508148696272,-0.24194120892584323,0.4894739542484283
1733706834051072000,1.241072021484375,0.30007600250840183,-0.35233459753394125,0.43882659381181
1733706834061092900,1.2510927734375,0.4429074333846569,-0.1652753178745508,0.24531682283878326
1733706834071113000,1.261113037109375,0.5574093898227438,0.02338379819691181,0.11237141068279742
1733706834081132800,1.2711328125,0.6411643988847732,0.08419804012179374,0.012261807940900324
1733706834091153000,1.28115283203125,0.6456605412602424,0.043538697475194926,0.02372223637104034
1733706834101173800,1.291173828125,0.5577437363436445,-0.0037216508716344833,0.09821925895065069
1733706834111193900,1.30119384765625,0.42743864609599114,-0.008709960678219796,0.1772527559161186
1733706834121214000,1.3112138671875,0.2966109567463398,0.025767478463053703,0.24372955364733934
1733706834131234800,1.32123486328125,0.2525519982567057,0.11633563813865185,0.2796846641257405
1733706834141255000,1.3312548828125,0.18239183583762494,0.18737609052360057,0.39213469300270076
1733706834151275000,1.34127490234375,0.1187865384221077,0.16242051296532153,0.5040317641720176
1733706834161296000,1.3512958984375,0.10270283410549164,0.07323124042749404,0.5277174679249524
1733706834171316000,1.36131591796875,0.12212412187959998,-0.00923427681326866,0.49703240680396554
1733706834181335800,1.371335693359375,0.21198267198111861,-0.06864683524668216,0.44925767919421195
1733706834191356000,1.38135595703125,0.32291677986979483,-0.047206572332978244,0.4120326949104666
1733706834201377000,1.391376953125,0.3842121198425069,0.04645955335795879,0.3695779932796955
1733706834211396900,1.40139697265625,0.3720996207118034,0.11340718347132206,0.2849441920891404
1733706834221417000,1.4114169921875,0.3424082833359018,0.09327157341539859,0.19386223767250776
1733706834231437800,1.421437744140625,0.3604850976984948,0.029384499916434288,0.1453878373607993
1733706834241458000,1.4314580078125,0.40764669837858525,-0.007289572486281395,0.15668723001033066
1733706834251478000,1.44147802734375,0.4014098863482475,-0.00995323873758316,0.2375976267635822
1733706834261497900,1.451497802734375,0.32075635043289513,0.011176058530807494,0.36237142290174956
1733706834271519000,1.46151904296875,0.1750654750049114,0.008554477855563163,0.5073343128487467
1733706834281539000,1.4715390625,0.06623221185300499,-0.023624621215462684,0.5585261554256081
1733706834291559000,1.481558837890625,-0.0382896909058094,-0.01895838297009468,0.5788488124862313
1733706834301580000,1.491580078125,-0.07749708117842674,0.018569091391563413,0.4990495918452739
1733706834311599900,1.501599853515625,-0.07515778804328292,0.03270575329363346,0.3748243695005774
1733706834321620000,1.511619873046875,-0.05011223064661026,0.03425473630130291,0.21878771235346792
1733706834331640800,1.521640869140625,-0.021020539664290846,0.05891688387095928,0.13439239609390496
1733706834341661000,1.531660888671875,-0.039026188486814495,0.1141413429647684,0.1494748144134879
1733706834351681000,1.541680908203125,-0.11172321243975311,0.18993395831286905,0.20170827499777078
1733706834361700900,1.551700927734375,-0.22512509868144986,0.20365093349814414,0.2685173734232783
1733706834371722000,1.561721923828125,-0.2976069455137476,0.147369074305892,0.27363953874260183
1733706834381742000,1.5717421875,-0.1989595242789015,0.06960720471143722,0.21991204020828006
1733706834391761700,1.58176171875,-0.037703999972343444,-0.005320318239927292,0.1938996470734477
1733706834401783000,1.591782958984375,0.15736381409764288,-0.08443067983388901,0.19811551120281218
1733706834411803000,1.601802978515625,0.26661913858652114,-0.10499415991306305,0.17196458638012407
1733706834421822700,1.61182275390625,0.22873042969703672,-0.1296568920046091,0.12657879973351954
1733706834431842800,1.6218427734375,0.15118424867987632,-0.18376023811399936,0.04858282912224531
1733706834441863700,1.63186376953125,0.11570026284456253,-0.1760287670791149,-0.06360387264341115
1733706834451883800,1.6418837890625,0.15079725865628568,-0.15498481000661848,-0.1493532338604331
1733706834461904000,1.65190380859375,0.19850363373756408,-0.14621522809565066,-0.1686386568278074
1733706834471924700,1.6619248046875,0.2474187270214781,-0.1444096399784088,-0.19707389319539068
1733706834481944800,1.67194482421875,0.20350944266822188,-0.09146247816681861,-0.1125096501097083
1733706834491965200,1.681965087890625,0.08969601648356765,-0.004741641569137573,-0.012561667670309543
1733706834501986300,1.691986328125,0.005951601880788803,0.009606617256999015,0.0516267268627882
1733706834512006400,1.70200634765625,0.011513948715664446,-0.010818915656208992,0.12834960879832505
1733706834522026200,1.712026123046875,0.033280338311195375,-0.02850070281922817,0.16483254254311322
1733706834532046300,1.72204638671875,0.056731393058039245,-0.04665244558155537,0.1934744073987007
1733706834542067200,1.732067138671875,0.082200144302845,-0.02174947499334812,0.19920739809274673
1733706834552087300,1.74208740234375,0.06846037276387214,-0.005037994167208671,0.228381177867949
1733706834562107400,1.752107421875,0.0338719109961763,0.010103460863232612,0.25955665285438295
1733706834572128300,1.762128173828125,-0.017659538798592982,0.03332651554048061,0.2192877708300948
1733706834582148400,1.7721484375,-0.0020481647014617918,0.09383622156083583,0.15995996807068585
1733706834592168400,1.78216845703125,-0.020457097095251082,0.06902794351875782,0.10785188743174075
1733706834602188300,1.792188232421875,-0.05705518165230751,-0.011111176601052283,0.03358399743288755
1733706834612209400,1.80220947265625,0.004342961107753217,-0.09671616091132164,-0.05798661728352308
1733706834622229200,1.812229248046875,0.12422255546357482,-0.135895494133234,-0.05325520484745502
1733706834632249300,1.822249267578125,0.1727437905916944,-0.10836509765088558,0.03172229521423578
1733706834642270200,1.832270263671875,0.08823825542330742,-0.07074468430876732,0.12638210811764
1733706834652290300,1.842290283203125,-0.003934964828751981,-0.031802082452178,0.15459785651564598
1733706834662310400,1.852310302734375,-0.042581287152506406,0.033549802902340886,0.13938450529277324
1733706834672330500,1.86233056640625,-0.03724686732199043,0.037087329378724096,0.06062193422317504
1733706834682351400,1.872351318359375,0.025302747028134762,0.020848142239451407,0.005513502724468708
1733706834692371500,1.882371337890625,0.1014752650719136,-0.005075403568148612,-0.01393470958918333
1733706834702391300,1.892391357421875,0.09696513070371002,-0.038974750560522076,0.016314005941152572
1733706834712412400,1.902412353515625,0.06628244420289993,-0.048182723888754844,0.07125263383090495
1733706834722432300,1.912432373046875,-0.005996025544404983,-0.055202247262001035,0.14094137934595347
1733706834732452400,1.922452392578125,-0.10495795608852058,-0.03334112858772278,0.15091682991534472
1733706834742473500,1.932473388671875,-0.16875610919501632,0.013531097224354744,0.09886223302930593
1733706834752493300,1.942493408203125,-0.14412442982885987,0.0614256518214941,0.012807166863977908
1733706834762513400,1.952513427734375,-0.1551718935439363,0.0479494996547699,-0.017521628165245055
1733706834772533500,1.962533447265625,-0.15496844339370727,-0.001741290709376335,-0.06371054788827896
1733706834782554400,1.972554443359375,-0.01989708859231323,-0.05370236409306526,-0.07305559159964323
1733706834792574500,1.982574462890625,0.0476700616588816,-0.09197335029840469,-0.05056874224245548
1733706834802594300,1.99259423828125,0.043219548523426056,-0.14564005855619908,-0.07884878804832697
1733706834812615400,2.002615478515625,0.06872340761423111,-0.16610416991412638,-0.17543109344691038
1733706834822635500,2.012635498046875,0.148213671903871,-0.15339549498856067,-0.21686025142222642
1733706834832655400,2.0226552734375,0.15898286666683853,-0.162923201790452,-0.19421996506899594
1733706834842675500,2.032675537109375,0.09352580390479415,-0.1312993985146284,-0.13129764494895935
1733706834852696300,2.0426962890625,0.06666589056253433,-0.10283727414011955,-0.1164765079140663
1733706834862716400,2.05271630859375,0.021049765758775173,-0.04609539622068405,-0.07127513792365789
1733706834872736500,2.062736572265625,0.0015092355191707611,-0.06930617593824863,-0.05032032043933868
1733706834882757400,2.07275732421875,-0.054563912825845176,-0.12716682875454424,-0.0808688956990838
1733706834892777500,2.082777587890625,-0.040480515480972826,-0.11505378163456915,-0.1181216447725892
1733706834902797600,2.092797607421875,-0.02085924815535545,-0.06645780076980591,-0.07935089235156774
1733706834912818400,2.102818359375,0.01907762543559074,-0.006353752940893173,0.02640110019147396
1733706834922838500,2.112838623046875,0.0756335888614878,-0.00599485650062561,0.0997092052474618
1733706834932858400,2.1228583984375,0.05848726028203964,-0.057599371531605714,0.11510843443125486
1733706834942878500,2.13287841796875,0.040876748256944116,-0.07972761670947075,0.09130553403943777
1733706834952899600,2.142899658203125,0.01836801586151123,-0.09465864385962486,0.020316227319836615
1733706834962919400,2.15291943359375,0.03656531479861587,-0.07702478749155998,-0.029224633179605004
1733706834972939500,2.162939453125,0.0899906155159697,-0.10101415036618709,-0.0583148263245821
1733706834982960400,2.17296044921875,0.05375610357429832,-0.07842822454869747,-0.022714520633220672
1733706834992980500,2.18298046875,-0.05266428974959999,-0.009357026410102843,0.03572948502898216
1733706835003000600,2.19300048828125,-0.10233922495748847,0.008663783448934554,0.058306350757181644
1733706835013020200,2.203020263671875,-0.06167759902225807,-0.002421089667081833,0.024072072722017765
1733706835023041500,2.21304150390625,0.006121076696179807,-0.030017537122964857,-0.015274433760344982
1733706835033061400,2.223061279296875,-0.0012883227774873375,-0.08710369843542576,-0.04212356998026371
1733706835043081200,2.233081298828125,0.01086980559322983,-0.1417570796430111,-0.06580664338469505
1733706835053102600,2.2431025390625,-0.010951620391476898,-0.18348142117261884,-0.07112783840745687
1733706835063122200,2.2531220703125,-0.03426586048351601,-0.16554302890002726,-0.06576631137430668
1733706835073142300,2.263142333984375,-0.05347202593591064,-0.09662088384330272,-0.0734463444828987
1733706835083162400,2.273162353515625,-0.1417126559793949,-0.037459085300564764,-0.0550993714094162
1733706835093183200,2.283183349609375,-0.156487031263113,-0.0069528878778219215,-0.02301525714546442
1733706835103203300,2.293203369140625,-0.12781038735508918,-0.015466449201107024,-0.040491584864258766
1733706835113223400,2.303223388671875,-0.08129526788499206,-0.046480596145987506,-0.10107318707704543
1733706835123244300,2.313244384765625,-0.043006800821889186,-0.04166355125308036,-0.1484384571030736
1733706835133264400,2.323264404296875,-0.05505145888077095,-0.05524667092561721,-0.12199293324798345
1733706835143284200,2.3332841796875,-0.0923147293482907,-0.10330255356431006,-0.08974865998625754
1733706835153304300,2.34330419921875,-0.14734861603975294,-0.1887906334966421,-0.0882280262902379
1733706835163325200,2.3533251953125,-0.16211009530927986,-0.23951193595230577,-0.15191519330292938
1733706835173345300,2.36334521484375,-0.12148001528978347,-0.16320844847261906,-0.18097499130964279
1733706835183365400,2.373365478515625,-0.10721656693657859,-0.12576397621929644,-0.18462006981372833
1733706835193386200,2.38338623046875,-0.08780103304982184,-0.11851532026529311,-0.17250497686713934
1733706835203406300,2.39340625,-0.08594809865951537,-0.1315226858764887,-0.16525076795518398
1733706835213426400,2.403426513671875,-0.14707973597049712,-0.18358663511276244,-0.2027843797966838
1733706835223446300,2.4134462890625,-0.1656815971205011,-0.20974223611056803,-0.19345073426216838
1733706835233467400,2.42346728515625,-0.18150811180565504,-0.21871873877048492,-0.23045126214027403
1733706835243487200,2.4334873046875,-0.2091465717723593,-0.17956103285849093,-0.2201546167925
1733706835253507300,2.44350732421875,-0.16509817120935766,-0.09020575610399245,-0.22345541190356014
1733706835263528400,2.453528564453125,-0.11563481465922668,-0.06212532452344894,-0.2074190538600087
1733706835273548300,2.46354833984375,-0.13971711651431395,-0.10723697040379047,-0.19609628033488988
1733706835283568400,2.473568359375,-0.11755085914731025,-0.13787176264226436,-0.18448679882287977
1733706835293589200,2.48358935546875,-0.06360062124039978,-0.13132394843399525,-0.1482899885430932
1733706835303609300,2.493609375,-0.04423661661148071,-0.12103285604417323,-0.11871230414211749
1733706835313629400,2.50362939453125,-0.04765022444725037,-0.12787351571917532,-0.08282499820291996
1733706835323649300,2.513649169921875,-0.07886374815544113,-0.13877075730860233,-0.05074000715613365
1733706835333670400,2.52367041015625,-0.10404255827665328,-0.10814765550792217,-0.021169337017834185
1733706835343690500,2.5336904296875,-0.08527823657393455,-0.08848258557319641,-0.027668343648314473
1733706835353710300,2.54371044921875,-0.06212768087731674,-0.08863923743963241,-0.02211246308684349
1733706835363731500,2.5537314453125,-0.06390815281961112,-0.08221767995953559,-0.009542027588188647
1733706835373751300,2.563751220703125,-0.07653729623556137,-0.06994739645123481,0.014775252066552638
1733706835383771400,2.573771484375,-0.05134085912611335,-0.07094868244826794,0.030581893007457256
1733706835393791500,2.58379150390625,-0.01917111240532249,-0.06590308949649333,0.03043050183802843
1733706835403812400,2.593812255859375,-0.04802778905536979,-0.0317278481721878,0.041835108427703376
1733706835413832400,2.60383251953125,-0.055365913391113276,-0.020057868644595144,0.057713353300094604
1733706835423852500,2.6138525390625,-0.05177344185709953,0.0063923313856124875,0.06114975748956203
1733706835433873400,2.623873291015625,-0.06495092160450294,0.01448328338265419,0.10043751952201127
1733706835443893500,2.6338935546875,-0.06402502066493033,0.015299860462546347,0.13529080623835324
1733706835453913300,2.643913330078125,-0.02105798559784889,0.024836335092782973,0.15008359396159648
1733706835463933400,2.653933349609375,-0.018129530930519104,0.023418869510293004,0.1689531296044588
1733706835473954600,2.66395458984375,-0.03102525286078453,0.005469371321797371,0.19042934061437844
1733706835483974400,2.673974365234375,-0.011188881479762493,0.010578677159547805,0.19803572396486996
1733706835493994200,2.683994140625,-0.030708478529192507,0.03640402328968048,0.2070969822987914
1733706835504015400,2.694015380859375,-0.022165088323224336,0.06385960097014903,0.18452362370193004
1733706835514035200,2.70403515625,-0.0613385945925489,0.06040741468966007,0.1820531419351697
1733706835524055300,2.71405517578125,-0.10362166598346084,0.015105214673280715,0.1888102149799466
1733706835534075100,2.7240751953125,-0.10279520683037116,-0.07217091771960259,0.17730477836430072
1733706835544096300,2.73409619140625,-0.021901998673938213,-0.08666822962760924,0.1397737968713045
1733706835554116400,2.744116455078125,0.026202947270870205,-0.06243102947175502,0.12226473592668771
1733706835564136200,2.75413623046875,-0.012810400000680237,-0.015997195076942444,0.09682955815792083
1733706835574157300,2.7641572265625,-0.0032826749324798583,-0.00684182871878147,0.05433978521376848
1733706835584177200,2.77417724609375,0.005804338897205889,-0.02509177115857601,0.012929624199867248
1733706835594197200,2.784197265625,-0.02586509361863136,-0.039137247645854946,0.016883038000762463
1733706835604217300,2.79421728515625,-0.020701427245140073,0.008564999249577522,0.047501463626325124
1733706835614238200,2.80423828125,-0.0500082040165551,0.07367196993231773,0.0465682744294405
1733706835624258300,2.81425830078125,-0.0640682935510762,0.05359890371859073,0.09825082313269376
1733706835634278400,2.8242783203125,-0.05440262131690979,-0.013222469666600227,0.14249328496307134
1733706835644299300,2.83429931640625,0.029464579415321348,-0.05523965666294098,0.15765519825965166
1733706835654319400,2.8443193359375,0.1310778281858191,-0.06167641171216964,0.14889701452553272
1733706835664339200,2.854339111328125,0.21388123561143874,-0.04776537525951862,0.16532091058194637
1733706835674360300,2.8643603515625,0.24968086326718328,0.03695347386598587,0.1832718700751662
1733706835684380400,2.87438037109375,0.1728010737368837,0.028282676154375075,0.21032383539080618
1733706835694400300,2.884400146484375,0.041047465181350704,-0.10498948373794555,0.20276479831337926
1733706835704420400,2.89442041015625,-0.012408248940575867,-0.1508937413007021,0.2098553410962224
1733706835714441200,2.904441162109375,0.008500153852440417,-0.10890519587695598,0.20325199730843305
1733706835724461300,2.91446142578125,0.023754969596862793,-0.06678630207180976,0.1279138477295637
1733706835734481400,2.9244814453125,0.015189385825395583,-0.04289806148409843,0.05000643218457698
1733706835744502300,2.934502197265625,0.017328735941648483,-0.03283551715314388,-0.020042963336408138
1733706835754522400,2.9445224609375,0.030794951236248015,-0.027217677271366116,-0.07526274625509977
1733706835764542500,2.95454248046875,0.042229331909678876,-0.03517944993078709,-0.11787497653514147
1733706835774562300,2.964562255859375,0.0536965554067865,-0.06814999164044856,-0.11849047808498143
1733706835784583400,2.97458349609375,0.03136895173192024,-0.10556757588684558,-0.10707505784034728
1733706835794603300,2.984603271484375,0.014055449892021715,-0.12608721682429314,-0.07896189303398132
1733706835804623400,2.994623291015625,-0.022333412361145017,-0.08289104917645454,-0.04948766900748014
1733706835814644200,3.004644287109375,-0.04451718711853027,-0.05821311951577663,-0.014797463898360728
1733706835824664300,3.014664306640625,-0.09527356088757515,-0.0468511830240488,0.004355564860999584
1733706835834684400,3.024684326171875,-0.14880993903027848,-0.047290743485093115,-0.027402678449451923
1733706835844704500,3.03470458984375,-0.18356913598868996,-0.03427987074255943,-0.03400806806385517
1733706835854725400,3.044725341796875,-0.12799038356449455,-0.025293431210517883,-0.036520927667617796
1733706835864745500,3.054745361328125,-0.06669864205466583,-0.08211655767261981,-0.03456599420756101
1733706835874765300,3.064765380859375,-0.07447280145380646,-0.12272972308993339,-0.03285422185361385
1733706835884786400,3.074786376953125,-0.06516836374746635,-0.1395873343884945,-0.022593232341110703
1733706835894806300,3.08480615234375,-0.019217910689115523,-0.1487011996924877,-0.03631400691866875
1733706835904826400,3.094826416015625,0.007767108603846281,-0.1375865159600973,-0.10848258655071258
1733706835914846500,3.104846435546875,-0.05331425982462242,-0.13155541910231114,-0.16000468399524687
1733706835924867300,3.114867431640625,-0.07327100618230178,-0.0992927334010601,-0.196256439332664
1733706835934887400,3.124887451171875,-0.09617609921786933,-0.11169745694398879,-0.2204313879072666
1733706835944907500,3.134907470703125,-0.09090484428405761,-0.1208516542583704,-0.22193156333714723
1733706835954928400,3.144928466796875,-0.10283259796500205,-0.13576806836128233,-0.2039902484551072
1733706835964948500,3.154948486328125,-0.06243163225995376,-0.11906243275403976,-0.18814882846176623
1733706835974968300,3.16496826171875,-0.01532499490380287,-0.06687807200849055,-0.10451339065879582
1733706835984988400,3.174988525390625,-0.060026854406856,-0.044354105511307716,-0.043270109666883945
1733706835995009500,3.185009521484375,-0.1265290788402781,-0.06408931807279586,-0.018983809672296046
1733706836005029400,3.195029296875,-0.13514732438074423,-0.06629004298746585,-0.02736322322189808
1733706836015049500,3.205049560546875,-0.08861002961145713,-0.05975333469510078,-0.050340194183588025
1733706836025070300,3.2150703125,-0.06286416019201278,-0.07697802574038505,-0.03816284965574741
1733706836035090400,3.22509033203125,-0.027725042271614073,-0.08014496533870696,-0.009970482133328915
1733706836045110300,3.2351103515625,-0.03295185527550056,-0.07824468467533588,0.019184300680458545
1733706836055130400,3.24513037109375,-0.044545262435544276,-0.04881576109528541,0.015844927124679088
1733706836065151500,3.2551513671875,-0.04416647398471832,-0.05915536880195141,0.009022679889202117
1733706836075171300,3.26517138671875,-0.016261398971080778,-0.061982701182365416,0.012759236069023608
1733706836085191200,3.275191162109375,0.003767828100919723,-0.0674947426021099,0.042078854055702684
1733706836095212500,3.285212646484375,-0.005649988585710525,-0.0766448482632637,0.05416501316875219
1733706836105232100,3.295232177734375,-0.032386019819974896,-0.06287994228303433,0.05168342548608779
1733706836115252200,3.305252197265625,-0.07200958967804909,-0.009098667734861373,0.016601590710878373
1733706836125272300,3.315272216796875,-0.03695813177479431,0.00838555102944374,0.004679389987885952
1733706836135293200,3.325293212890625,0.0023836802661418915,-0.0035281741261482236,0.014646949511766432
1733706836145313300,3.335313232421875,-0.011794500956404953,-0.04222586131095886,0.0320788535669446
1733706836155333400,3.34533349609375,-0.02362871286869049,-0.09969079280793666,0.024919921723008154
1733706836165354200,3.355354248046875,-0.032603461962938306,-0.13936755415797233,0.0182908589720726
1733706836175374300,3.365374267578125,-0.0061561662758700545,-0.11514672061502933,-0.029181670820713042
1733706836185394200,3.375394287109375,-0.01010757078276947,-0.06564589986503123,-0.06074409929811954
1733706836195414300,3.385414306640625,-0.06845102041363715,-0.03612812895774841,-0.09801964472532272
1733706836205435400,3.395435302734375,-0.08100773791419341,-0.034465164181590076,-0.0913780147537589
1733706836215455200,3.405455322265625,-0.08583355063544586,-0.049587914511561394,-0.05969780511558056
1733706836225475300,3.415475341796875,-0.11213699913872405,-0.07415303144752979,-0.06280775382965803
1733706836235496200,3.42549609375,-0.11703295448673888,-0.10856792674660683,-0.08031096955537796
1733706836245516300,3.435516357421875,-0.1069780272066593,-0.1266454352289438,-0.10683774195313453
1733706836255536400,3.445536376953125,-0.047791660478245464,-0.1245370647728443,-0.10665449434071779
1733706836265556200,3.45555615234375,0.00044072950482368465,-0.11013035375773907,-0.09155570940822362
1733706836275577300,3.465577392578125,-0.014722937357425688,-0.06383622009456158,-0.09123363784700632
1733706836285597400,3.475597412109375,-0.023362170886993407,-0.04490472513139248,-0.04417641085684299
1733706836295617300,3.4856171875,-0.056591053005587304,-0.05481061759591102,-0.019871406161785125
1733706836305638400,3.495638427734375,-0.03632686640024185,-0.046051557078957556,-0.0004945055186748505
1733706836315658200,3.505658203125,-0.023130718484986573,-0.01968260559141636,0.032334874154627324
1733706836325678300,3.51567822265625,-0.05193708971990272,-0.030596213793754577,0.04582008641064167
1733706836335698400,3.525698486328125,-0.09198270264863967,-0.09210428320169449,0.05120177944898605
1733706836345719300,3.53571923828125,-0.057694666865933684,-0.08014905699193477,0.029799802719056606
1733706836355739400,3.545739501953125,-0.013126041821110993,-0.04398410315513611,0.016649813766777516
1733706836365759500,3.555759521484375,0.00213233585357666,-0.016900281396508215,-0.00818126062899828
1733706836375780400,3.5657802734375,0.03041735009551048,-0.009511340188980102,-0.002766542103886604
1733706836385800400,3.575800537109375,0.004884283176530152,-0.03550093697011471,0.003376490695774555
1733706836395820300,3.5858203125,-0.026338556349277495,-0.05905190842747688,0.006239771172404289
1733706836405840400,3.59584033203125,-0.005654646494518965,-0.08421031508147717,0.017770342229306697
1733706836415861200,3.605861328125,0.00004444192992523312,-0.08008534410595894,0.04712064761519432
1733706836425881300,3.61588134765625,0.012442132943868636,-0.051953474599123,0.0727320587337017
1733706836435901400,3.6259013671875,0.0032487726628780363,-0.04871288524270057,0.02304652906656265
1733706836445922300,3.63592236328125,-0.015203414350748061,-0.027803952726721762,-0.0126963999658823
1733706836455942400,3.6459423828125,0.003931475963722914,-0.02591711606681347,0.020899287904798985
1733706836465962500,3.65596240234375,-0.015674520727526394,-0.05151274509429931,0.023412732030451296
1733706836475982300,3.665982421875,-0.013939678025245665,-0.09385141912996768,0.02209931134432554
1733706836486003500,3.67600341796875,0.0057376486028544605,-0.10551672248244284,0.027646131816506384
1733706836496022800,3.686022705078125,-0.01693009201288223,-0.06546119094789028,0.018628712624311445
1733706836506042400,3.69604248046875,-0.03780103060603142,-0.04655307686030864,-0.002998305033147335
1733706836516063700,3.706063720703125,-0.08622518030153586,-0.06903437325954437,-0.02856558474898338
1733706836526083600,3.71608349609375,-0.08773322851061821,-0.048989364096522325,-0.02526128250658512
1733706836536103400,3.726103515625,-0.08190318891657516,-0.03539923016130924,-0.005278232663869857
1733706836546123500,3.73612353515625,-0.02792962493300438,-0.05775134722292423,-0.016720540915429592
1733706836556144400,3.746144287109375,-0.00888707081079483,-0.08171499113440513,-0.01922667851746082
1733706836566164500,3.75616455078125,-0.00614215601682663,-0.09347264894545078,0.00017535656690597534
1733706836576184600,3.7661845703125,-0.045737687090504915,-0.10775193418860435,-0.010700842234492301
1733706836586205400,3.776205322265625,-0.053365679484605785,-0.12226970436275005,-0.03676613460034132
1733706836596225500,3.7862255859375,-0.04174774067150429,-0.1002034185051918,-0.04310819710344076
1733706836606245600,3.79624560546875,-0.04349661189913749,-0.05354337413907051,-0.09386077148020266
1733706836616265500,3.806265380859375,-0.02684944674717262,-0.04200491203665733,-0.06319762993007898
1733706836626286600,3.81628662109375,-0.005929408315289765,-0.048099721780419345,-0.00810761087089777
1733706836636306400,3.826306396484375,-0.025337873140443116,-0.0585977349191904,-0.0016097732841968534
1733706836646326500,3.836326416015625,-0.09400631743073463,-0.06898235081136227,-0.009278115954995154
1733706836656347400,3.846347412109375,-0.13529462389694527,-0.10018237571716308,-0.03986205478906631
1733706836666367500,3.856367431640625,-0.11936523335920646,-0.09095452864468097,-0.0576370731934905
1733706836676387600,3.8663876953125,-0.07826983738290146,-0.03984861078560352,-0.060358607111871236
1733706836686407700,3.87640771484375,-0.04450668399082496,-0.008661445361375808,-0.02721709274947643
1733706836696428500,3.886428466796875,-0.016040467963088303,-0.02191372564435005,0.021943243999779222
1733706836706448600,3.89644873046875,0.0024573117579333482,-0.07228606853187083,0.04218056086450815
1733706836716468500,3.906468505859375,-0.03483633558154106,-0.11336217528581619,0.027018355306982992
1733706836726489600,3.916489501953125,-0.015413860497344284,-0.1370639533907175,-0.012175006440281867
1733706836736509400,3.926509521484375,-0.023437007955182342,-0.10937222886681557,-0.03946662573069334
1733706836746529500,3.936529541015625,-0.05678863967061042,-0.09380465737879276,-0.045216859820485115
1733706836756549600,3.946549560546875,-0.02835049895988777,-0.060891983336210244,-0.030221243001520633
1733706836766570500,3.956570556640625,0.008220679323934018,-0.025858663877844808,-0.04657850356251001
1733706836776590600,3.966590576171875,0.026332711130380628,-0.039238369932770724,-0.032768297135829925
1733706836786610700,3.976610595703125,0.04788872764455154,-0.04168868569433689,0.011574410198628902
1733706836796631600,3.986631591796875,0.0018856676161289215,-0.05350713378190994,0.06735474960952997
1733706836806651600,3.996651611328125,-0.047660727574955666,-0.033228315863013266,0.08951222088187932
1733706836816671500,4.00667138671875,-0.08924714020490646,-0.0170142631649971,0.06791501384079456
1733706836826691600,4.016691650390625,-0.08485619350327178,-0.03691021924614906,0.05929886892586946
1733706836836712700,4.026712646484375,-0.03415244497060776,-0.05419628508985042,0.07014087319672108
1733706836846732500,4.036732666015625,0.031767595660686494,-0.07047463519573212,0.09041647624522448
1733706836856752600,4.046752685546875,0.02889757491601631,-0.05772621278166771,0.07626110964268445
1733706836866773500,4.0567734375,0.011305804124008863,-0.0683750325679779,0.051588440679013726
1733706836876793600,4.066793701171875,-0.0035550986656919118,-0.09247896173298359,0.021725217334926127
1733706836886813700,4.076813720703125,-0.047575423911679536,-0.10580898342728615,-0.03029547728151083
1733706836896833500,4.08683349609375,-0.07068389403223992,-0.08917758210003375,-0.07906418436467647
1733706836906854700,4.096854736328125,-0.05084169569863006,-0.05904957033991813,-0.09557458966076374
1733706836916874800,4.106874755859375,-0.04237080447329208,-0.07212590953409671,-0.0959463455826044
1733706836926894600,4.11689453125,-0.06550269200205802,-0.07975041306316852,-0.060454176440835
1733706836936915700,4.126915771484375,-0.09367312168730423,-0.07626315546929836,-0.04336217186450958
1733706836946935600,4.136935546875,-0.08539512268556282,-0.07200374445915221,-0.05102233122885227
1733706836956955600,4.14695556640625,-0.07951015630019828,-0.069385670915246,-0.05432721799314022
1733706836966975700,4.156975830078125,-0.0978571293736808,-0.07240355743169784,-0.06329349151998757
1733706836976996600,4.16699658203125,-0.06782324390411376,-0.0686368983745575,-0.053210488922894
1733706836987016700,4.1770166015625,-0.024155951613187787,-0.07306582073271274,-0.01398088681846857
1733706836997036800,4.187036865234375,0.015939893665444106,-0.08570201494395732,0.02128974852710962
1733706837007057700,4.1970576171875,0.024741642546653748,-0.08964461508989334,0.013036007183790206
1733706837017077800,4.207077880859375,-0.007065718868840485,-0.05627601397335529,0.02552840901017189
1733706837027097600,4.21709765625,-0.08844285635100677,-0.034682021802663804,0.032713936600089075
1733706837037117400,4.227117431640625,-0.11705405207369476,-0.02692249371707439,0.03461275595873594
1733706837047138800,4.237138916015625,-0.08184590577138587,-0.06634732613265514,0.025754326720535754
1733706837057158700,4.24715869140625,-0.03891629837155342,-0.09036006988286971,0.015231179140508174
1733706837067178500,4.257178466796875,0.016591087583173066,-0.10261574034392833,0.03302694807201624
1733706837077198600,4.267198486328125,0.01856441521644592,-0.09467208786308765,0.03539396946430206
1733706837087219500,4.277219482421875,-0.000798475167620927,-0.09092588707208633,0.011076689809560775
1733706837097239600,4.287239501953125,-0.04312604328738525,-0.05571838009059429,-0.025685937659442423
1733706837107259400,4.29725927734375,-0.09937809186326339,-0.031135142976045607,-0.04957417824715376
1733706837117280500,4.307280517578125,-0.07673955907570197,-0.04902501993179321,-0.07576397377550602
1733706837127300600,4.317300537109375,-0.05989361994862556,-0.05577858584523201,-0.0665644760146737
1733706837137320400,4.327320556640625,-0.02470074428068474,-0.07660217816531657,-0.07220365094542502
1733706837147340500,4.337340576171875,-0.007699340597260743,-0.08701251302063465,-0.025084172374010085
1733706837157361400,4.347361328125,-0.009326631271839142,-0.10414251151978969,-0.007126198618113994
1733706837167381500,4.357381591796875,0.0007727379381656646,-0.07547054378688335,0.01537730961292982
1733706837177401600,4.367401611328125,-0.03821489037023857,-0.07672609680593014,-0.01359656367599964
1733706837187422500,4.37742236328125,-0.025916549811232835,-0.06327624812424182,-0.03836509422957897
1733706837197442600,4.387442626953125,-0.03960486515760422,-0.07057634200453758,-0.03647650400400162
1733706837207462700,4.397462646484375,-0.03553893089294433,-0.07421908242106437,-0.0008434650868177413
1733706837217482500,4.407482421875,-0.04295768271684646,-0.07365677236318588,0.0035667525708675384
1733706837227503600,4.417503662109375,-0.07070612413035705,-0.07040040091574191,-0.01251256783157587
1733706837237523500,4.4275234375,-0.03997897743331268,-0.052450902727246285,-0.00679828183799982
1733706837247543600,4.43754345703125,-0.043099137014150614,-0.027127076378464697,0.0021352584630250928
1733706837257564700,4.447564697265625,-0.07302897758735344,-0.028611177456378936,0.009502572360634804
1733706837267584500,4.45758447265625,-0.09412672894001006,-0.06370294910371303,-0.008879764287173747
1733706837277604600,4.4676044921875,-0.11526654760241507,-0.09877075535356998,-0.04376958362162113
1733706837287624700,4.477624755859375,-0.10714989490853621,-0.08429039458036422,-0.048664954447746274
1733706837297645600,4.4876455078125,-0.054174657779932016,-0.08830898257195949,-0.043642450110614295
1733706837307665700,4.497665771484375,0.02836217113137245,-0.08033785756230354,-0.018237959741055965
1733706837317685500,4.507685546875,0.06452184600485489,-0.08422142099738121,-0.009574468553066253
1733706837327706600,4.51770654296875,0.01301496439576149,-0.07973229288458823,0.0099994159668684
1733706837337726700,4.527726806640625,0.00812719235420227,-0.07287000589966773,-0.007172375847399234
1733706837347746600,4.53774658203125,-0.03057402022825554,-0.04656067564487457,-0.005817454107105732
1733706837357766700,4.5477666015625,-0.08528877623425796,-0.07424070973098278,-0.030531624124944208
1733706837367787500,4.55778759765625,-0.08136077086925506,-0.07222936990857123,-0.03153875534087419
1733706837377807600,4.5678076171875,-0.027083237236738205,-0.06290507672429084,0.01718932747095823
1733706837387827700,4.57782763671875,0.00048049525963142514,-0.052154550129175185,0.037514030358195304
1733706837397848600,4.5878486328125,-0.04703181855427101,-0.055499184381961816,0.03844605051130056
1733706837407868700,4.59786865234375,-0.10774024375081062,-0.06875672536194324,0.03553483923971653
1733706837417888800,4.607888671875,-0.07333530359016731,-0.07083645424544811,-0.0008823357924818992
1733706837427908600,4.61790869140625,-0.06872223857045173,-0.06446516564786434,-0.04085954139381647
1733706837437929700,4.6279296875,-0.0650350562239997,-0.06716624130010604,-0.05504530313462019
1733706837447949600,4.637949462890625,-0.02129879035009071,-0.05625555570721626,-0.029447336019575596
1733706837457969700,4.6479697265625,-0.02471709262728691,-0.03993862715661525,0.00471826069355011
1733706837467990500,4.657990478515625,-0.033884752211440355,-0.053685997480154034,0.003450724975764751
1733706837478010600,4.6680107421875,-0.00350830038189888,-0.07188099486231804,-0.04764730183780193
1733706837488030700,4.67803076171875,0.019426000481843946,-0.09097615595459937,-0.010468787044286727
1733706837498050800,4.68805078125,0.0145066459919326,-0.08282032202780246,0.03693769177496433
1733706837508071700,4.69807177734375,-0.02978606645464897,-0.0747539199501276,0.06010813948214054
1733706837518091800,4.708091796875,-0.0331353768825531,-0.06506546962857246,0.041893560616672036
1733706837528111600,4.718111572265625,-0.010541267758607864,-0.06944178501665592,0.06212386321872473
1733706837538132700,4.7281328125,-0.015744699886906893,-0.07303834820389747,0.00794248343706131
1733706837548152600,4.738152587890625,-0.024224925196170807,-0.05073474645912647,-0.05651011499017477
1733706837558172700,4.748172607421875,-0.023984120443928985,-0.02067161662876606,-0.04211363310813904
1733706837568192800,4.75819287109375,-0.025195231533050536,-0.032224691778421403,-0.012661036391556262
1733706837578213600,4.768213623046875,-0.02840193688618019,-0.040944589328765865,0.02920183682590723
1733706837588233700,4.778233642578125,-0.05689268456697464,-0.03833995978832245,0.04276829762458801
1733706837598253800,4.78825390625,-0.03542672095643356,-0.05358429067134857,0.033149989929795266
1733706837608274700,4.798274658203125,-0.007525134807825088,-0.08406418460905551,0.004908230307698249
1733706837618294800,4.808294677734375,-0.012126491123437881,-0.09074351624250411,-0.02732552156001329
1733706837628314600,4.818314697265625,-0.017099603360891343,-0.07154840190708636,-0.03701572544723749
1733706837638334700,4.828334716796875,0.003998111459147185,-0.09635667994916439,-0.040921208453178405
1733706837648355800,4.83835595703125,-0.013075754672288893,-0.10110825839042663,0.003646539808809757
1733706837658375700,4.848375732421875,-0.016008903781045226,-0.07903437374830245,-0.031000410680472847
1733706837668395800,4.858395751953125,-0.0338216238473542,-0.09326514367461204,-0.05257102197557687
1733706837678416600,4.868416748046875,0.0013420439924113452,-0.08658405847549439,-0.004051321217417717
1733706837688436700,4.878436767578125,0.017383680999279023,-0.07333236271440982,0.016427987709641455
1733706837698456800,4.888456787109375,-0.006233323165308684,-0.0666892714381218,0.03893120367974043
1733706837708476700,4.8984765625,-0.05694994944585487,-0.05159866981208324,0.010173018968105315
1733706837718497800,4.908497802734375,-0.011821370697021483,-0.04588321477472782,0.006723463036119938
1733706837728518000,4.918517822265625,0.023130681952368465,-0.04947510178685188,-0.0010354805275797844
1733706837738537700,4.928537841796875,-0.01566051046848297,-0.07308978613018989,-0.014375146833062171
1733706837748557800,4.938557861328125,-0.06005730434404686,-0.07116846267879008,-0.045185880160331725
1733706837758578700,4.94857861328125,-0.03249359011398628,-0.08781973775029182,-0.04897007487416267
1733706837768598800,4.958598876953125,-0.034127876784931864,-0.08642682208716869,-0.05025719207525253
1733706837778619000,4.968618896484375,-0.05548751221047714,-0.057581251353025435,-0.0625651772454381
1733706837788639700,4.9786396484375,-0.03033551703095436,-0.04249240329265594,-0.05329524459689855
1733706837798659800,4.988659912109375,-0.02344049682021141,-0.030834114202857015,-0.05884089602530002
1733706837808680000,4.998679931640625,-0.0022129998743534085,-0.06693184802234173,-0.015857786606252193
1733706837818699800,5.00869970703125,0.006227514479029923,-0.07113105327785015,-0.03458265308141708
1733706837828721000,5.018720947265625,-0.02078795475112274,-0.10897241589426994,-0.027879648311436175
1733706837838740700,5.02874072265625,-0.049676195583213116,-0.10031973836123943,-0.01877718118429184
1733706837848760800,5.0387607421875,-0.03046062298165634,-0.11514613609313964,-0.018769874660670757
1733706837858781700,5.04878173828125,0.004425999748706817,-0.06900164003372192,-0.013746493540704249
1733706837868801800,5.0588017578125,-0.005786784974206239,-0.05041150585412979,-0.023010873231291768
1733706837878822000,5.06882177734375,-0.008910451686382293,-0.031394086173176766,0.010438684166967869
1733706837888842000,5.078842041015625,0.029582634570728985,-0.04638298099040985,0.049559857460856435
1733706837898862800,5.08886279296875,0.023346955051552504,-0.05286240613758564,0.04582563936859369
1733706837908883000,5.098883056640625,-0.004181687865126878,-0.06879530380666256,0.0568552751660347
1733706837918902800,5.10890283203125,-0.031089550268650054,-0.04528174175024032,0.023256372424960134
1733706837928922600,5.118922607421875,-0.04289338530898094,-0.048266310518980025,0.011632570126652716
1733706837938943700,5.12894384765625,-0.03680851243734359,-0.05194646033644676,0.027864450742304325
1733706837948963600,5.138963623046875,-0.02073764933599159,-0.05383505056202411,0.021483517533540726
1733706837958983700,5.148983642578125,0.010239654463529587,-0.05609481218755245,0.001116144548356533
1733706837969004800,5.1590048828125,0.021156185275316236,-0.034597850650548934,0.008871580980718136
1733706837979024600,5.169024658203125,-0.029182839864492414,-0.053258711978793144,0.008070201469957829
1733706837989044700,5.179044677734375,-0.07498831322789191,-0.0699789606332779,-0.0021425649866461754
1733706837999064600,5.189064697265625,-0.08575051199449225,-0.08638999720811844,0.007166822889447212
1733706838009085700,5.199085693359375,-0.05106618863688782,-0.06702361795902252,-0.0015700257956981658
1733706838019105800,5.209105712890625,-0.023404256463050842,-0.06588029314279556,-0.019945055919885633
1733706838029125600,5.219125732421875,-0.02632218973636627,-0.07459609903991223,-0.030771862621605396
1733706838039146800,5.229146728515625,-0.0022176760494709014,-0.06697802525162697,-0.031791561058163643
1733706838049166600,5.23916650390625,0.01320783835304901,-0.052823827692866324,-0.004849193596839905
1733706838059186700,5.249186767578125,0.0312485036900267,-0.043133623805642125,0.004664484679698944
1733706838069206800,5.259206787109375,-0.00625206439839676,-0.04022679644823074,0.013411270236968994
1733706838079227600,5.2692275390625,-0.07366263584839179,-0.0402677129805088,0.03863017490655184
1733706838089247700,5.279247802734375,-0.08648116435660048,-0.07039806282818317,0.020578969909250736
1733706838099267800,5.289267822265625,-0.06083586923480033,-0.07791969050467014,-0.03259586317837238
1733706838109288700,5.299288818359375,-0.012472546348441391,-0.06703881552815437,-0.002289572241902351
1733706838119308800,5.309308837890625,-0.008040683114528656,-0.04879238021969795,0.010476385828852653
1733706838129328600,5.31932861328125,0.019333664289582518,-0.05732055459022522,0.011000409702956676
1733706838139348700,5.3293486328125,0.03260463100671768,-0.05813479358255863,0.0379433616861701
1733706838149369600,5.33936962890625,-0.04761982930898666,-0.06299275500774383,-0.004091068705916404
1733706838159389700,5.3493896484375,-0.011323376313317566,-0.05198562330305576,-0.023810499176383018
1733706838169409800,5.359409912109375,0.011416863283049314,-0.03931435777842998,-0.005027180512249469
1733706838179430700,5.3694306640625,0.014895937570463865,-0.06591887158751487,-0.018456570927798746
1733706838189450800,5.37945068359375,0.007360317901242524,-0.09449030155539512,-0.01670183621495962
1733706838199470800,5.389470947265625,0.008082786956895143,-0.08889993420243263,0.025746435675024985
1733706838209490700,5.39949072265625,-0.00995438951505348,-0.054312020424008366,0.04113748155236244
1733706838219511800,5.40951171875,-0.043827433022391046,-0.059086979740858074,0.05066723418086767
1733706838229531600,5.41953173828125,-0.06317748219119385,-0.06700842038989066,0.037010757011175156
1733706838239551700,5.4295517578125,-0.04510989231467247,-0.07167991933226585,0.012913257586956023
1733706838249571800,5.43957177734375,-0.02607902863025665,-0.10058803390860557,0.00918722280114889
1733706838259592700,5.4495927734375,0.02587912214398384,-0.09578852467238902,-0.028990824423730372
1733706838269612800,5.45961279296875,0.018258125746250152,-0.06779810946285725,-0.032766835831105706
1733706838279633000,5.4696328125,0.008419453299045563,-0.02169628350138664,-0.05090367328524589
1733706838289653800,5.47965380859375,-0.012950685254205018,-0.023345804274082182,-0.016427987709641455
1733706838299673900,5.489673828125,-0.05167056600451469,-0.05362170007228851,-0.004681143553555011
1733706838309693700,5.499693603515625,-0.07960251075876876,-0.06531915212869643,-0.020511749891936777
1733706838319713800,5.5097138671875,-0.02846153985261917,-0.07580079865455627,-0.03688362350016832
1733706838329735000,5.51973486328125,0.030914175435435023,-0.10213935500383377,-0.03784574653059244
1733706838339754800,5.529754638671875,0.03646830243123695,-0.10465922887027262,-0.004899170218408107
1733706838349774800,5.53977490234375,0.0007949497699737549,-0.08356792552471161,0.013574644105136393
1733706838359795700,5.549795654296875,-0.044293899756669995,-0.0614081161648035,-0.007106909395754337
1733706838369815800,5.55981591796875,-0.07231003392934798,-0.04751695345640182,-0.03361000865697861
1733706838379836000,5.5698359375,-0.07771918123019858,-0.05202712435722351,-0.06008300504088401
1733706838389855700,5.579855712890625,-0.05166707713948562,-0.04812134909033775,-0.053045069228112696
1733706838399876900,5.589876953125,-0.029160646298993377,-0.052910921454429626,-0.01911532709747553
1733706838409897000,5.59989697265625,-0.008724573725461959,-0.07320961311757564,-0.02152998702377081
1733706838419916800,5.609916748046875,-0.002876998474728316,-0.049912908682227135,0.016323942813277245
1733706838429936600,5.6199365234375,-0.02566984504116699,-0.0657914458155632,0.006400806953012943
1733706838439957800,5.629957763671875,-0.018579612785577772,-0.07794833207726479,-0.000884089358150959
1733706838449977900,5.639977783203125,0.02808395697819069,-0.07590250546336173,0.008991407968103885
1733706838459997700,5.649997802734375,0.06167290458083152,-0.10077741900086402,0.0048632221221923825
1733706838470018800,5.660018798828125,0.015039748221635818,-0.10668868887126445,-0.012553192102909087
1733706838480038700,5.67003857421875,-0.02222001511454582,-0.06693243254423141,-0.0448623472943902
1733706838490058800,5.680058837890625,-0.013194997137784957,-0.04274140961766243,-0.0570011133775115
1733706838500078800,5.690078857421875,-0.01210545746856369,-0.02511749012172222,-0.039000469523668285
1733706838510100000,5.700099853515625,-0.00730067840218544,-0.03278057209551334,0.0007198387071490288
1733706838520119800,5.710119873046875,-0.003743287314707413,-0.036281858214735986,0.06501373944133519
1733706838530140000,5.720139892578125,-0.043655620119441296,-0.07114157467186451,0.03250993846058845
1733706838540160800,5.730160888671875,-0.0693184691642411,-0.1270867492556572,-0.004153320287168026
1733706838550180900,5.740180908203125,-0.09357494027614593,-0.1210819558829069,-0.03094078944772482
1733706838560201000,5.750200927734375,-0.07255085694789887,-0.09444587789177894,-0.09130874890983104
1733706838570221000,5.760220947265625,-0.04018355096154846,-0.048942017823457716,-0.0925438436627388
1733706838580242000,5.770241943359375,-0.020024560030037535,-0.04800269114673138,-0.05386427665650844
1733706838590262000,5.780261962890625,-0.024305589216947553,-0.049048400807380675,-0.005414718525111675
1733706838600281900,5.79028173828125,-0.012570727759599686,-0.06220481950044632,0.000263034850358963
1733706838610303000,5.800302978515625,-0.0024012159228324888,-0.061657122489809986,-0.008130407224595546
1733706838620322800,5.81032275390625,-0.0011047646378166973,-0.056989130678772926,-0.009813538005948067
1733706838630343000,5.820343017578125,-0.02118307328224182,-0.05901742163598537,0.0008960720568895339
1733706838640363000,5.830363037109375,-0.03797519986284897,-0.05054886849820613,0.012568681932985782
1733706838650384000,5.8403837890625,-0.06873274169815703,-0.05080781169533729,0.01001987423300743
1733706838660404000,5.850404052734375,-0.043508302336931225,-0.05225274980664253,0.02173252385854721
1733706838670424000,5.860424072265625,0.011310498565435409,-0.039488545301556585,0.045831192326545714
1733706838680444000,5.87044384765625,0.006695113724470138,-0.024986557218432424,0.09456804296672344
1733706838690465000,5.880465087890625,-0.01348725808262825,-0.02459843468368053,0.08688654855340719
1733706838700484900,5.89048486328125,-0.030890812826156615,-0.059839843934774394,0.06838672300577163
1733706838710504700,5.900504638671875,-0.041245033580064774,-0.08328677049577236,0.04412205032110214
1733706838720526000,5.910526123046875,-0.048964229655265805,-0.07787000614404678,-0.000689151307940483
1733706838730546000,5.9205458984375,-0.042106618845462795,-0.06198913092315197,-0.04162584959119558
1733706838740565800,5.930565673828125,-0.0023988595689646897,-0.05712766236662865,-0.05755787047743797
1733706838750585900,5.9405859375,0.024555782852042466,-0.0773854374974966,-0.07030366254299879
1733706838760606700,5.950606689453125,0.008300201700394973,-0.09116963270008563,-0.08592617908865213
1733706838770626800,5.960626708984375,-0.01769114864640869,-0.11255962673127651,-0.08142126888483762
1733706838780647000,5.97064697265625,-0.027197803527116773,-0.1190910743266344,-0.07183160276263952
1733706838790666800,5.980666748046875,-0.026059164019161835,-0.11740297510921954,-0.06435965944677591
1733706838800687900,5.99068798828125,-0.06101824006438255,-0.07116320198178291,-0.04039718457907438
1733706838810707700,6.000707763671875,-0.06502806022763252,-0.06742810710668563,-0.05207505515217781
1733706838820727800,6.010727783203125,-0.058114335316419595,-0.08001461695730686,-0.06768792708665132
1733706838830748700,6.020748779296875,-0.08675123173594475,-0.10540449427962302,-0.07859276746064424
1733706838840768800,6.030768798828125,-0.06835400804625824,-0.12286825477778911,-0.10298983435332774
1733706838850788900,6.040788818359375,-0.036574703681468965,-0.12174831083714961,-0.1135296408072114
1733706838860809000,6.05080908203125,-0.02904605260915123,-0.10231704965829849,-0.09635083473026752
1733706838870829800,6.060829833984375,-0.06860415601558052,-0.09727847096920013,-0.09556143791824578
1733706838880850000,6.070849853515625,-0.06648119077854789,-0.09255904123187064,-0.11114449923634528
1733706838890869800,6.080869873046875,-0.03688916732496582,-0.06988368356525898,-0.12134732882082462
1733706838900891000,6.090890869140625,-0.01952653824687004,-0.07714110734760761,-0.10928630414903164
1733706838910910700,6.10091064453125,0.01166471883058548,-0.13710779253244398,-0.11646131034493445
1733706838920930800,6.110930908203125,-0.0063280339777469635,-0.1505833601772785,-0.0989092870414257
1733706838930951000,6.120950927734375,0.0024760347247123715,-0.14469956283569335,-0.03388824107646942
1733706838940971800,6.1309716796875,0.014013327783346175,-0.10820961482822894,-0.00367167425006628
1733706838950992000,6.140991943359375,0.006762909130519255,-0.050478141349554057,-0.025739421412348747
1733706838961012000,6.151011962890625,-0.04274140961766243,-0.05986673194169998,-0.08606938695162535
1733706838971032800,6.16103271484375,-0.10499299086928367,-0.040865678873658176,-0.14631898073107003
1733706838981053000,6.171052978515625,-0.05209491976327262,-0.06359072090089321,-0.11489070002734661
1733706838991072800,6.18107275390625,0.03611294052177109,-0.09485095156133175,-0.05521715257018804
1733706839001092900,6.1910927734375,0.10187864910787903,-0.1115057337641716,-0.05413549481332302
1733706839011114000,6.201114013671875,0.18348142117261884,-0.13933949710726737,-0.05338993714302778
1733706839021133800,6.2111337890625,0.1841068595945835,-0.1281143387377262,-0.03587766132801771
1733706839031154000,6.22115380859375,0.13352818048000334,-0.12801672358214855,-0.02947890020161867
1733706839041174000,6.231174072265625,0.08135960182547569,-0.10266133305132388,-0.05850158106833696
1733706839051195000,6.24119482421875,0.0666039266756503,-0.02267711123228073,-0.018699732033908366
1733706839061215000,6.251215087890625,0.029987146551278418,0.0676473028153181,0.06914075624346733
1733706839071234800,6.26123486328125,-0.0087140523314476,0.07745324203670025,0.16469517989903687
1733706839081256000,6.271255859375,-0.0034393267989158626,0.056875148910284036,0.18342121541798115
1733706839091276000,6.281276123046875,0.040537766660121266,0.009155366358160971,0.20226737018525598
1733706839101295900,6.2912958984375,0.05951133806619327,0.002042904004454613,0.17292612488865852
1733706839111316000,6.30131591796875,0.042727385658887215,-0.03844926538169384,0.12305033334642648
1733706839121336800,6.3113369140625,0.02477788747039158,-0.057312371283769606,0.10213234074115753
1733706839131357000,6.32135693359375,-0.023211368806031533,-0.04365852446258068,0.08211801897734403
1733706839141377000,6.331376953125,-0.03550035244822502,-0.01664484533071518,0.04143909484744072
1733706839151396900,6.34139697265625,-0.00803249524149578,-0.014570961666107177,0.0051072600111365316
1733706839161418000,6.35141796875,0.02978255932331085,-0.04260053984224796,-0.010315934570133686
1733706839171438000,6.36143798828125,0.06145195987310726,-0.049307928526401514,0.0033832126975059506
1733706839181458000,6.3714580078125,0.08339841417670249,-0.03611468495428562,0.038627544558048246
1733706839191479000,6.38147900390625,0.08119944282770157,-0.04058335480093956,0.04452244781553745
1733706839201499000,6.391498779296875,0.024644611912965773,-0.03908580971956253,0.04481587780416012
1733706839211518700,6.401518798828125,-0.015513213235570582,-0.04790332242548465,0.022697277237474917
1733706839221538800,6.411538818359375,-0.052764790982007974,0.002257423537969589,0.034164719930291174
1733706839231560000,6.421559814453125,-0.04902385088801384,-0.0040378772139549254,0.07512363004535436
1733706839241579800,6.431579833984375,-0.02704115166068077,-0.047777650219202036,0.08349310672283172
1733706839251600000,6.441599853515625,0.05760930840373039,-0.04690437451601028,0.0681333327665925
1733706839261619700,6.45161962890625,0.08725041342973709,-0.025510288831591604,0.05103752879798412
1733706839271640800,6.461640869140625,0.0814987180352211,-0.01535772812962532,0.06993892088383435
1733706839281660700,6.47166064453125,0.04285480686426162,-0.01454465818107128,0.0940209304779768
1733706839291680800,6.4816806640625,-0.010955109256505965,-0.005721884778141975,0.12474953847974538
1733706839301702000,6.491701904296875,-0.054120881766080854,0.009460486784577369,0.10032003062218427
1733706839311721700,6.5017216796875,-0.09236965613961219,0.028610592934489247,0.10228051704019307
1733706839321741800,6.511741943359375,-0.07912731272876262,-0.008253449082374572,0.08716448871195316
1733706839331762000,6.521761962890625,-0.04422492617368698,-0.06327683264613151,0.053015550872683524
1733706839341782800,6.53178271484375,0.009251227948069572,-0.09636953943073749,0.029158874467015265
1733706839351803000,6.541802978515625,0.02346913610951742,-0.08595452840030193,-0.01666881072819233
1733706839361822700,6.55182275390625,0.030564065089821815,-0.08688274916112422,-0.014365502221882343
1733706839371843800,6.56184375,0.0007107809011475183,-0.07475041281878948,-0.009982172571122645
1733706839381864000,6.571864013671875,-0.05567454094886779,-0.055087096449732774,-0.0022945406779646873
1733706839391883800,6.5818837890625,-0.06526303802728653,-0.06724339818954467,-0.009103928431868552
1733706839401903900,6.59190380859375,-0.04762742809355259,-0.015749357795715332,0.0035711364850401876
1733706839411924700,6.6019248046875,-0.037105454123881644,0.0017284312278032302,0.042271746279299256
1733706839421944800,6.61194482421875,-0.09671849899888038,-0.007739069819450378,0.06760726306587457
1733706839431965000,6.62196484375,-0.12635609689354896,-0.035949849781394004,0.09789631060659885
1733706839441984800,6.63198486328125,-0.12550152589082716,-0.07584872944951057,0.056444940799474715
1733706839452006000,6.642005859375,-0.12433598924279213,-0.07964403007924556,0.01033317796587944
1733706839462026000,6.65202587890625,-0.13069967905580998,-0.08158522727489471,-0.05310527498275041
1733706839472045800,6.6620458984375,-0.07374445064663887,-0.10385200414061546,-0.09027326838225126
1733706839482067000,6.67206689453125,0.0055716626524925225,-0.12007833179831504,-0.10360533590316771
1733706839492086800,6.682086669921875,0.01063245317339897,-0.10894494336545467,-0.07855418901592492
1733706839502107100,6.692107177734375,-0.014371064312988891,-0.10318038848936557,-0.06586217296421527
1733706839512127200,6.702127197265625,-0.03680325174033642,-0.11437339815497398,-0.0471934205904603
1733706839522148000,6.712148193359375,-0.05580839646160602,-0.11503507693409919,-0.05123860432803631
1733706839532168200,6.722168212890625,-0.07780747143500484,-0.10521978536248207,-0.0676972794368863
1733706839542188300,6.732188232421875,-0.08668693432807922,-0.07902677496373653,-0.07001695455610751
1733706839552208100,6.7422080078125,-0.08259294301271439,-0.0716606301099062,-0.046801790924370285
1733706839562229200,6.752229248046875,-0.09686346042752265,-0.09333645534515381,-0.026183073526620863
1733706839572249000,6.7622490234375,-0.10013386040031909,-0.0961164414525032,-0.018745324741303918
1733706839582269200,6.772269287109375,-0.08484685941934585,-0.11337971094250679,-0.02423515432924032
1733706839592290000,6.7822900390625,-0.08010054167509079,-0.12581950579881668,-0.03964081325381994
1733706839602310100,6.79231005859375,-0.05603635999858379,-0.12528116113841534,-0.08416501463502644
1733706839612330200,6.802330322265625,-0.0487935401303228,-0.10558452702164649,-0.10997457867413758
1733706839622350000,6.81235009765625,-0.024604864424467087,-0.073699442461133,-0.10055033224672079
1733706839632371200,6.82237109375,-0.011649521261453627,-0.085036829033494,-0.10691665240824222
1733706839642391300,6.832391357421875,-0.01949088241159916,-0.11143909826874732,-0.09112900842875242
1733706839652411000,6.842410888671875,-0.033060558080673215,-0.10652443822026252,-0.06158288820981979
1733706839662431000,6.852430908203125,-0.0319938056319952,-0.10569675522446632,-0.07165361584722996
1733706839672452000,6.8624521484375,-0.056716743478178976,-0.0942079774826765,-0.06335340501368046
1733706839682472000,6.872471923828125,-0.04892214407920837,-0.12216799755394459,-0.07342997786998748
1733706839692492000,6.882491943359375,-0.051776355333393434,-0.10514321299493312,-0.04940583594292402
1733706839702513000,6.892512939453125,-0.09494564410746097,-0.10695932250618934,-0.03628799569457769
1733706839712533000,6.902532958984375,-0.14361819733977316,-0.09958616338968276,-0.07867839991748332
1733706839722553000,6.912552978515625,-0.1358230225520674,-0.11678104381859301,-0.09125234254747629
1733706839732573000,6.922572998046875,-0.09347674059867858,-0.1257914487481117,-0.08271715391427278
1733706839742594000,6.932593994140625,-0.08944297330426051,-0.1487017842143774,-0.09911123935431242
1733706839752614100,6.9426142578125,-0.03591594751179218,-0.11050094063580035,-0.12757979346960782
1733706839762634000,6.952634033203125,-0.046831309279799456,-0.08902151475548743,-0.10893149936199188
1733706839772654000,6.962654052734375,-0.08628478326797485,-0.0748012662231922,-0.09768032976835965
1733706839782675000,6.972675048828125,-0.08857961620688438,-0.09372165527045727,-0.06613076077252626
1733706839792695000,6.982695068359375,-0.05890343073434196,-0.08843407025635242,-0.012668635176122187
1733706839802715100,6.992715087890625,-0.03011045783711597,-0.07632394574582577,0.010834990008175373
1733706839812736000,7.002736083984375,-0.053994031382864335,-0.073494275277853,-0.0008174538627266884
1733706839822756000,7.012756103515625,-0.09120528853535652,-0.06668284169733524,-0.004589958138763904
1733706839832776200,7.022776123046875,-0.14140519746541977,-0.04238309769928455,0.028371231220662593
1733706839842796000,7.032796142578125,-0.13496317258602938,-0.03865267899930477,0.02670037539899349
1733706839852817200,7.042817138671875,-0.07193652444183826,-0.04492927505075931,0.03361059317886829
1733706839862837000,7.0528369140625,-0.024327801048755645,-0.03507131338119507,0.05107932211309671
1733706839872857000,7.062857177734375,-0.03307692469358444,-0.048610009390115734,0.053578737713396545
1733706839882877200,7.072877197265625,-0.05815817445814609,-0.06909165640473365,0.06007628303915262
1733706839892898000,7.08289794921875,-0.0815191671682056,-0.06371113241016864,0.035066637206077576
1733706839902918100,7.092918212890625,-0.10223698842572047,-0.05697627119719982,0.011417466071248054
1733706839912938200,7.102938232421875,-0.03418809167272411,-0.06703940005004405,-0.001559212140738964
1733706839922959000,7.112958984375,0.0509206244200468,-0.057873512297868725,0.014422785367071627
1733706839932979200,7.122979248046875,0.01884732381105423,-0.06520283227264881,0.028492519512772558
1733706839942999000,7.1329990234375,-0.014383932927716522,-0.05434241556227207,0.02591039406508207
1733706839953019100,7.14301904296875,-0.06796588551150634,-0.05349661238789558,0.07230857262462377
1733706839963040000,7.1530400390625,-0.1277332487319596,-0.05292378093600273,0.08556289873421191
1733706839973060000,7.16306005859375,-0.13607671418534592,-0.05291968928277492,0.07047434293478727
1733706839983080200,7.173080078125,-0.08732055605649948,-0.04957797763943672,0.06392974359691142
1733706839993101000,7.18310107421875,-0.03430265796310268,-0.03601648527681827,0.058148529846966265
1733706840003121200,7.19312109375,-0.028653263032436368,-0.016533786171674728,0.06380787078291178
1733706840013141200,7.203141357421875,-0.056526189342141146,-0.04270809186995029,0.0774576259508729
1733706840023161000,7.2131611328125,-0.07815408378243446,-0.04266483725011348,0.06890782427042723
1733706840033182200,7.22318212890625,-0.1118885956019163,-0.06636836892068386,0.04927344173491001
1733706840043202000,7.2332021484375,-0.10696809033453464,-0.06907412074804306,0.03294628405123949
1733706840053222100,7.24322216796875,-0.05733167877243831,-0.060065469384193416,-0.0025379940450191494
1733706840063242200,7.2532421875,-0.010129746081959455,-0.0459101027816534,-0.007444178526103496
1733706840073263000,7.26326318359375,-0.01667346863700077,-0.05666705911755562,-0.0043152328506112095
1733706840083283200,7.273283203125,-0.037009003445506096,-0.049472179177403444,0.00896422770023346
1733706840093303300,7.28330322265625,-0.061431478774081914,-0.0051876317709684365,0.05869242746531963
1733706840103324200,7.29332421875,-0.0924847886855714,-0.00737082102894783,0.1237073359504342
1733706840113344300,7.30334423828125,-0.06608719562543555,-0.046592239826917646,0.12592822687029837
1733706840123364000,7.313364013671875,-0.025064883151650428,-0.07888356710076332,0.09864479088634252
1733706840133384000,7.323384033203125,-0.0378758494079113,-0.1028004492610693,0.05232961443513631
1733706840143405300,7.3334052734375,-0.004481492795608937,-0.09636310968995093,-0.004053659304976463
1733706840153425000,7.3434248046875,0.011788637471199036,-0.09089315384626388,-0.01246025312244892
1733706840163445000,7.353445068359375,-0.028528741603624074,-0.06654197192192077,-0.022251579296588896
1733706840173465000,7.363465087890625,-0.01978780126525089,-0.04444295283854007,-0.02277764899730682
1733706840183486000,7.37348583984375,-0.0026391345982439813,-0.025009353572130202,-0.015270049846172333
1733706840193506000,7.383506103515625,-0.013624620726704596,-0.06035013154447078,0.02454202832132578
1733706840203526100,7.393526123046875,-0.032242227435112,-0.10299918670356273,0.03253828777223825
1733706840213546000,7.4035458984375,-0.055903673529624935,-0.08940496111512183,0.03551818036586046
1733706840223567000,7.413567138671875,-0.051228064667712896,-0.07982698543071746,0.01821545564830303
1733706840233587000,7.4235869140625,-0.05447802464067936,-0.06780044755041599,-0.04514876302033662
1733706840243607000,7.43360693359375,-0.05137244157446548,-0.048098552736639974,-0.0651399961695075
1733706840253628000,7.4436279296875,-0.044811201629042625,-0.05662497354149818,-0.044406420220434666
1733706840263648000,7.45364794921875,-0.013230652973055838,-0.07304536246657371,-0.00455050291121006
1733706840273668000,7.463668212890625,0.002807458636164665,-0.08361468727588653,0.0260813667178154
1733706840283688200,7.473688232421875,-0.02313535812748596,-0.0785229170948267,-0.010462065042555332
1733706840293709000,7.483708984375,-0.04914660048484802,-0.11148878262937069,-0.03517944993078709
1733706840303729200,7.493729248046875,-0.07358546069264411,-0.10974749191999435,-0.046024084550142286
1733706840313749000,7.5037490234375,-0.07015546797765418,-0.09009469694495201,-0.0776750680938363
1733706840323769000,7.51376904296875,-0.030618425625562665,-0.08136310895681381,-0.07625088050961494
1733706840333790000,7.5237900390625,-0.01798922741068527,-0.065756374502182,-0.07111205631643533
1733706840343810000,7.53381005859375,-0.02495850016772747,-0.07305646838247776,-0.05613134480565786
1733706840353830100,7.543830078125,-0.04156536984192207,-0.0854459943562746,-0.03142915748655796
1733706840363851000,7.55385107421875,-0.044458753195870664,-0.08089841405451298,-0.025483108563721178
1733706840373871000,7.56387109375,-0.06222644681036472,-0.07154898642897606,-0.0144043729275465
1733706840383891200,7.57389111328125,-0.07516133170723914,-0.08872983833253383,-0.024536767624318598
1733706840393911000,7.5839111328125,-0.05739011269509792,-0.07355740364193916,-0.017079729616641996
1733706840403932200,7.59393212890625,-0.08107609957582317,-0.0684837536394596,-0.01103548101633787
1733706840413952000,7.603951904296875,-0.05562718554264866,-0.04628711940050125,-0.008994330577552319
1733706840423972000,7.61397216796875,0.0007049333989620208,-0.03625906186103821,0.021484394316375253
1733706840433992200,7.6239921875,0.00336393260830082,-0.06724748984277248,0.03784223939925432
1733706840444013000,7.634012939453125,-0.013902844013040885,-0.07896364659965038,0.030608781014382837
1733706840454033200,7.644033203125,0.011126374170184136,-0.07563654800355434,0.02180442005097866
1733706840464053200,7.65405322265625,0.020402718293201175,-0.09262743029296398,0.0023407179072499275
1733706840474074000,7.66407421875,-0.03111818270809017,-0.09129296681880951,-0.005089139832556247
1733706840484094200,7.67409423828125,-0.06222118611335754,-0.06336041927635669,-0.024759178203344345
1733706840494114000,7.684114013671875,-0.0386532452548854,-0.037407647374272344,-0.013092705807089804
1733706840504134400,7.694134521484375,-0.030134432367747647,-0.04397533532679081,-0.03374824808388948
1733706840514155300,7.7041552734375,-0.03143148644096218,-0.07045593049526214,-0.008353402325510979
1733706840524175400,7.71417529296875,-0.008496601055329666,-0.07120937921106815,0.03721738549917936
1733706840534195500,7.724195556640625,0.034103354265028606,-0.07365092714428902,0.07069850707948207
1733706840544215600,7.734215576171875,0.009529478633869439,-0.07480477335453033,0.08077887932807207
1733706840554236400,7.744236328125,-0.046397009515762325,-0.056088382446765894,0.0947919148504734
1733706840564256500,7.754256591796875,-0.04091127158105373,-0.049349429580569266,0.04188070113509893
1733706840574276400,7.7642763671875,-0.04306466848896816,-0.060490416797995564,-0.013330313955247402
1733706840584297500,7.77429736328125,-0.05839665938913822,-0.06318330914378166,-0.03612754443585872
1733706840594317300,7.7843173828125,-0.018901702613104133,-0.05623159030973911,-0.06483838287442922
1733706840604337400,7.79433740234375,-0.0261596926510334,-0.044161797809600827,-0.023137129959464073
1733706840614357500,7.804357421875,-0.040164252606034276,-0.04901040688455104,0.047854807108640665
1733706840624378400,7.81437841796875,-0.012943086469639093,-0.063330024138093,0.044481239022314545
1733706840634398500,7.8243984375,-0.030717776080500334,-0.044833413460850714,0.048260757561028
1733706840644418600,7.83441845703125,-0.027905065880483016,-0.06012567513883114,0.02922784804999828
1733706840654438400,7.8444384765625,-0.04992576816380024,-0.06463409247398376,-0.024034371060132977
1733706840664459500,7.85445947265625,-0.0060106568579562005,-0.07540157020390033,-0.03202098589986563
1733706840674479400,7.864479248046875,0.014137830945849418,-0.07432078922986984,-0.050532501885294914
1733706840684499500,7.87449951171875,-0.0029354597968515007,-0.07869009035527706,-0.0042991584986448285
1733706840694519600,7.88451953125,-0.02115149996704422,-0.05262041407525539,0.05077741655707359
1733706840704540400,7.89454052734375,-0.032371425039041786,-0.056821957418322556,0.06591039602011442
1733706840714560500,7.904560546875,-0.050747624207008624,-0.08003273713588714,0.0376274276047945
1733706840724580600,7.91458056640625,-0.0444417837947607,-0.0748456898868084,0.00670329703092575
1733706840734601500,7.9246015625,-0.015358915439713745,-0.06439619206488133,-0.021744506557285784
1733706840744621600,7.93462158203125,0.013838537472020834,-0.04055062157511711,-0.011482640261948108
1733706840754641400,7.944641357421875,0.0396054496794939,-0.03674538407325744,0.010485738179087638
1733706840764661500,7.95466162109375,0.02091537138991989,-0.01284545304775238,0.04007248266935348
1733706840774682600,7.9646826171875,-0.018395479257171974,-0.025049101060628888,0.07461451147943735
1733706840784702500,7.974702392578125,-0.03764204065203666,-0.07263795070946216,0.08871551754623651
1733706840794722600,7.98472265625,-0.06584172383123077,-0.0747317081183195,0.05943710835278034
1733706840804742700,7.99474267578125,-0.06185059010214172,-0.057787587580084794,0.03864829508513212
1733706840814763500,8.004763427734375,-0.032294843538338315,-0.06413198817074299,0.021927461908757686
1733706840824783600,8.01478369140625,0.015022212564945221,-0.08828384813070296,-0.011689268749952316
1733706840834803500,8.024803466796875,0.032152201930945735,-0.07949789960682392,-0.01576893927901983
1733706840844824600,8.034824462890626,0.002434533670544624,-0.04667524193525314,-0.01748831041753292
1733706840854844700,8.0448447265625,-0.06176877530389465,-0.04474456613361835,-0.02421557284593582
1733706840864864300,8.0548642578125,-0.08885961132519878,-0.05915244619250297,-0.035677754841744895
1733706840874884400,8.06488427734375,-0.07850655048191547,-0.06769932526350021,-0.03763677995502949
1733706840884905500,8.074905517578125,-0.04373977300524711,-0.08014671890437602,-0.020179449197649954
1733706840894925300,8.08492529296875,-0.03607434381074272,-0.07943009506762028,-0.004381283824145794
1733706840904945400,8.0949453125,-0.05044832160002552,-0.0774812990874052,0.01766074437499046
1733706840914965500,8.104965576171875,-0.06953063234388827,-0.09017828357517718,-0.02249181779325008
1733706840924986400,8.114986328125,-0.005813061059778556,-0.09621990182697772,-0.06600538082718849
1733706840935006500,8.12500634765625,-0.011863456273078919,-0.08635784850418567,-0.052827627085149285
1733706840945026300,8.1350263671875,0.004867898297309875,-0.06967384020686149,-0.027107202634215354
1733706840955046400,8.14504638671875,-0.0006055738108698279,-0.05073650002479553,-0.006746259389817715
1733706840965067300,8.1550673828125,-0.01701075603365898,-0.039455812075734134,-0.015502397297322749
1733706840975087400,8.16508740234375,-0.04495440035886131,-0.04371113143265247,-0.007422551216185093
1733706840985107500,8.175107421875,-0.04343815971016884,-0.06841185744702816,0.01653670878112316
1733706840995128300,8.18512841796875,-0.05913900218904018,-0.07405483177006245,0.013877426443994045
1733706841005148400,8.1951484375,-0.02578093159967102,-0.06999415820240974,-0.006797697316110134
1733706841015168500,8.20516845703125,0.004721767824888229,-0.07597440165579318,0.01452419991493225
1733706841025188400,8.215188232421875,-0.011273089164495468,-0.05548807846605777,0.04565349767208099
1733706841035209500,8.22520947265625,-0.01180031877583824,-0.05137479792833328,0.03139116356372833
1733706841045229300,8.235229248046876,0.017148109544580802,-0.04316401894390583,0.02238046637326479
1733706841055249400,8.24524951171875,-0.006741875475645065,-0.04697685523033142,0.02891512883901596
1733706841065269500,8.25526953125,-0.03288052533864975,-0.052804538470506666,0.03791588915735483
1733706841075290400,8.265290283203125,0.02164601918545086,-0.06221534089446067,0.02780044559538364
1733706841085310500,8.275310546875,0.04631283836364746,-0.07464286079108715,-0.001978314335644245
1733706841095330600,8.28533056640625,0.025962124252319335,-0.06856091052889823,-0.014546119485795497
1733706841105350400,8.295350341796874,0.003146481332182884,-0.055150809335708616,0.002790507501363754
1733706841115371500,8.30537158203125,-0.008926827432448044,-0.04670797516107559,0.00910538973659277
1733706841125391400,8.315391357421875,-0.005531910597416572,-0.06369944197237491,0.008404547990858555
1733706841135411500,8.325411376953125,-0.028371523481607437,-0.055691492083668706,0.002643500246107578
1733706841145432600,8.3354326171875,-0.06856091052889823,-0.04566577263176441,-0.02728723537623882
1733706841155452400,8.345452392578125,-0.05145136116272769,-0.06428805551528931,-0.03584638940691948
1733706841165472500,8.355472412109375,-0.011436755293607711,-0.07491700155735015,-0.010538052888214588
1733706841175492600,8.36549267578125,-0.026956395986676214,-0.07139759525954723,0.002904197008907795
1733706841185513500,8.375513427734376,-0.04347206197977066,-0.054554012486338614,-0.015963877329230308
1733706841195533600,8.385533447265624,-0.048626366869872435,-0.054365796437859534,-0.03767068222463131
1733706841205553400,8.395553466796875,-0.05530336498233955,-0.047666591060161585,-0.03818418470472097
1733706841215573500,8.405573486328125,-0.035681549667450595,-0.04522387408316135,-0.01900806733071804
1733706841225594600,8.4155947265625,-0.03737432505998295,-0.06942483388185501,0.002537701784074306
1733706841235614500,8.425614501953126,-0.05007599028944969,-0.07977262489497661,0.023728666111826894
1733706841245634600,8.435634521484374,-0.022720361285540273,-0.10809563305974006,0.03334025180488825
1733706841255655400,8.445655517578125,0.014278125332528724,-0.08380290332436562,0.036038697108626366
1733706841265675500,8.455675537109375,0.013084522500634193,-0.07146715336441993,0.015739713184535504
1733706841275695600,8.465695556640625,0.0010679214924573899,-0.06650631608664989,-0.02533843939602375
1733706841285715500,8.475715576171876,0.010476965784165076,-0.07752747631669044,-0.05091390241831541
1733706841295736600,8.485736572265624,-0.009900042679044417,-0.04593114556968212,-0.015680091951787472
1733706841305756700,8.495756591796875,-0.03858136732876301,-0.03350421019494533,0.028179800301790237
1733706841315776300,8.5057763671875,-0.0108779569336446,-0.029040801045298575,0.0583148263245821
1733706841325796400,8.51579638671875,-0.0040688614406855774,-0.06118365975916385,0.06961831062734126
1733706841335817500,8.5258173828125,0.010981992696854286,-0.10335048435926437,0.08227817797511816
1733706841345837300,8.53583740234375,0.029361123607424086,-0.10186170710623264,0.04333820646703243
1733706841355857400,8.545857421875,0.02375380283637205,-0.08491115682721137,-0.02297697096168995
1733706841365877500,8.55587744140625,-0.03209785052835941,-0.06040683016777038,-0.04791676642894745
1733706841375898400,8.5658984375,-0.018811663409206085,-0.061735448423027986,-0.08375526479035615
1733706841385918500,8.57591845703125,0.02753390361368656,-0.082474285069108,-0.04673661673367023
1733706841395938300,8.585938232421874,0.03802957866489887,-0.08365034311115742,0.030709026518464088
1733706841405959400,8.59595947265625,0.014622988680866545,-0.07392682147622108,0.06617839930653571
1733706841415979300,8.605979248046875,-0.05805062699702102,-0.10064297896623611,0.023588673119246957
1733706841425999400,8.615999267578125,-0.05572890148460865,-0.1251385377973318,-0.013688625873625277
1733706841436019500,8.62601953125,-0.023040683847665784,-0.10279285047650337,-0.06322597924172878
1733706841446040300,8.636040283203124,0.00776946495771408,-0.09127367759644985,-0.10230857409089802
1733706841456060400,8.646060302734375,0.03804360719025135,-0.0621095424324274,-0.13694529544711112
1733706841466080500,8.65608056640625,0.08155190952718258,-0.03674830668270588,-0.13762889379709958
1733706841476100400,8.666100341796875,0.07849076839089393,-0.03096504710614681,-0.09513707502633333
1733706841486121500,8.67612158203125,0.03949146791100502,-0.045350130811333655,-0.038923020373284815
1733706841496141000,8.68614111328125,-0.014252397236227989,-0.07322013451159,0.012739654585719108
1733706841506160600,8.69616064453125,-0.0971796867698431,-0.060524319067597386,0.0704299192711711
1733706841516180700,8.7061806640625,-0.10786123978197575,-0.05423895518779754,0.07357903095185757
1733706841526201600,8.71620166015625,-0.08990005115568638,-0.024560440760850906,0.07910159376561642
1733706841536221700,8.7262216796875,-0.07069207733869552,-0.02422258710861206,0.07904694096893072
1733706841546241800,8.73624169921875,0.0028121348112821578,-0.042511107993125914,0.04778787935227155
1733706841556262700,8.7462626953125,0.06545300764143466,-0.04927168816924095,0.019239537999033926
1733706841566282800,8.75628271484375,0.05485211865007877,-0.07250877137184143,0.001266074413061142
1733706841576302800,8.766302734375,0.03494271856546402,-0.048933249995112414,-0.022770050212740898
1733706841586322700,8.77632275390625,0.0026285949379205704,-0.0694774408519268,-0.00977291373461485
1733706841596343800,8.78634375,-0.030030981126427648,-0.08965338291823863,0.0019517185896635054
1733706841606363600,8.79636376953125,-0.05923194116950035,-0.10578794063925742,-0.016248247228562832
1733706841616383700,8.8063837890625,-0.04992635268568992,-0.08587211081385612,-0.041222237226366996
1733706841626403800,8.81640380859375,-0.05478723672032356,-0.044969022539258004,-0.03450052775591612
1733706841636424700,8.8264248046875,-0.04371230047643184,-0.030341362249851227,-0.03207183930426836
1733706841646444800,8.83644482421875,-0.018894085562229157,-0.04423018687069416,-0.014357026654481887
1733706841656465000,8.84646484375,-0.029829321074485778,-0.054230771881341934,0.020109891092777252
1733706841666484700,8.856484619140625,-0.06448094773888588,-0.06571838057935238,0.030661095723509786
1733706841676505900,8.866505859375,-0.05900514667630195,-0.06309446181654929,0.021910510773956775
1733706841686525700,8.876525634765626,-0.03196984023451805,-0.0468424151957035,0.055390755571424956
1733706841696545800,8.8865458984375,-0.046617958790063856,-0.042509354427456854,0.0357648486033082
1733706841706567000,8.89656689453125,-0.05334112956523895,-0.023052958807349203,0.028145021249353884
1733706841716586800,8.906586669921875,0.001994388973021705,-0.018974749583005903,0.032008710940182206
1733706841726606800,8.91660693359375,0.02701660174131393,-0.02112520561516285,0.012258593070507048
1733706841736627000,8.926626953125,0.035274726998805996,-0.03855155671238899,0.034814416010677814
1733706841746647800,8.936647705078125,0.020541268247365952,-0.05656009161174297,0.0488946715503931
1733706841756668000,8.94666796875,0.008684826236963272,-0.053230070406198496,0.0663753831833601
1733706841766687700,8.956687744140625,0.014251812714338301,-0.06022972003519535,0.060196986809372896
1733706841776707800,8.966707763671875,-0.013162263911962508,-0.047018940806388854,0.05135550870597362
1733706841786729000,8.97672900390625,-0.06686228991746902,-0.032015432941913606,0.03876461494117975
1733706841796748800,8.986748779296875,-0.04230652533173561,-0.04679623796641826,-0.019189561377465723
1733706841806769000,8.996768798828125,-0.020078326910734176,-0.06039630877375602,-0.03634644788354635
1733706841816789000,9.0067890625,-0.042537996000051495,-0.03563362343907356,0.01326806237399578
1733706841826809900,9.016809814453126,-0.041600422888994217,-0.049396191331744194,0.022108663694560528
1733706841836830000,9.026829833984374,-0.009613045856141252,-0.047076808473467825,0.06541033754348755
1733706841846849800,9.036849853515625,0.02057517051696777,-0.05900573119819164,0.052044367752969264
1733706841856870000,9.046869873046875,0.02176291899681091,-0.06822890209555625,0.012532441575825214
1733706841866891000,9.05689111328125,0.010282910225010709,-0.07504033567607403,-0.006721709470450878
1733706841876910800,9.066910888671876,-0.015127426505088805,-0.07937982618510722,-0.056852644817531106
1733706841886931000,9.076930908203124,-0.026254385197162628,-0.07674246341884136,-0.0721156804010272
1733706841896951800,9.086951904296875,0.009597849428653717,-0.057923196658492083,-0.04287029669433832
1733706841906972000,9.096971923828125,0.007017768665932817,-0.04854454293847084,0.023296119913458823
1733706841916992000,9.106991943359375,0.00032733225822448726,-0.06236907015144825,0.0424441802367568
1733706841927011800,9.11701171875,-0.011166705038928193,-0.05196516503691673,0.043888826087117194
1733706841937033000,9.127032958984374,-0.02499766313433647,-0.0524848049968481,0.028133623072504995
1733706841947053000,9.137052978515625,-0.0044213224319450085,-0.061647770139575,0.018325638024508952
1733706841957072600,9.14707275390625,0.011938275074958801,-0.08971826484799385,0.035729777289927
1733706841967092700,9.1570927734375,-0.023143559700250626,-0.07712006455957889,0.0328302564561367
1733706841977113600,9.167113525390626,-0.07205752047300339,-0.0778816965818405,0.006748012955486774
1733706841987133700,9.1771337890625,-0.0518225416958332,-0.0731681120634079,0.01787438712567091
1733706841997153800,9.18715380859375,0.0025987831799022384,-0.07939151662290096,-0.021318390099704265
1733706842007174000,9.197173828125,0.02827332380414009,-0.06869476604163646,0.0020750527083873748
1733706842017194800,9.20719482421875,0.035778582584427204,-0.05114098917245864,0.017153963896632193
1733706842027214800,9.21721484375,0.03625438340263208,-0.05049333891868591,0.041217268790304656
1733706842037234700,9.227234619140624,-0.024918170440627725,-0.04624912547767162,0.014121756593883037
1733706842047255800,9.237255859375,-0.04170797491669655,-0.05392506693303585,0.0027528058394789695
1733706842057275600,9.247275634765625,-0.04041735058426857,-0.05902385137677192,-0.027810966989398
1733706842067295700,9.257295654296875,-0.054606034934520715,-0.05243161350488663,-0.0140209265679121
1733706842077315800,9.26731591796875,-0.03992869028449058,-0.057931379964947696,0.03068827599138021
1733706842087336700,9.277336669921874,-0.05364624999165535,-0.04666296697556972,0.043103228667378424
1733706842097356800,9.287356689453125,-0.05869768359574955,-0.044375732821226116,0.024834873788058758
1733706842107377000,9.297376953125,-0.03674538178996881,-0.06660042411088943,-0.009496434880793094
1733706842117396700,9.307396728515625,0.02133738934440771,-0.06455050584375858,0.010295768564939498
1733706842127417900,9.31741796875,0.0069230795447365375,-0.058145314976572986,0.013528466875851153
1733706842137437700,9.327437744140624,-0.0027916742618544956,-0.06995148810446263,-0.005092062442004681
1733706842147457800,9.337457763671875,-0.006941781961917877,-0.06861059488952159,0.01871259151548147
1733706842157478000,9.347477783203125,-0.016344403362704905,-0.061031099545955654,0.026060031668841837
1733706842167498800,9.357498779296876,-0.03536357432603836,-0.06985971816778183,0.02979951045811176
1733706842177518800,9.367518798828126,-0.038726917845872226,-0.0736164403527975,0.020920915214717388
1733706842187539000,9.3775390625,-0.02603109783530235,-0.08290449317991733,0.005472293931245803
1733706842197559800,9.387559814453125,-0.006297638839483261,-0.06428396386206149,-0.006020283202826976
1733706842207580000,9.397579833984375,0.005109889217995806,-0.037709260669350625,0.0005175941333174705
1733706842217599700,9.407599853515626,-0.012433949637413025,-0.06302139658033848,-0.00973404302895069
1733706842227619800,9.417619873046876,-0.02153027928471565,-0.07339782916605472,-0.04027852663546801
1733706842237641000,9.427640869140625,0.0037549686193466183,-0.09784896433353424,-0.03254413299113512
1733706842247660800,9.437660888671875,0.012629179948568343,-0.08859715186357497,-0.01497165142148733
1733706842257681000,9.447680908203125,-0.005459434449672698,-0.07937456548810004,0.013878595487773418
1733706842267701000,9.457700927734376,-0.025389292800426483,-0.07294950087666512,0.017287527148425578
1733706842277721900,9.467721923828124,-0.0507072739303112,-0.055041503742337225,0.009978665439784526
1733706842287742000,9.477741943359375,-0.08827332673668861,-0.039569209322333335,-0.007487433145940303
1733706842297761800,9.48776171875,-0.06147182905077934,-0.03232347597777843,-0.021048633247613906
1733706842307782000,9.497781982421875,-0.03102525286078453,-0.04643675700426102,-0.0038102059379220006
1733706842317803000,9.507802978515626,0.02088379579143366,-0.03992869028449058,0.01662964776158333
1733706842327822800,9.51782275390625,0.02762099737524986,-0.06144669460952282,0.024954700775444507
1733706842337843000,9.527843017578125,-0.003772504276037216,-0.09545008649826049,0.02543810037821531
1733706842347863000,9.537863037109375,0.004610706382559147,-0.08781330800950526,-0.021081074212491512
1733706842357884000,9.5478837890625,-0.022409402490092906,-0.07549334014058112,-0.0502495932906866
1733706842367904000,9.557904052734376,-0.06977203988432884,-0.07485328867137432,-0.03126081518232822
1733706842377923800,9.567923828125,-0.05230418773293495,-0.0640571693688631,-0.022956804956495762
1733706842387943700,9.577943603515624,-0.0033715222597122192,-0.06599018325805664,0.01134615440070629
1733706842397965000,9.587965087890625,0.02848375168442726,-0.06662088237702846,0.022166239100694655
1733706842407984600,9.597984619140625,0.022073884642124175,-0.06323240898251534,0.022890461722016333
1733706842418004700,9.608004638671876,0.018542203384637832,-0.050721302455663676,0.0247960030823946
1733706842428025600,9.618025634765624,-0.015923547602130564,-0.06306348215639591,-0.014641981075704098
1733706842438045700,9.628045654296875,-0.061574704903364176,-0.0716039314866066,-0.024252397724986077
1733706842448065800,9.638065673828125,-0.06368365988135337,-0.07597907783091068,-0.02256868242174387
1733706842458086000,9.6480859375,-0.004292733324435539,-0.052474283602833745,-0.0035252515166997907
1733706842468106800,9.658106689453126,0.04463642958402633,-0.05289572388529777,0.010030103366076945
1733706842478126800,9.668126953125,0.019963760620355604,-0.09881576353907584,0.0389715356901288
1733706842488146700,9.678146728515625,-0.008334115386439953,-0.08357435526549815,0.03456394838094711
1733706842498166800,9.688166748046875,-0.028154081338644027,-0.06956570365726947,-0.013952245245873927
1733706842508187600,9.698187744140625,-0.07696049008369445,-0.04699205279946327,-0.03631342239677906
1733706842518207700,9.708207763671876,-0.05872808330059051,-0.05562661015391349,-0.04589695103913545
1733706842528227800,9.718227783203124,0.01899929950237274,-0.06562251898944378,-0.019615677835047245
1733706842538248000,9.728248046875,0.04243979632258415,-0.08237900800108909,0.004780512274801731
1733706842548268800,9.738268798828125,0.01066050908245961,-0.06508300528526306,0.02822013231217861
1733706842558289000,9.748288818359375,-0.027276131743623408,-0.07291442956328392,0.04287088121622801
1733706842568308700,9.758308837890626,-0.06204466050267219,-0.0780997232466936,0.02370060906112194
1733706842578328600,9.76832861328125,-0.09574117839932442,-0.02779576942026615,0.0069952657148241995
1733706842588349700,9.778349609375,-0.10432195973992348,-0.01770750612616539,-0.02574965054541826
1733706842598369500,9.78836962890625,-0.049397944897413254,-0.05215338108539581,-0.039460195989906785
1733706842608389600,9.7983896484375,-0.02305003619790077,-0.08551496793925761,-0.01983107415139675
1733706842618410800,9.80841064453125,-0.0047989247143268585,-0.09638356795608997,-0.013365969790518283
1733706842628430600,9.8184306640625,0.03861117794513702,-0.09078151016533374,-0.0058227148041129105
1733706842638450700,9.82845068359375,0.03513327270150184,-0.07917348995804786,-0.017816519458591938
1733706842648470500,9.838470458984375,0.035199908196926116,-0.05681669672131538,0.0024289807125926015
1733706842658491600,9.84849169921875,-0.014477438163757324,-0.03612695991396904,0.026349370004236698
1733706842668511700,9.85851171875,-0.06118892045617103,-0.013936170893907546,0.0356231020450592
1733706842678531600,9.868531494140624,-0.0598223082780838,-0.02245090126097202,0.035224458116292955
1733706842688551700,9.8785517578125,-0.037387189108133316,-0.040572248885035515,0.04295768271684646
1733706842698572500,9.888572509765625,-0.007359130591154098,-0.04298690881133079,0.040946050633490085
1733706842708592600,9.898592529296875,-0.004063596177101135,-0.04992810625135898,0.04824439094811678
1733706842718612700,9.90861279296875,0.04414426215291023,-0.06555003827512264,0.054634384246170516
1733706842728632600,9.918632568359374,0.05592822344899177,-0.06787935800552368,0.06438771649748086
1733706842738653700,9.92865380859375,0.01743044503374258,-0.058066989043354986,0.012257424026727675
1733706842748673800,9.938673828125,-0.015123919373750686,-0.03898468743264675,0.000654079994559288
1733706842758693600,9.948693603515625,-0.07002922951579094,-0.03426525769531727,-0.00046411038041114806
1733706842768713700,9.958713623046876,-0.0701005411863327,-0.0683013828098774,0.00485328525006771
1733706842778734600,9.968734619140625,-0.08887421523928642,-0.07568330975472927,0.014871698178350925
1733706842788754700,9.978754638671875,-0.043345805251598354,-0.08819558532536029,-0.010116028083860874
1733706842798774800,9.98877490234375,0.0013210217539803123,-0.09385317269563674,0.0017655483677983283
1733706842808794600,9.998794677734375,-0.02330488774180412,-0.07707914802730083,0.010313304221630095
1733706842818815700,10.008815673828124,-0.054884267354011536,-0.053823944646120066,-0.012866203574836253
1733706842828835800,10.0188359375,-0.023403087419271468,-0.050396892806887625,-0.04762859713733196
1733706842838855700,10.028855712890625,-0.00040682495193323115,-0.04795008417665958,-0.04566664941459894
1733706842848876800,10.038876708984375,0.005427869125985307,-0.05030979904532432,-0.01682370902895927
1733706842858896600,10.048896728515626,-0.05348959812521934,-0.06615151129961014,-0.002242225968837738
1733706842868916700,10.058916748046874,-0.07266659228205681,-0.08719897550344467,0.0033119010269641873
1733706842878936800,10.068936767578125,-0.067115972417593,-0.08329320023655891,0.0056105333581566805
1733706842888957700,10.078957763671875,-0.043031332474946976,-0.08166530677378177,-0.002673310862481594
1733706842898977800,10.088977783203125,-0.01733691810645978,-0.07389058111906051,0.0007464344531297683
1733706842908998000,10.098997802734376,-0.02053308494091034,-0.07165770750045776,0.007894844903051852
1733706842919017700,10.109017822265624,0.0044166462568275165,-0.07348667649328708,0.010631868651509285
1733706842929038800,10.119038818359375,0.04991700033545494,-0.06339782867729664,0.013495441389083861
1733706842939058700,10.12905859375,0.015989012912131145,-0.06692366471588611,0.025043548102676866
1733706842949078800,10.139078857421875,-0.020447744745016098,-0.06974456735551357,0.01191343289464712
1733706842959099000,10.149098876953126,-0.04927870243191719,-0.057065118524432176,-0.010360065972805022
1733706842969119700,10.15911962890625,-0.06416296783089637,-0.024216741889715194,-0.0083481416285038
1733706842979139800,10.169139892578125,-0.05154197118878364,-0.016956980019807815,0.005335808070003986
1733706842989160000,10.179159912109375,-0.0452829107940197,-0.03305763547122478,0.0206131644397974
1733706842999179500,10.189179443359375,-0.026057985842227935,-0.05045066882073879,0.0038917467415332794
1733706843009201000,10.199200927734376,0.016060323441028593,-0.06531155334413051,0.01780512128174305
1733706843019220700,10.209220703125,0.006986205625534057,-0.08670856163799762,0.017359131079912184
1733706843029240600,10.219240478515625,-0.03321253377199173,-0.0664841042548418,0.01968202106952667
1733706843039260700,10.2292607421875,-0.04696282670497894,-0.05600654938220977,0.029421032534539697
1733706843049281800,10.23928173828125,-0.04390110104680061,-0.021014730978012083,0.018276245924830434
1733706843059301600,10.249301513671876,-0.018837971460819242,-0.03148117993474007,0.03521569028794765
1733706843069321700,10.25932177734375,-0.03591536298990249,-0.03996142351031303,0.03956248732060194
1733706843079341600,10.269341552734375,-0.006495206667375168,-0.06578618511855602,0.031386487388610836
1733706843089362700,10.27936279296875,0.04442249457240104,-0.0705751729607582,0.01357698219269514
1733706843099382500,10.289382568359375,0.03711947808265686,-0.07420680746138096,0.0035708442240953444
1733706843109402600,10.299402587890626,-0.04421791191101074,-0.06970481986701488,-0.022872926065325736
1733706843119423700,10.309423828125,-0.019772037440538404,-0.059034957292675966,0.016631109066307544
1733706843129443600,10.319443603515625,0.02124620164632797,-0.07172492751777172,0.05383446604013443
1733706843139463700,10.329463623046875,-0.00407645565867424,-0.06805588361620903,0.038489597392082214
1733706843149483800,10.33948388671875,-0.088901103246212,-0.07679857752025127,0.018681611855328083
1733706843159504600,10.349504638671876,-0.11515315035581589,-0.06777882024049758,-0.02565904965251684
1733706843169524700,10.359524658203124,-0.06255553263425827,-0.05413666385710239,-0.024115911863744257
1733706843179544600,10.369544677734375,-0.048964229655265805,-0.06833060890436173,-0.013306056296825408
1733706843189564700,10.379564697265625,-0.01377484285235405,-0.0558440522968769,-0.018808160844445226
1733706843199585800,10.389585693359376,0.009184007359933457,-0.06326981838345527,-0.01028086325675249
1733706843209605600,10.399605712890626,0.007134673614692292,-0.07231178749501704,-0.006146247670054435
1733706843219625700,10.409625732421874,-0.0421674091219902,-0.08275368653237819,-0.017711597779393195
1733706843229645800,10.419645751953125,-0.050641807478666305,-0.0633428836196661,-0.013922726890444754
1733706843239666700,10.429666748046875,-0.034763854867219925,-0.05453939943909645,-0.02250117014348507
1733706843249686800,10.439686767578126,-0.0576478868484497,-0.05712181714773178,-0.006281272226572036
1733706843259706600,10.44970654296875,-0.07103110003471375,-0.05342354715168476,0.004691372686624526
1733706843269726700,10.459726806640624,-0.05230886390805244,-0.04689093051254749,0.03014291706830263
1733706843279747800,10.469747802734375,0.00440846409201622,-0.06102583884894847,0.011699790143966673
1733706843289767700,10.479767578125,0.024548750323057172,-0.0753162300080061,0.0014668576821684836
1733706843299787800,10.489787841796876,0.025693244183063506,-0.08065057677328587,0.019144553191959856
1733706843309807900,10.499807861328126,0.02227496017217636,-0.08239245200455188,0.014377484920620917
1733706843319828700,10.509828857421875,0.00420154305765609,-0.07031564524173736,0.0009513093754649162
1733706843329848800,10.519848876953125,-0.015111059892177581,-0.05796411319077015,-0.02751549117416143
1733706843339868700,10.52986865234375,-0.027182605957984923,-0.024045476976037025,-0.012979016299545764
1733706843349888800,10.539888671875,-0.05646247645616531,-0.04562134896814823,-0.004655424590408802
1733706843359910000,10.549909912109374,-0.07192658756971358,-0.0428512997329235,-0.02625643102377653
1733706843369929700,10.5599296875,-0.04852408467233181,-0.05315642064809799,0.01690349626690149
1733706843379949800,10.56994970703125,-0.018433482313156127,-0.07921732909977436,0.018022271163761615
1733706843389970000,10.579969970703125,0.02162438730895519,-0.08508242174088955,0.016582593749463557
1733706843399990800,10.58999072265625,0.04207213205397129,-0.09844459213912486,0.024219664499163625
1733706843410011000,10.600010986328124,0.026142741516232488,-0.08827624934613704,-0.006926292131841183
1733706843420030700,10.61003076171875,0.003805237501859665,-0.07256488547325134,-0.015607611237466335
1733706843430050600,10.620050537109375,-0.04239712622463703,-0.048052375507354736,-0.036465105827152726
1733706843440072000,10.630072021484375,-0.06072714816331863,-0.01831657793521881,-0.03178016288131475
1733706843450091500,10.640091552734376,-0.06454290705919265,-0.03229541892707348,-0.009054828593134879
1733706843460111600,10.650111572265626,-0.06395838516950607,-0.0676519789904356,-0.0006292378142476082
1733706843470131700,10.660131591796874,-0.033439912787079806,-0.07174597030580043,0.01090221002548933
1733706843480152600,10.670152587890625,0.0012882862448692321,-0.07603694549798964,0.012852175049483775
1733706843490172700,10.680172607421875,0.03202127816081047,-0.08167056747078895,0.0025479309171438217
1733706843500192800,10.69019287109375,0.002749006447196007,-0.08100538156032562,-0.005617255359888077
1733706843510212900,10.700212890625,-0.004281622841954231,-0.07616787840127945,0.007858020024001598
1733706843520234000,10.71023388671875,-0.0007867664635181426,-0.050071314114332195,0.01972352212369442
1733706843530253800,10.72025390625,-0.014107435807585715,-0.03463584457337856,0.0238373871833086
1733706843540274000,10.73027392578125,-0.061031099545955654,-0.03963642933964729,0.032494448630511756
1733706843550294800,10.740294677734376,-0.06917875016629696,-0.037921442115306854,0.029274317540228367
1733706843560315000,10.75031494140625,-0.041937107497453684,-0.04011456824541092,0.07627601495087147
1733706843570335000,10.7603349609375,-0.04428162479698658,-0.055823594030737875,0.0521951744005084
1733706843580354800,10.770354736328125,-0.04050152173638344,-0.053879474225640295,0.01044248355925083
1733706843590376000,10.7803759765625,-0.0021808511704206465,-0.0550514406144619,-0.011174012704193591
1733706843600396000,10.79039599609375,0.00827624543607235,-0.053391398447751995,0.013259586806595326
1733706843610415900,10.800415771484374,-0.021281857481598852,-0.05114566534757614,0.03496230004876852
1733706843620436000,10.81043603515625,-0.03026362083852291,-0.06939619230926036,0.021062077251076696
1733706843630456800,10.820456787109375,-0.009696049106121063,-0.06460077472627163,-0.00689765055924654
1733706843640477000,10.830476806640625,-0.010841127488017082,-0.06510930877029895,-0.0037967619344592093
1733706843650497000,10.8404970703125,0.00722352151274681,-0.06243512112498283,-0.008794131830334662
1733706843660516900,10.850516845703124,-0.011948796468973158,-0.03859773394167423,0.015739713184535504
1733706843670538000,10.8605380859375,-0.033836803150177,-0.051500470134615894,0.04828296939283609
1733706843680557800,10.870557861328125,-0.03367605963051319,-0.07108136891722679,0.04042173449844122
1733706843690577700,10.88057763671875,-0.07280395492613315,-0.0647761312931776,0.027318799558281898
1733706843700597800,10.89059765625,-0.0683101506382227,-0.08389058160781859,0.003802314892411232
1733706843710618600,10.90061865234375,-0.04644143317937851,-0.0653951399743557,-0.05322013353407383
1733706843720638700,10.910638671875,-0.013235913670063017,-0.06188274793922901,-0.07020137121230363
1733706843730658800,10.920658935546875,0.0031990885876657556,-0.04982055422365665,-0.014243921668827533
1733706843740679000,10.930678955078125,-0.013438742765784262,-0.07073591648042202,0.026267244678735733
1733706843750699800,10.94069970703125,-0.027128245422244072,-0.07226619478762149,0.03827946177273989
1733706843760720000,10.950719970703124,-0.045110476836562156,-0.06621756227314472,0.014658932210505007
1733706843770739700,10.96073974609375,-0.09426409158408641,-0.09384148225784301,-0.030374972258508205
1733706843780759800,10.970759765625,-0.0781394707351923,-0.11963935585916041,-0.05585661951750517
1733706843790780700,10.98078076171875,-0.0231359609156847,-0.0993453403711319,-0.038082477895915505
1733706843800800800,10.99080078125,0.014851532173156738,-0.07324994512796401,-0.05079524447470903
1733706843810820900,11.00082080078125,0.02050385884642601,-0.06417699635624885,-0.04917494979649782
1733706843820841000,11.010841064453125,-0.02233107427358627,-0.06453939992785454,-0.04054945253133774
1733706843830861800,11.02086181640625,-0.02539630706310272,-0.07012859823703765,-0.0021127543702721594
1733706843840882000,11.0308818359375,-0.07508534386157989,-0.07088263147473335,0.002508475689589977
1733706843850901800,11.04090185546875,-0.09917115284800529,-0.056447863408923146,-0.0224082311630249
1733706843860921900,11.050921875,-0.08470423607826233,-0.04482113850116729,-0.028504502211511133
1733706843870942700,11.060942626953125,-0.07278232761621475,-0.03683130879104137,0.01223638123869896
1733706843880962800,11.070962890625,-0.05059738381505012,-0.03509352521300316,0.03512596617788076
1733706843890983000,11.08098291015625,0.00630114597082138,-0.05102642288208008,0.043158465985953805
1733706843901003000,11.0910029296875,0.066793316334486,-0.05349310525655746,0.06166150640398264
1733706843911023900,11.10102392578125,0.04976970081925392,-0.05162380425333976,0.04454086025506258
1733706843921044000,11.1110439453125,-0.009613046997785568,-0.04986263979971409,0.018872750513255595
1733706843931063800,11.121063720703125,-0.032602292919158934,-0.06368307535946369,0.001972176855802536
1733706843941084000,11.131083984375,-0.041107086414098735,-0.057497080200910565,0.037300387607514855
1733706843951104800,11.141104736328124,-0.04439093039035797,-0.048369770893454546,0.03864420343190431
1733706843961124900,11.151124755859374,-0.0004489128112792969,-0.059769701308012006,0.02883271125257015
1733706843971145000,11.16114501953125,-0.015528408521413802,-0.05413023411631584,0.008927110560238361
1733706843981165000,11.1711650390625,-0.02191723277568817,-0.04060848924219608,0.027479250817000863
1733706843991186000,11.18118603515625,-0.01317395434975624,-0.04998305130898952,-0.0011140987217426299
1733706844001206000,11.1912060546875,-0.012488894695043563,-0.0557090277403593,0.0029477438896894454
1733706844011225900,11.201225830078124,-0.01787818651795387,-0.05757248352468013,0.014847732780873774
1733706844021247000,11.2112470703125,-0.03818213887810707,-0.07114917345643043,0.029759178447723387
1733706844031266800,11.221266845703125,-0.026755904978513715,-0.08846621896028518,0.0003805237501859665
1733706844041287000,11.231286865234376,0.02225976260304451,-0.079529463788867,-0.021598960606753825
1733706844051306800,11.241306640625,0.011983867782354354,-0.06995616427958011,-0.022207740154862404
1733706844061328000,11.251327880859375,-0.03221650847196579,-0.0442196654766798,-0.021916063731908797
1733706844071348000,11.261347900390625,-0.0743090987920761,-0.05883797341585159,-0.043462709629535676
1733706844081367800,11.271367919921875,-0.04417933346629142,-0.0671767626941204,-0.03644757017046213
1733706844091387600,11.2813876953125,0.004166472029685974,-0.05084639014005661,-0.011994389176368712
1733706844101409000,11.291408935546874,0.02321954754590988,-0.07132745263278484,0.01201017126739025
1733706844111428900,11.301428955078125,-0.007476034969091415,-0.08254618126153945,0.010076865117251872
1733706844121448700,11.31144873046875,-0.001813186901807785,-0.0771679953545332,-0.009105974258482455
1733706844131468800,11.32146875,0.011898527586460112,-0.0682137045264244,-0.0061892100289464
1733706844141489700,11.33148974609375,0.002915595185756683,-0.039700142225623125,-0.011640753433108329
1733706844151509800,11.341509765625,-0.03357844447493553,-0.053826282733678815,-0.006749766521155834
1733706844161529900,11.35152978515625,-0.07268997315764426,-0.0719739338427782,-0.0176569449827075
1733706844171549700,11.3615498046875,-0.04851180971264839,-0.07827449529170989,-0.024740473502874373
1733706844181570800,11.37157080078125,-0.06062193422317504,-0.0755465316325426,-0.01625000079423189
1733706844191591000,11.3815908203125,-0.03864157308340072,-0.08373743687272071,0.010362988582253456
1733706844201610800,11.39161083984375,0.01127425820827484,-0.06771043117940426,0.006971300317347049
1733706844211630800,11.401630859375,0.05196750312447548,-0.04829436756968498,0.004607201534509659
1733706844221651700,11.411651611328125,-0.00158639240860939,-0.05356032527387142,0.00017740239351987837
1733706844231671800,11.421671875,-0.03135258511900901,-0.06198796187937259,0.0027156886994838714
1733706844241692000,11.43169189453125,-0.044728784042596816,-0.06384206531345844,0.0022311200529336927
1733706844251711700,11.441711669921874,-0.010669862574338912,-0.08675006269216537,-0.00783960758447647
1733706844261732900,11.45173291015625,-0.011121113473176956,-0.07899930243492126,-0.004645779979228973
1733706844271753000,11.4617529296875,-0.009649287354946136,-0.060012862414121626,0.01759410887956619
1733706844281772800,11.471772705078125,0.0019265841484069823,-0.04846855509281158,0.017964403496682643
1733706844291793000,11.48179296875,-0.013516484177112579,-0.05147241308391094,0.04665975210517644
1733706844301813800,11.491813720703124,-0.009438858903836807,-0.04261456836760044,0.05019610953778028
1733706844311833900,11.501833740234375,0.00015197569131851195,-0.03983516678214073,0.04702858541756868
1733706844321854000,11.51185400390625,-0.02361000816822052,-0.04149930060207844,0.035782384259998794
1733706844331873800,11.521873779296875,-0.010459434694051742,-0.04183072451353073,0.03197042475640774
1733706844341895000,11.53189501953125,-0.0339022696018219,-0.05071019653975963,0.028695640869438648
1733706844351915000,11.5419150390625,-0.04435819716453552,-0.04866203183829784,0.011667349179089069
1733706844361934800,11.551934814453125,-0.008917465949058533,-0.0753852035909891,0.013666121780872344
1733706844371955000,11.561954833984375,0.02312836213111877,-0.0754074154227972,0.037682664923369885
1733706844381975800,11.571975830078125,-0.01838321343064308,-0.06860007349550723,0.04177957884818315
1733706844391996000,11.581995849609376,-0.01992868930697441,-0.06859422827661037,0.03712707686722278
1733706844402016000,11.59201611328125,-0.05042670342326164,-0.07454933728873729,0.006367781466245651
1733706844412035800,11.602035888671875,-0.05490180301070213,-0.06510112546384335,0.01163812308460474
1733706844422057000,11.612056884765625,-0.04451835616230965,-0.0336626156270504,-0.027396833230555057
1733706844432077000,11.6220771484375,-0.010547112977504729,-0.009505494970083236,-0.04368219759911299
1733706844442097000,11.632096923828126,-0.032577742999792096,-0.02809387558400631,0.004395604610443115
1733706844452116700,11.64211669921875,-0.03409983800053596,-0.03744096512198448,0.0335012875854969
1733706844462137900,11.652137939453125,-0.07801262948513031,-0.06303425606191158,0.023157588225603102
1733706844472158000,11.662157958984375,-0.04728314470052719,-0.08530103292763233,0.01621814435124397
1733706844482177800,11.672177734375,0.01559036784172058,-0.07112754614651202,-0.00019610709398984908
1733706844492197600,11.68219775390625,0.02094692643880844,-0.05411386750340461,0.022137889789044855
1733706844502219300,11.69221923828125,-0.005074819046258926,-0.05845452705621719,0.040271804633736606
1733706844512239000,11.702239013671875,-0.05850947211384773,-0.060686816152930256,0.018496610677242276
1733706844522259000,11.712259033203125,-0.020074819779396055,-0.04095920237600803,0.00243862532377243
1733706844532279000,11.722279052734375,0.0031365441746471334,-0.03440145129561424,0.02617839735150337
1733706844542300000,11.7322998046875,0.00531213493347168,-0.06394494116604328,0.030042087042331692
1733706844552320000,11.742320068359374,0.018946692532300947,-0.04573416169285774,0.04399520907104015
1733706844562340000,11.752340087890625,-0.016805004328489304,-0.0643318946570158,0.027430443239212034
1733706844572360000,11.76235986328125,-0.043268648362159726,-0.06444178477227687,0.0015206336960196494
1733706844582381000,11.772381103515626,-0.021718495333194733,-0.05937047285735607,-0.012296586993336677
1733706844592401200,11.782401123046874,-0.030189386558532712,-0.06875146466493606,0.00012158055305480956
1733706844602421000,11.7924208984375,-0.01826514000892639,-0.07652560579776764,-0.004048983129858971
1733706844612441000,11.802441162109375,0.005751695394515991,-0.07769991027414798,-0.018040099081397056
1733706844622462000,11.8124619140625,0.008590133690834044,-0.0745621967703104,-0.015511165125668048
1733706844632482000,11.82248193359375,0.03867430630922317,-0.07182838789224624,-0.02899696190357208
1733706844642502100,11.832502197265624,-0.006822539496421813,-0.08283785768449306,-0.024904139631986618
1733706844652522000,11.84252197265625,-0.05745148749351501,-0.07680676082670689,-0.03194032187908888
1733706844662543000,11.852543212890625,-0.061035775721073146,-0.0726888041138649,-0.03962123177051544
1733706844672563200,11.862563232421875,-0.060035074245929715,-0.07103577620983123,0.009483283138275145
1733706844682583000,11.8725830078125,-0.06023147360086441,-0.07224632104337216,0.010335516053438186
1733706844692603100,11.88260302734375,-0.004459902018308639,-0.08361118014454841,-0.003855214123427868
1733706844702624000,11.8926240234375,0.02802840913236141,-0.08104045287370681,-0.0164870244204998
1733706844712644000,11.90264404296875,0.026923662760853766,-0.0902384893298149,-0.0289525382399559
1733706844722664200,11.912664306640625,0.01731003124117851,-0.061222238203883166,-0.025522856052219867
1733706844732684000,11.92268408203125,0.004607201534509659,-0.05602116242945194,0.006266951440274715
1733706844742705200,11.932705078125,-0.027408231407403946,-0.042431028494238854,0.012643208473920822
1733706844752725200,11.942725341796875,-0.052715691143274304,-0.04966507140100002,-0.0012584756284952164
1733706844762745000,11.9527451171875,-0.0868313112348318,-0.06839256822466849,0.01336567752957344
1733706844772765200,11.96276513671875,-0.03941255745589733,-0.08833236344754695,0.015816577813029288
1733706844782786000,11.9727861328125,-0.015123919373750686,-0.07069616899192332,0.016379764653742312
1733706844792806100,11.98280615234375,-0.01927870096564293,-0.030368834778666493,0.0537269140124321
1733706844802826200,11.992826171875,-0.0026338556349277493,-0.03239244956076145,0.04827040217220783
1733706844812846000,12.00284619140625,0.007867080113291739,-0.06540975302159786,0.0360173620596528
1733706844822867200,12.0128671875,-0.005614332750439643,-0.053770753154158586,0.022473405353724954
1733706844832887300,12.02288720703125,-0.031602760487794875,-0.04123042053282261,0.012684417267143725
1733706844842907100,12.0329072265625,-0.028613515543937682,-0.06898468889892101,-0.00876373669207096
1733706844852927200,12.04292724609375,-0.017316460981965064,-0.09640051909089088,-0.03188391551673412
1733706844862948000,12.052947998046875,0.0021153841479535913,-0.09529577271938323,-0.009972235698997974
1733706844872968200,12.06296826171875,0.00031447220582922453,-0.06089432142376899,0.031158231590688226
1733706844882988000,12.072988037109376,0.009514262798428534,-0.03894084829092025,0.01982990510761738
1733706844893008000,12.0830078125,-0.005808978539705276,-0.04365618637502193,0.003304302242398262
