time,seconds_elapsed,z,y,x
1733706832878697000,0.068697021484375,0.16831602156162262,0.2466883659362793,-0.06376489251852036
1733706832888717000,0.078717041015625,0.11106552183628082,0.2131301462650299,-0.04922270402312279
1733706832898738000,0.088738037109375,0.021895024925470352,0.12403759360313416,-0.05557001382112503
1733706832908758000,0.098758056640625,0.015643253922462463,0.08804204314947128,-0.0621299110352993
1733706832918777900,0.10877783203125,0.02910373918712139,0.12994655966758728,-0.05753559246659279
1733706832928798000,0.1187978515625,0.04644704610109329,0.18132692575454712,-0.05527510121464729
1733706832938818800,0.12881884765625,0.12601912021636963,0.2719074785709381,-0.04598800837993622
1733706832948839000,0.1388388671875,0.2882746160030365,0.36272287368774414,-0.02787078730762005
1733706832958858800,0.148858642578125,0.36252361536026,0.3708955943584442,-0.010678388178348541
1733706832968879900,0.1588798828125,0.36286449432373047,0.3231586813926697,-0.016737081110477448
1733706832978900000,0.16889990234375,0.33245500922203064,0.22197216749191284,-0.028351562097668648
1733706832988919800,0.178919921875,0.29755935072898865,0.24228915572166443,-0.06280168145895004
1733706832998941000,0.18894091796875,0.2747949957847595,0.32097190618515015,-0.09239450842142105
1733706833008960800,0.198960693359375,0.29711443185806274,0.3559807538986206,-0.09909501671791077
1733706833018980900,0.20898095703125,0.35027840733528137,0.3190278112888336,-0.09359457343816757
1733706833029000700,0.219000732421875,0.3984195590019226,0.3437376618385315,-0.0899745374917984
1733706833039021800,0.229021728515625,0.41448748111724854,0.39795005321502686,-0.1076752319931984
1733706833049041700,0.239041748046875,0.3901376724243164,0.36334919929504395,-0.1268843561410904
1733706833059061800,0.249061767578125,0.331928551197052,0.25218361616134644,-0.1339215636253357
1733706833069082600,0.25908251953125,0.2749371826648712,0.09135264903306961,-0.09488175064325333
1733706833079102700,0.269102783203125,0.24672210216522217,-0.10455776751041412,-0.02944125235080719
1733706833089122800,0.279122802734375,0.2530740201473236,-0.21609707176685333,0.06220930442214012
1733706833099143700,0.289143798828125,0.26973623037338257,-0.22219283878803253,0.16548354923725128
1733706833109163800,0.299163818359375,0.27743783593177795,-0.15560077130794525,0.22677594423294067
1733706833119184000,0.309183837890625,0.2930004894733429,-0.14164789021015167,0.26083022356033325
1733706833129203700,0.31920361328125,0.23740273714065552,-0.08714044094085693,0.2212093025445938
1733706833139224800,0.329224853515625,0.313269704580307,0.058948319405317307,0.16253788769245148
1733706833149244700,0.33924462890625,0.41336435079574585,-0.01758214272558689,0.15597613155841827
1733706833159264800,0.3492646484375,0.4847886562347412,-0.29849982261657715,0.20284834504127502
1733706833169286000,0.359285888671875,0.5186800956726074,-0.5404050946235657,0.20884497463703156
1733706833179305700,0.3693056640625,0.5708316564559937,-0.7489013075828552,0.11190686374902725
1733706833189325800,0.379325927734375,0.5994225740432739,-0.9973814487457275,-0.06974415481090546
1733706833199346700,0.3893466796875,0.6229596138000488,-1.1161131858825684,-0.22872625291347504
1733706833209366800,0.39936669921875,0.6808972358703613,-1.0525912046432495,-0.2620849907398224
1733706833219387000,0.409386962890625,0.7444098591804504,-0.9266737699508667,-0.20210741460323334
1733706833229407700,0.41940771484375,0.7629547715187073,-0.7624012231826782,-0.13544929027557373
1733706833239427800,0.429427734375,0.7833285927772522,-0.5974811911582947,-0.09720420092344284
1733706833249448000,0.439447998046875,0.8189976215362549,-0.47689515352249146,-0.11726712435483932
1733706833259467800,0.4494677734375,0.8111836314201355,-0.3519001603126526,-0.1358787715435028
1733706833269489000,0.459489013671875,0.9913007020950317,-0.1464916169643402,-0.0913643017411232
1733706833279508700,0.4695087890625,1.025688886642456,0.06465606391429901,-0.07499215751886368
1733706833289528800,0.47952880859375,1.0823678970336914,0.16832973062992096,-0.07638205587863922
1733706833299549700,0.4895498046875,1.4110196828842163,0.028841814026236534,-0.07628427445888519
1733706833309569800,0.49956982421875,1.814056396484375,-0.15471602976322174,-0.07590903341770172
1733706833319590000,0.50958984375,2.16321063041687,-0.26268404722213745,-0.09142225980758667
1733706833329610800,0.51961083984375,2.320038080215454,-0.23563165962696075,-0.11511000990867615
1733706833339630800,0.529630859375,2.3202219009399414,-0.11835561692714691,-0.17136360704898834
1733706833349651000,0.53965087890625,2.195138692855835,0.03316652774810791,-0.24508149921894073
1733706833359670800,0.5496708984375,1.9864847660064697,0.15537075698375702,-0.3091980814933777
1733706833369692000,0.55969189453125,1.6712192296981812,0.157631516456604,-0.31762033700942993
1733706833379711700,0.569711669921875,1.3440948724746704,0.07136938720941544,-0.280227929353714
1733706833389731800,0.57973193359375,1.0348185300827026,-0.033047039061784744,-0.24754057824611664
1733706833399753000,0.5897529296875,0.77755206823349,-0.09173090010881424,-0.24021480977535248
1733706833409772800,0.599772705078125,0.5867096781730652,-0.10404748469591141,-0.23641341924667358
1733706833419793000,0.60979296875,0.46372154355049133,-0.07089781016111374,-0.21726973354816437
1733706833429813800,0.619813720703125,0.3938031792640686,-0.028586573898792267,-0.17877347767353058
1733706833439833900,0.629833740234375,0.37559881806373596,-0.0381624698638916,-0.1384231150150299
1733706833449854000,0.63985400390625,0.4151986837387085,-0.09834431111812592,-0.13339506089687347
1733706833459874800,0.649874755859375,0.49106326699256897,-0.17187605798244476,-0.17285454273223877
1733706833469895000,0.65989501953125,0.5614466071128845,-0.21935755014419556,-0.2340068519115448
1733706833479915000,0.6699150390625,0.6143195629119873,-0.13590764999389648,-0.3316372334957123
1733706833489934800,0.679934814453125,0.5841643214225769,-0.10278592258691788,-0.3617839515209198
1733706833499956000,0.6899560546875,0.42552998661994934,-0.15127971768379211,-0.3019481599330902
1733706833509975800,0.699975830078125,0.15056952834129333,-0.23005282878875732,-0.2372559905052185
1733706833519996000,0.709995849609375,-0.2160782516002655,-0.17089655995368958,-0.15321941673755646
1733706833530017000,0.72001708984375,-0.1617119461297989,0.02100231498479843,-0.0925494059920311
1733706833540036900,0.730036865234375,0.10281261056661606,0.15044070780277252,-0.03588477149605751
1733706833550057000,0.740056884765625,0.18485181033611298,0.20175635814666748,-0.014599723741412163
1733706833560077800,0.750077880859375,0.10587219148874283,0.1756265014410019,-0.09946035593748093
1733706833570098000,0.760097900390625,0.09340087324380875,0.09028870612382889,-0.19426383078098297
1733706833580118000,0.770117919921875,0.1272495537996292,0.03773143142461777,-0.21073676645755768
1733706833590139000,0.780138916015625,0.14513321220874786,0.05363316461443901,-0.18262018263339996
1733706833600159000,0.790158935546875,0.14724981784820557,0.09490980952978134,-0.15117792785167694
1733706833610179000,0.800178955078125,0.13559742271900177,0.1070394441485405,-0.14810383319854736
1733706833620199000,0.810198974609375,0.12969474494457245,0.08050055056810379,-0.17156946659088135
1733706833630220000,0.820219970703125,0.13593293726444244,0.04179469868540764,-0.20937170088291168
1733706833640239900,0.830239990234375,0.14246279001235962,0.043376319110393524,-0.24667328596115112
1733706833650260000,0.840260009765625,0.14303110539913177,0.07143271714448929,-0.26076409220695496
1733706833660280800,0.85028076171875,0.15112590789794922,0.12894418835639954,-0.26128917932510376
1733706833670301000,0.860301025390625,0.15007954835891724,0.18660882115364075,-0.2686253786087036
1733706833680321000,0.870321044921875,0.1516963094472885,0.2137720286846161,-0.29161855578422546
1733706833690342000,0.880341796875,0.14422747492790222,0.23292547464370728,-0.31103938817977905
1733706833700362000,0.890362060546875,0.13544782996177673,0.2343020737171173,-0.3352392613887787
1733706833710382000,0.900382080078125,0.13384194672107697,0.2173939347267151,-0.3575024902820587
1733706833720402000,0.91040185546875,0.12080543488264084,0.24809511005878448,-0.3583976924419403
1733706833730423000,0.920423095703125,0.11897051334381104,0.26553401350975037,-0.3574424386024475
1733706833740443000,0.93044287109375,0.13062861561775208,0.22977092862129211,-0.3710518777370453
1733706833750462700,0.940462646484375,0.1297023743391037,0.2842347323894501,-0.3547123372554779
1733706833760484000,0.950484130859375,0.12837694585323334,0.3299007713794708,-0.34155112504959106
1733706833770504000,0.96050390625,0.13501115143299103,0.31352606415748596,-0.35267409682273865
1733706833780523800,0.970523681640625,0.14545206725597382,0.3047237694263458,-0.37488406896591187
1733706833790545000,0.980544921875,0.1286190301179886,0.36057907342910767,-0.37885162234306335
1733706833800564700,0.990564697265625,0.11363763362169266,0.4110983908176422,-0.3756563365459442
1733706833810584800,1.000584716796875,0.10288219153881073,0.39475351572036743,-0.3818841576576233
1733706833820605000,1.01060498046875,0.0997106060385704,0.39646002650260925,-0.3762383759021759
1733706833830625800,1.020625732421875,0.07294077426195145,0.45153340697288513,-0.3292101323604584
1733706833840646000,1.03064599609375,0.052419908344745636,0.4755392372608185,-0.29305315017700195
1733706833850665700,1.040665771484375,0.03242010623216629,0.4539194107055664,-0.2704184055328369
1733706833860686800,1.050686767578125,0.013612568378448486,0.42734041810035706,-0.2546156048774719
1733706833870706700,1.060706787109375,0.0019362042658030987,0.41307252645492554,-0.23226581513881683
1733706833880726800,1.070726806640625,-0.00811679195612669,0.4168713688850403,-0.2140582650899887
1733706833890748000,1.080747802734375,-0.02409788779914379,0.43282875418663025,-0.20287245512008667
1733706833900767700,1.090767822265625,-0.032361507415771484,0.4621267318725586,-0.20229662954807281
1733706833910787800,1.100787841796875,-0.03860156238079071,0.4931056797504425,-0.20311689376831055
1733706833920808000,1.110807861328125,-0.044409237802028656,0.5242334604263306,-0.21567241847515106
1733706833930828800,1.120828857421875,-0.04634775221347809,0.5380478501319885,-0.22976693511009216
1733706833940849000,1.130848876953125,-0.046629004180431366,0.5909867286682129,-0.23928946256637573
1733706833950868700,1.14086865234375,-0.05216731131076813,0.6367257237434387,-0.25112321972846985
1733706833960889900,1.150889892578125,-0.04883679002523422,0.6623634099960327,-0.2750829756259918
1733706833970910000,1.160909912109375,-0.04291392117738724,0.6744581460952759,-0.3008253574371338
1733706833980929800,1.1709296875,-0.039957206696271896,0.6862331032752991,-0.32055556774139404
1733706833990951000,1.180950927734375,-0.03869619965553284,0.6933674216270447,-0.33290812373161316
1733706834000970800,1.190970703125,-0.029641427099704742,0.6843653321266174,-0.3388092815876007
1733706834010990800,1.200990966796875,-0.012337006628513336,0.6697281002998352,-0.3395397961139679
1733706834021011000,1.211010986328125,0.005655043758451939,0.640764594078064,-0.328214168548584
1733706834031031800,1.22103173828125,0.020225996151566505,0.6075877547264099,-0.29922354221343994
1733706834041052000,1.231052001953125,0.02939312905073166,0.5564097762107849,-0.27012744545936584
1733706834051072000,1.241072021484375,0.043029047548770905,0.5271781086921692,-0.2513923645019531
1733706834061092900,1.2510927734375,0.058670543134212494,0.5449667572975159,-0.2512437403202057
1733706834071113000,1.261113037109375,0.057343222200870514,0.5675485134124756,-0.2623789310455322
1733706834081132800,1.2711328125,0.04902718961238861,0.5686994194984436,-0.2713870406150818
1733706834091153000,1.28115283203125,0.0401572622358799,0.5607938170433044,-0.2678802013397217
1733706834101173800,1.291173828125,0.029603932052850723,0.5467050075531006,-0.24845097959041595
1733706834111193900,1.30119384765625,0.020543858408927917,0.5307071208953857,-0.2186318188905716
1733706834121214000,1.3112138671875,0.01592002622783184,0.5137152671813965,-0.19113174080848694
1733706834131234800,1.32123486328125,0.00966053269803524,0.48258957266807556,-0.17162860929965973
1733706834141255000,1.3312548828125,0.010612397454679012,0.43910184502601624,-0.1465858668088913
1733706834151275000,1.34127490234375,0.010078167542815208,0.3930363357067108,-0.11681599169969559
1733706834161296000,1.3512958984375,0.007175055332481861,0.3629831075668335,-0.08771616220474243
1733706834171316000,1.36131591796875,0.004124138504266739,0.35162976384162903,-0.06134926527738571
1733706834181335800,1.371335693359375,-0.004158292431384325,0.35278958082199097,-0.06674669682979584
1733706834191356000,1.38135595703125,-0.0003664837568067014,0.36114445328712463,-0.0799008458852768
1733706834201377000,1.391376953125,0.008114229887723923,0.3569944202899933,-0.0881953313946724
1733706834211396900,1.40139697265625,0.01934371516108513,0.3305619955062866,-0.09496428817510605
1733706834221417000,1.4114169921875,0.020757999271154404,0.28916531801223755,-0.09255420416593552
1733706834231437800,1.421437744140625,0.021254412829875946,0.2574273645877838,-0.09915032237768173
1733706834241458000,1.4314580078125,0.018014436587691307,0.24694815278053284,-0.11270302534103394
1733706834251478000,1.44147802734375,0.018783025443553925,0.24301865696907043,-0.11827568709850311
1733706834261497900,1.451497802734375,0.031129751354455948,0.23508983850479126,-0.11853297799825668
1733706834271519000,1.46151904296875,0.04437018930912018,0.21859821677207947,-0.11925975233316422
1733706834281539000,1.4715390625,0.04618481919169426,0.22469256818294525,-0.10787657648324966
1733706834291559000,1.481558837890625,0.047126781195402145,0.22430188953876495,-0.09291147440671921
1733706834301580000,1.491580078125,0.04607681557536125,0.2120836079120636,-0.07540538161993027
1733706834311599900,1.501599853515625,0.03535280004143715,0.18516996502876282,-0.05676458403468132
1733706834321620000,1.511619873046875,0.024730470031499863,0.15402193367481232,-0.04547062888741493
1733706834331640800,1.521640869140625,0.012349167838692665,0.13086441159248352,-0.04099065810441971
1733706834341661000,1.531660888671875,0.008209378458559513,0.10890872031450272,-0.03807348012924194
1733706834351681000,1.541680908203125,0.005218648351728916,0.07399893552064896,-0.024342752993106842
1733706834361700900,1.551700927734375,0.0038025486283004284,0.028330529108643532,0.00548469927161932
1733706834371722000,1.561721923828125,0.0035514128394424915,0.0011255391873419285,0.03242150694131851
1733706834381742000,1.5717421875,0.001027681166306138,0.00942370668053627,0.04442936182022095
1733706834391761700,1.58176171875,0.006562262307852507,0.027989134192466736,0.0345037616789341
1733706834401783000,1.591782958984375,0.016306698322296143,0.04916691035032272,0.014697734266519547
1733706834411803000,1.601802978515625,0.028958844020962715,0.06560873240232468,-0.008082413114607334
1733706834421822700,1.61182275390625,0.035215914249420166,0.055464908480644226,-0.014618194662034512
1733706834431842800,1.6218427734375,0.04311724752187729,0.06325332820415497,-0.018140491098165512
1733706834441863700,1.63186376953125,0.047066450119018555,0.07720255851745605,-0.02203643135726452
1733706834451883800,1.6418837890625,0.046528760343790054,0.09050584584474564,-0.029478901997208595
1733706834461904000,1.65190380859375,0.039243776351213455,0.080880306661129,-0.04726354032754898
1733706834471924700,1.6619248046875,0.03564264997839928,0.06735837459564209,-0.06550672650337219
1733706834481944800,1.67194482421875,0.034394521266222,0.06093696132302284,-0.07722894102334976
1733706834491965200,1.681965087890625,0.032911673188209534,0.05478079617023468,-0.07038488984107971
1733706834501986300,1.691986328125,0.035280000418424606,0.03596924617886543,-0.0638408213853836
1733706834512006400,1.70200634765625,0.036827560514211655,0.016789691522717476,-0.056980784982442856
1733706834522026200,1.712026123046875,0.038770850747823715,0.0012563529890030622,-0.0478539876639843
1733706834532046300,1.72204638671875,0.03803182393312454,-0.0025959094054996967,-0.04302540794014931
1733706834542067200,1.732067138671875,0.03175443410873413,-0.006107049994170666,-0.033809781074523926
1733706834552087300,1.74208740234375,0.03306683897972107,-0.015273118391633034,-0.020405294373631477
1733706834562107400,1.752107421875,0.03084699809551239,-0.024459751322865486,-0.006396484095603228
1733706834572128300,1.762128173828125,0.032978858798742294,-0.04756613448262215,0.0032079401426017284
1733706834582148400,1.7721484375,0.03387767821550369,-0.06446163356304169,0.014065378345549107
1733706834592168400,1.78216845703125,0.0319942906498909,-0.08067788183689117,0.0324595682322979
1733706834602188300,1.792188232421875,0.025356721132993698,-0.0891990065574646,0.048028357326984406
1733706834612209400,1.80220947265625,0.015954166650772095,-0.09210185706615448,0.050068870186805725
1733706834622229200,1.812229248046875,0.011400693096220493,-0.08104360848665237,0.029188890010118484
1733706834632249300,1.822249267578125,0.013476604595780373,-0.0708327665925026,0.01748444326221943
1733706834642270200,1.832270263671875,0.020765725523233414,-0.07179919630289078,0.014857475645840168
1733706834652290300,1.842290283203125,0.027141334488987923,-0.08634058386087418,0.01664792001247406
1733706834662310400,1.852310302734375,0.033763669431209564,-0.10383918136358261,0.021354330703616142
1733706834672330500,1.86233056640625,0.038223929703235626,-0.11012531071901321,0.02134847082197666
1733706834682351400,1.872351318359375,0.03753867372870445,-0.11696994304656982,0.015406038612127304
1733706834692371500,1.882371337890625,0.03477431461215019,-0.11020871251821518,0.01194978877902031
1733706834702391300,1.892391357421875,0.03143446519970894,-0.10743077844381332,0.008640133775770664
1733706834712412400,1.902412353515625,0.035454507917165756,-0.1040797233581543,0.011730466037988663
1733706834722432300,1.912432373046875,0.031604234129190445,-0.10776516795158386,0.024122226983308792
1733706834732452400,1.922452392578125,0.030412737280130386,-0.11634081602096558,0.040562719106674194
1733706834742473500,1.932473388671875,0.02566458284854889,-0.13480696082115173,0.0520302914083004
1733706834752493300,1.942493408203125,0.017682023346424103,-0.14617040753364563,0.07229161262512207
1733706834762513400,1.952513427734375,0.012445159256458282,-0.1598503142595291,0.0903615802526474
1733706834772533500,1.962533447265625,0.004417593125253916,-0.17981337010860443,0.0954868346452713
1733706834782554400,1.972554443359375,0.002557523548603058,-0.17389868199825287,0.08944325149059296
1733706834792574500,1.982574462890625,0.0015138308517634869,-0.1484910547733307,0.08626636117696762
1733706834802594300,1.99259423828125,0.0028164328541606665,-0.129255011677742,0.08394059538841248
1733706834812615400,2.002615478515625,-0.0023980364203453064,-0.1306489109992981,0.07381685823202133
1733706834822635500,2.012635498046875,-0.0061617884784936905,-0.12252847105264664,0.06506752222776413
1733706834832655400,2.0226552734375,-0.004962300881743431,-0.11110590398311615,0.06461984664201736
1733706834842675500,2.032675537109375,-0.004871873185038567,-0.10357765853404999,0.06336142867803574
1733706834852696300,2.0426962890625,-0.003871590131893754,-0.10137069970369339,0.06475799530744553
1733706834862716400,2.05271630859375,-0.004074815660715103,-0.1039058044552803,0.0630023255944252
1733706834872736500,2.062736572265625,-0.003377866232767701,-0.09987910836935043,0.06716564297676086
1733706834882757400,2.07275732421875,-0.007289491128176451,-0.1032322496175766,0.06843182444572449
1733706834892777500,2.082777587890625,-0.011212860234081745,-0.10305381566286087,0.0732249841094017
1733706834902797600,2.092797607421875,-0.014090841636061668,-0.09770698845386505,0.0740976557135582
1733706834912818400,2.102818359375,-0.010652700439095497,-0.09739752858877182,0.07281854003667831
1733706834922838500,2.112838623046875,-0.009146079421043396,-0.09355171024799347,0.07335206866264343
1733706834932858400,2.1228583984375,-0.008439010009169579,-0.09101345390081406,0.07230118662118912
1733706834942878500,2.13287841796875,-0.010512691922485828,-0.09356232732534409,0.0778249204158783
1733706834952899600,2.142899658203125,-0.01055157370865345,-0.09355752915143967,0.07718496024608612
1733706834962919400,2.15291943359375,-0.0056466106325387955,-0.09715569019317627,0.07069246470928192
1733706834972939500,2.162939453125,-0.003961894661188126,-0.09091803431510925,0.06129523366689682
1733706834982960400,2.17296044921875,0.0015696841292083263,-0.08101322501897812,0.0584878996014595
1733706834992980500,2.18298046875,0.008095493540167809,-0.0757012814283371,0.06524726748466492
1733706835003000600,2.19300048828125,0.014798017218708992,-0.08543484658002853,0.06611804664134979
1733706835013020200,2.203020263671875,0.014497613534331322,-0.08992653340101242,0.06863740086555481
1733706835023041500,2.21304150390625,0.016808269545435905,-0.0866207480430603,0.06972870975732803
1733706835033061400,2.223061279296875,0.018062351271510124,-0.07957642525434494,0.059454504400491714
1733706835043081200,2.233081298828125,0.015091522596776485,-0.07352493703365326,0.047962069511413574
1733706835053102600,2.2431025390625,0.018426330760121346,-0.07712579518556595,0.03956938534975052
1733706835063122200,2.2531220703125,0.020942170172929764,-0.0763644278049469,0.029784686863422394
1733706835073142300,2.263142333984375,0.01995626837015152,-0.0645383968949318,0.031351957470178604
1733706835083162400,2.273162353515625,0.021264199167490005,-0.05945006385445595,0.040801893919706345
1733706835093183200,2.283183349609375,0.022214414551854134,-0.056552544236183167,0.04702756553888321
1733706835103203300,2.293203369140625,0.0222984217107296,-0.05669005215167999,0.04220784828066826
1733706835113223400,2.303223388671875,0.01857372559607029,-0.06538926810026169,0.04280759394168854
1733706835123244300,2.313244384765625,0.01514987088739872,-0.05903196707367897,0.04012477397918701
1733706835133264400,2.323264404296875,0.019497482106089592,-0.031684499233961105,0.03511456772685051
1733706835143284200,2.3332841796875,0.019564468413591385,-0.009069307707250118,0.029126644134521484
1733706835153304300,2.34330419921875,0.01971813105046749,-0.001449471223168075,0.030457159504294395
1733706835163325200,2.3533251953125,0.019698111340403557,-0.001633993349969387,0.028968211263418198
1733706835173345300,2.36334521484375,0.020652854815125465,0.004744543693959713,0.024318065494298935
1733706835183365400,2.373365478515625,0.017573151737451553,0.017049962654709816,0.015444024465978146
1733706835193386200,2.38338623046875,0.018894078209996223,0.023050598800182343,0.01005032379180193
1733706835203406300,2.39340625,0.021737560629844666,0.033068861812353134,0.003100127913057804
1733706835213426400,2.403426513671875,0.0213314276188612,0.041670605540275574,-0.005315993446856737
1733706835223446300,2.4134462890625,0.020661305636167526,0.053063660860061646,-0.012396903708577156
1733706835233467400,2.42346728515625,0.023859495297074318,0.06146353483200073,-0.01028155442327261
1733706835243487200,2.4334873046875,0.0236943569034338,0.07881644368171692,-0.010231075808405876
1733706835253507300,2.44350732421875,0.029968231916427612,0.08850182592868805,-0.017753172665834427
1733706835263528400,2.453528564453125,0.03147492557764053,0.09138625860214233,-0.019897622987627983
1733706835273548300,2.46354833984375,0.03222327306866646,0.08969089388847351,-0.016070662066340446
1733706835283568400,2.473568359375,0.03318407014012337,0.0896621122956276,-0.022263672202825546
1733706835293589200,2.48358935546875,0.029270820319652557,0.09094682335853577,-0.02926379069685936
1733706835303609300,2.493609375,0.0336676761507988,0.09671338647603989,-0.035138580948114395
1733706835313629400,2.50362939453125,0.034865301102399826,0.1030261442065239,-0.040601786226034164
1733706835323649300,2.513649169921875,0.03579897806048393,0.10330439358949661,-0.035370130091905594
1733706835333670400,2.52367041015625,0.03976389020681381,0.09658364206552505,-0.036464154720306396
1733706835343690500,2.5336904296875,0.0381958968937397,0.08219892531633377,-0.03491117060184479
1733706835353710300,2.54371044921875,0.03607948496937752,0.07535779476165771,-0.03503500670194626
1733706835363731500,2.5537314453125,0.03564676642417908,0.06626512855291367,-0.029940670356154442
1733706835373751300,2.563751220703125,0.03439800813794136,0.060357704758644104,-0.026162177324295044
1733706835383771400,2.573771484375,0.033655863255262375,0.05961668863892555,-0.025040622800588608
1733706835393791500,2.58379150390625,0.03013596683740616,0.05598120763897896,-0.026242241263389587
1733706835403812400,2.593812255859375,0.0263974629342556,0.04665524512529373,-0.027149071916937828
1733706835413832400,2.60383251953125,0.022448260337114334,0.031147928908467293,-0.021719684824347496
1733706835423852500,2.6138525390625,0.019210079684853554,0.02240566909313202,-0.013147211633622646
1733706835433873400,2.623873291015625,0.015840915963053703,0.017492670565843582,-0.008482951670885086
1733706835443893500,2.6338935546875,0.015033535659313202,0.00983275007456541,-0.002102598547935486
1733706835453913300,2.643913330078125,0.013026842847466469,0.003369524609297514,-0.004959371872246265
1733706835463933400,2.653933349609375,0.014390167780220509,-0.0009114125277847052,-0.002374798757955432
1733706835473954600,2.66395458984375,0.01792178675532341,-0.004819601774215698,0.0005054099601693451
1733706835483974400,2.673974365234375,0.016366690397262573,-0.011383038014173508,-0.00012665457325056195
1733706835493994200,2.683994140625,0.0206245519220829,-0.023581381887197495,-0.0012766075087711215
1733706835504015400,2.694015380859375,0.01990014873445034,-0.03722287714481354,0.005369189660996199
1733706835514035200,2.70403515625,0.019810933619737625,-0.046819575130939484,0.01227796170860529
1733706835524055300,2.71405517578125,0.0146185252815485,-0.059996526688337326,0.025218021124601364
1733706835534075100,2.7240751953125,0.011523664928972721,-0.08071193099021912,0.0291706845164299
1733706835544096300,2.73409619140625,0.013318315148353577,-0.08400795608758926,0.03156276047229767
1733706835554116400,2.744116455078125,0.013088750652968884,-0.07103835791349411,0.03192468360066414
1733706835564136200,2.75413623046875,0.0076427096500992775,-0.06802681088447571,0.02723599411547184
1733706835574157300,2.7641572265625,0.003422131994739175,-0.0715126246213913,0.02740723453462124
1733706835584177200,2.77417724609375,-0.0017116464441642165,-0.07053850591182709,0.032673101872205734
1733706835594197200,2.784197265625,-0.0067183892242610455,-0.0744355097413063,0.03703216463327408
1733706835604217300,2.79421728515625,-0.010774812661111355,-0.08084215223789215,0.036648623645305634
1733706835614238200,2.80423828125,-0.009743902832269669,-0.09430016577243805,0.043517448008060455
1733706835624258300,2.81425830078125,-0.009105860255658627,-0.09922544658184052,0.05655870586633682
1733706835634278400,2.8242783203125,-0.007876012474298477,-0.09403041750192642,0.06577936559915543
1733706835644299300,2.83429931640625,-0.006962575018405914,-0.08737362921237946,0.06989862024784088
1733706835654319400,2.8443193359375,-0.0055617522448301315,-0.08161027729511261,0.06259223818778992
1733706835664339200,2.854339111328125,-0.0014429334551095963,-0.0828218013048172,0.04795325547456741
1733706835674360300,2.8643603515625,0.002981109544634819,-0.08897903561592102,0.03786946460604668
1733706835684380400,2.87438037109375,0.011422268114984035,-0.09742145240306854,0.04019307345151901
1733706835694400300,2.884400146484375,0.013787421397864819,-0.1011272445321083,0.04276648536324501
1733706835704420400,2.89442041015625,0.020532501861453056,-0.09290000796318054,0.035984430462121964
1733706835714441200,2.904441162109375,0.025226322934031487,-0.07513272762298584,0.02453337050974369
1733706835724461300,2.91446142578125,0.03276839479804039,-0.06350164115428925,0.01815083809196949
1733706835734481400,2.9244814453125,0.036417458206415176,-0.054642632603645325,0.013048754073679447
1733706835744502300,2.934502197265625,0.03716893121600151,-0.050038307905197144,0.011078184470534325
1733706835754522400,2.9445224609375,0.032630372792482376,-0.04766196757555008,0.0109918974339962
1733706835764542500,2.95454248046875,0.02389315702021122,-0.0484071746468544,0.006435861811041832
1733706835774562300,2.964562255859375,0.02359435148537159,-0.04899733141064644,-0.0005863611004315317
1733706835784583400,2.97458349609375,0.01530392561107874,-0.043714489787817,0.00041285401675850153
1733706835794603300,2.984603271484375,0.009586385451257229,-0.033020831644535065,0.002650974551215768
1733706835804623400,2.994623291015625,0.004675222560763359,-0.020402289927005768,0.0012969013769179583
1733706835814644200,3.004644287109375,0.007337318733334541,-0.013743587769567966,0.0005924953729845583
1733706835824664300,3.014664306640625,0.004700725432485342,-0.014740020036697388,0.0017050716560333967
1733706835834684400,3.024684326171875,0.004964910913258791,-0.021505247801542282,0.016151921823620796
1733706835844704500,3.03470458984375,0.004596606828272343,-0.0297229140996933,0.017530225217342377
1733706835854725400,3.044725341796875,0.0025014979764819145,-0.03615817800164223,0.019388578832149506
1733706835864745500,3.054745361328125,0.0008694459684193134,-0.03239767625927925,0.023781366646289825
1733706835874765300,3.064765380859375,0.0013605328276753426,-0.022475268691778183,0.024374451488256454
1733706835884786400,3.074786376953125,0.002690125722438097,-0.017137005925178528,0.019371896982192993
1733706835894806300,3.08480615234375,0.004730373155325651,-0.006282493472099304,0.010178398340940475
1733706835904826400,3.094826416015625,0.006446078419685364,0.009486610069870949,0.00045781186781823635
1733706835914846500,3.104846435546875,0.00283456570468843,0.010107658803462982,-0.00390417966991663
1733706835924867300,3.114867431640625,0.0017448500730097294,0.014885133132338524,-0.003519909456372261
1733706835934887400,3.124887451171875,-0.002152952365577221,0.01302278507500887,-0.0026860737707465887
1733706835944907500,3.134907470703125,-0.005816373974084854,0.009369175881147385,-0.001259830198250711
1733706835954928400,3.144928466796875,-0.009526689536869526,0.01727663353085518,-0.0009604908991605043
1733706835964948500,3.154948486328125,-0.007345923222601414,0.02451404556632042,-0.011719613336026669
1733706835974968300,3.16496826171875,-0.00732541736215353,0.03866688534617424,-0.01639745384454727
1733706835984988400,3.174988525390625,-0.006344455294311047,0.051320601254701614,-0.01094456110149622
1733706835995009500,3.185009521484375,-0.006629147566854954,0.05112326145172119,-0.007310410961508751
1733706836005029400,3.195029296875,-0.00506073422729969,0.03922806307673454,-0.004654609132558107
1733706836015049500,3.205049560546875,-0.008566785603761673,0.02983429841697216,-0.0008659959421493113
1733706836025070300,3.2150703125,-0.009813003242015839,0.03146277740597725,0.004593410529196262
1733706836035090400,3.22509033203125,-0.009647088125348091,0.03923894464969635,0.005787039175629616
1733706836045110300,3.2351103515625,-0.008387922309339046,0.03766446188092232,0.002809479832649231
1733706836055130400,3.24513037109375,-0.00943294633179903,0.028910119086503983,0.005423638969659805
1733706836065151500,3.2551513671875,-0.011448881588876247,0.016435686498880386,0.004759012721478939
1733706836075171300,3.26517138671875,-0.013290723785758018,0.011791400611400604,0.0021142270416021347
1733706836085191200,3.275191162109375,-0.009295380674302578,0.0012100737076252699,0.0021819667890667915
1733706836095212500,3.285212646484375,-0.011190486140549183,-0.001196891302242875,0.006021712440997362
1733706836105232100,3.295232177734375,-0.010973801836371422,-0.001589435152709484,0.01089933980256319
1733706836115252200,3.305252197265625,-0.007004626095294952,-0.006404962856322527,0.011457538232207298
1733706836125272300,3.315272216796875,-0.006172561552375555,-0.007128615863621235,0.005244867876172066
1733706836135293200,3.325293212890625,-0.0006283926777541637,-0.007436210755258799,0.00617431104183197
1733706836145313300,3.335313232421875,-0.002624914515763521,-0.012553710490465164,0.005700244568288326
1733706836155333400,3.34533349609375,0.000016941223293542862,-0.01548159122467041,0.009219079278409481
1733706836165354200,3.355354248046875,0.0003917210269719362,-0.01911705918610096,0.010577920824289322
1733706836175374300,3.365374267578125,-0.002863460686057806,-0.011805616319179535,0.007580799050629139
1733706836185394200,3.375394287109375,-0.006865199655294418,-0.005029482301324606,0.007116779685020447
1733706836195414300,3.385414306640625,-0.005287010222673416,-0.003701896406710148,0.008090431801974773
1733706836205435400,3.395435302734375,-0.007566649466753006,0.0032820249907672405,0.009159546345472336
1733706836215455200,3.405455322265625,-0.003713587997481227,0.0033086566254496574,0.003882758319377899
1733706836225475300,3.415475341796875,-0.004830494523048401,0.0050130621530115604,0.006335117854177952
1733706836235496200,3.42549609375,-0.007044646888971329,0.010902376845479012,0.004653864540159702
1733706836245516300,3.435516357421875,-0.0062276581302285194,0.0210269708186388,0.00380049180239439
1733706836255536400,3.445536376953125,-0.006163209211081266,0.028971711173653603,-0.001568973297253251
1733706836265556200,3.45555615234375,-0.0060865143314003944,0.036468446254730225,-0.002776984591037035
1733706836275577300,3.465577392578125,-0.007119821384549141,0.03873319923877716,-0.00808732770383358
1733706836285597400,3.475597412109375,-0.010308420285582542,0.03336166962981224,-0.007763752248138189
1733706836295617300,3.4856171875,-0.008870046585798264,0.030424999073147774,-0.009064972400665283
1733706836305638400,3.495638427734375,-0.006237322930246592,0.026342295110225677,-0.006127870641648769
1733706836315658200,3.505658203125,-0.004544617608189583,0.024329211562871933,-0.002670821500942111
1733706836325678300,3.51567822265625,-0.0049422737210989,0.022970501333475113,0.0038816449232399464
1733706836335698400,3.525698486328125,-0.005438687279820442,0.02289726585149765,0.006002586334943771
1733706836345719300,3.53571923828125,-0.004403947852551937,0.026044650003314018,0.008497122675180435
1733706836355739400,3.545739501953125,-0.004578917287290096,0.02274179831147194,0.008204174228012562
1733706836365759500,3.555759521484375,-0.008180388249456882,0.01814749836921692,0.0017011694144457579
1733706836375780400,3.5657802734375,-0.007826187647879124,0.011306105181574821,0.004764070734381676
1733706836385800400,3.575800537109375,-0.008520083501935005,0.008277335204184055,0.005974551197141409
1733706836395820300,3.5858203125,-0.010762199759483337,0.00439204927533865,0.006154048256576061
1733706836405840400,3.59584033203125,-0.011187653057277203,0.001287577673792839,0.011607208289206028
1733706836415861200,3.605861328125,-0.00708159152418375,0.010883746668696404,0.008781327866017818
1733706836425881300,3.61588134765625,-0.005161815322935581,0.007006722502410412,0.009256485849618912
1733706836435901400,3.6259013671875,-0.004390297457575798,-0.0009145841468125582,0.013834459707140923
1733706836445922300,3.63592236328125,-0.004039802122861147,-0.00739939883351326,0.012227628380060196
1733706836455942400,3.6459423828125,-0.006996443495154381,-0.008880116045475006,0.010162612423300743
1733706836465962500,3.65596240234375,-0.007703925482928753,-0.011989114806056023,0.013862881809473038
1733706836475982300,3.665982421875,-0.005917477421462536,-0.01570156216621399,0.01393372192978859
1733706836486003500,3.67600341796875,-0.0064510744996368885,-0.013939820230007172,0.011792493052780628
1733706836496022800,3.686022705078125,-0.005741341970860958,-0.019493307918310165,0.010816976428031921
1733706836506042400,3.69604248046875,-0.0058503844775259495,-0.021969757974147797,0.012680585496127605
1733706836516063700,3.706063720703125,-0.0058016483671963215,-0.022672299295663834,0.0205070823431015
1733706836526083600,3.71608349609375,-0.006338156294077635,-0.020321819931268692,0.021371083334088326
1733706836536103400,3.726103515625,-0.005173289682716131,-0.023902971297502518,0.018705260008573532
1733706836546123500,3.73612353515625,-0.0051973313093185425,-0.023539196699857712,0.010974539443850517
1733706836556144400,3.746144287109375,-0.004327809438109398,-0.019514361396431923,0.010006213560700417
1733706836566164500,3.75616455078125,-0.002457521390169859,-0.010511575266718864,0.009359088726341724
1733706836576184600,3.7661845703125,-0.005771558731794357,-0.003214514348655939,0.009256024844944477
1733706836586205400,3.776205322265625,-0.004995004739612341,-0.0016421658219769597,0.008447367697954178
1733706836596225500,3.7862255859375,-0.009288553148508072,-0.004906136076897383,0.009896926581859589
1733706836606245600,3.79624560546875,-0.012542884796857834,0.0015712352469563484,0.00846705213189125
1733706836616265500,3.806265380859375,-0.013403885066509247,0.0009187606628984213,0.009029777720570564
1733706836626286600,3.81628662109375,-0.011352814733982086,0.001138211227953434,-0.0019421307370066643
1733706836636306400,3.826306396484375,-0.006646743044257164,0.005619245581328869,-0.0012174845905974507
1733706836646326500,3.836326416015625,-0.01039720419794321,0.008453859947621822,0.005879935342818499
1733706836656347400,3.846347412109375,-0.007505543529987335,0.00451131584122777,0.007511920295655727
1733706836666367500,3.856367431640625,-0.00900063756853342,0.0025648786686360836,0.005871681496500969
1733706836676387600,3.8663876953125,-0.00875269714742899,0.005729513242840767,0.00831246841698885
1733706836686407700,3.87640771484375,-0.008031416684389114,0.010276587679982185,0.008465019054710865
1733706836696428500,3.886428466796875,-0.007913971319794655,0.00880199670791626,0.008328132331371307
1733706836706448600,3.89644873046875,-0.007144661620259285,0.00965652521699667,0.008120573125779629
1733706836716468500,3.906468505859375,-0.009084508754312992,0.013377759605646133,0.006418281234800816
1733706836726489600,3.916489501953125,-0.012154380790889263,0.011471772566437721,0.0070076631382107735
1733706836736509400,3.926509521484375,-0.010004144161939621,0.015286749228835106,0.005165820941329002
1733706836746529500,3.936529541015625,-0.009639965370297432,0.010434247553348541,0.005807982757687569
1733706836756549600,3.946549560546875,-0.010674605146050453,0.007292516063898802,0.004060682840645313
1733706836766570500,3.956570556640625,-0.011598601005971432,0.006098862737417221,0.0046892608515918255
1733706836776590600,3.966590576171875,-0.014496386982500553,0.009348984807729721,0.004790993873029947
1733706836786610700,3.976610595703125,-0.017757520079612732,0.008902180939912796,0.0022956631146371365
1733706836796631600,3.986631591796875,-0.01617480255663395,0.007778858300298452,0.0030575934797525406
1733706836806651600,3.996651611328125,-0.010911868885159492,0.0013856065925210714,0.00951602216809988
1733706836816671500,4.00667138671875,-0.012144380249083042,-0.004610500298440456,0.012548297643661499
1733706836826691600,4.016691650390625,-0.009371808730065823,-0.01431235857307911,0.012536072172224522
1733706836836712700,4.026712646484375,-0.00884636677801609,-0.01486176997423172,0.011172001250088215
1733706836846732500,4.036732666015625,-0.007066310383379459,-0.004334826488047838,0.009726437740027905
1733706836856752600,4.046752685546875,-0.004090861417353153,-0.001294623245485127,0.006174892652779818
1733706836866773500,4.0567734375,-0.0055250003933906555,-0.00017134984955191612,0.005365969147533178
1733706836876793600,4.066793701171875,-0.005553762428462505,0.003038824535906315,0.0034650047309696674
1733706836886813700,4.076813720703125,-0.005111838690936565,-0.0037236125208437443,0.006597369909286499
1733706836896833500,4.08683349609375,-0.006492954678833485,-0.011302968487143517,0.004594938829541206
1733706836906854700,4.096854736328125,-0.00921412743628025,-0.011948289349675179,0.0015037818811833858
1733706836916874800,4.106874755859375,-0.009164592251181602,-0.00684434175491333,0.00015808671014383435
1733706836926894600,4.11689453125,-0.012706521898508072,0.00888989306986332,0.002234916901215911
1733706836936915700,4.126915771484375,-0.012658584862947464,0.01852441020309925,0.0029350619297474623
1733706836946935600,4.136935546875,-0.014498881064355373,0.024932213127613068,-0.0011432796018198133
1733706836956955600,4.14695556640625,-0.015473064966499805,0.020571283996105194,-0.001651410711929202
1733706836966975700,4.156975830078125,-0.01649409346282482,0.02013430930674076,0.003911256790161133
1733706836976996600,4.16699658203125,-0.01786668598651886,0.020570268854498863,0.0024558391887694597
1733706836987016700,4.1770166015625,-0.019658364355564117,0.025864627212285995,0.004006549250334501
1733706836997036800,4.187036865234375,-0.021518582478165627,0.02799702063202858,0.00037373113445937634
1733706837007057700,4.1970576171875,-0.01763467863202095,0.029702745378017426,-0.00505829555913806
1733706837017077800,4.207077880859375,-0.01257999986410141,0.03123965486884117,-0.008430923335254192
1733706837027097600,4.21709765625,-0.010316968895494938,0.029540782794356346,-0.00714096101000905
1733706837037117400,4.227117431640625,-0.008550228551030159,0.0272816214710474,0.005291207693517208
1733706837047138800,4.237138916015625,-0.008674133569002151,0.024781234562397003,0.005622142925858498
1733706837057158700,4.24715869140625,-0.007837634533643723,0.02199796587228775,-0.00031484203645959496
1733706837067178500,4.257178466796875,-0.005611039698123932,0.022701293230056763,-0.0035078031942248344
1733706837077198600,4.267198486328125,-0.00400595273822546,0.02010844089090824,-0.006099857855588198
1733706837087219500,4.277219482421875,-0.00672506308183074,0.019527357071638107,-0.008041954599320889
1733706837097239600,4.287239501953125,-0.008914980106055737,0.019257046282291412,-0.010198582895100117
1733706837107259400,4.29725927734375,-0.005885175429284573,0.016218366101384163,-0.007337912917137146
1733706837117280500,4.307280517578125,-0.00842236913740635,0.017749151214957237,-0.004208698403090239
1733706837127300600,4.317300537109375,-0.00969185121357441,0.01774751767516136,-0.0028984486125409603
1733706837137320400,4.327320556640625,-0.008930454030632973,0.012778058648109436,-0.005029776133596897
1733706837147340500,4.337340576171875,-0.0071716466918587685,0.005569779314100742,-0.00567055307328701
1733706837157361400,4.347361328125,-0.008728263899683952,0.007197236642241478,-0.008688180707395077
1733706837167381500,4.357381591796875,-0.00824517197906971,0.013188482262194157,-0.0093843350186944
1733706837177401600,4.367401611328125,-0.007260335609316826,0.011687524616718292,-0.006617576349526644
1733706837187422500,4.37742236328125,-0.008651304990053177,0.015991458669304848,-0.003082762472331524
1733706837197442600,4.387442626953125,-0.010965636931359768,0.01447589136660099,-0.006242577452212572
1733706837207462700,4.397462646484375,-0.014561385847628117,0.01512333657592535,-0.005756040569394827
1733706837217482500,4.407482421875,-0.01253605168312788,0.011125932447612286,-0.0009144137147814035
1733706837227503600,4.417503662109375,-0.015300974249839783,0.009212134405970573,0.0005541960126720369
1733706837237523500,4.4275234375,-0.01444663293659687,0.011728022247552872,-0.004245352931320667
1733706837247543600,4.43754345703125,-0.010367440059781075,0.01694973185658455,-0.0014829984866082668
1733706837257564700,4.447564697265625,-0.008551962673664093,0.010992773808538914,-0.0027250968851149082
1733706837267584500,4.45758447265625,-0.005363677628338337,0.0075122579000890255,0.0004986820858903229
1733706837277604600,4.4676044921875,-0.00778795313090086,0.004115395713597536,0.00547426613047719
1733706837287624700,4.477624755859375,-0.010874827392399311,0.0017973128706216812,0.0033450662158429623
1733706837297645600,4.4876455078125,-0.011724109761416912,0.007226699031889439,0.0011860416270792484
1733706837307665700,4.497665771484375,-0.01042293943464756,0.00983576849102974,-0.007024460472166538
1733706837317685500,4.507685546875,-0.011497525498270988,0.010876531712710857,-0.004152773413807154
1733706837327706600,4.51770654296875,-0.010490098036825657,0.018198130652308464,-0.0047351825051009655
1733706837337726700,4.527726806640625,-0.009620842523872852,0.026025960221886635,-0.01263172086328268
1733706837347746600,4.53774658203125,-0.008959867991507053,0.025364981964230537,-0.010148976929485798
1733706837357766700,4.5477666015625,-0.01237084437161684,0.0151528250426054,-0.003423429559916258
1733706837367787500,4.55778759765625,-0.011717741377651691,0.0104067986831069,-0.007313024718314409
1733706837377807600,4.5678076171875,-0.010617323219776154,0.009735149331390858,-0.013524581678211689
1733706837387827700,4.57782763671875,-0.009009692817926407,0.007784407585859299,-0.017788374796509743
1733706837397848600,4.5878486328125,-0.007059193216264248,0.011546655558049679,-0.008783694356679916
1733706837407868700,4.59786865234375,-0.004616399295628071,0.01695283129811287,-0.007844471372663975
1733706837417888800,4.607888671875,-0.004703484941273928,0.02087193727493286,-0.0089278444647789
1733706837427908600,4.61790869140625,-0.0023124939762055874,0.0204341821372509,-0.008386688306927681
1733706837437929700,4.6279296875,-0.0038161147385835648,0.023702146485447884,-0.007381611503660679
1733706837447949600,4.637949462890625,-0.003459931118413806,0.023943137377500534,-0.010875074192881584
1733706837457969700,4.6479697265625,-0.006152653135359287,0.018243707716464996,-0.013198948465287685
1733706837467990500,4.657990478515625,-0.007035853806883097,0.011332809925079346,-0.011615384370088577
1733706837478010600,4.6680107421875,-0.006492302753031254,0.010071270167827606,-0.012646560557186604
1733706837488030700,4.67803076171875,-0.009116191416978836,0.01309613324701786,-0.013019861653447151
1733706837498050800,4.68805078125,-0.00554276118054986,0.015421871095895767,-0.011994544416666031
1733706837508071700,4.69807177734375,-0.003511986695230007,0.013042776845395565,-0.012203799560666084
1733706837518091800,4.708091796875,-0.0019100952195003629,0.01647266000509262,-0.01362592726945877
1733706837528111600,4.718111572265625,-0.003340519266203046,0.01668076030910015,-0.015580659732222557
1733706837538132700,4.7281328125,-0.005321378819644451,0.012598665431141853,-0.01042131707072258
1733706837548152600,4.738152587890625,-0.007559045217931271,0.011147430166602135,-0.010283466428518295
1733706837558172700,4.748172607421875,-0.010188117623329163,0.009318903088569641,-0.010531673207879066
1733706837568192800,4.75819287109375,-0.009568927809596062,0.0068800481967628,-0.005966478958725929
1733706837578213600,4.768213623046875,-0.007219487335532904,0.008206035941839218,-0.004539557732641697
1733706837588233700,4.778233642578125,-0.00703287310898304,0.005282138474285603,-0.003187834285199642
1733706837598253800,4.78825390625,-0.006304765120148659,0.0008027018047869205,-0.005620099604129791
1733706837608274700,4.798274658203125,-0.00661722756922245,-0.0026370491832494736,-0.0031498484313488007
1733706837618294800,4.808294677734375,-0.006423615850508213,-0.004665578715503216,0.0008078751270659268
1733706837628314600,4.818314697265625,-0.005940829403698444,0.0019782460294663906,-0.005136806983500719
1733706837638334700,4.828334716796875,-0.0062319133430719376,0.009770656004548073,-0.012353707104921341
1733706837648355800,4.83835595703125,-0.004039236344397068,0.007100564427673817,-0.013768958859145641
1733706837658375700,4.848375732421875,-0.0030775691848248243,0.007709895260632038,-0.0077483514323830605
1733706837668395800,4.858395751953125,-0.007001085206866264,0.004685851279646158,-0.007943489588797092
1733706837678416600,4.868416748046875,-0.008669822476804256,0.0050997063517570496,-0.009784800000488758
1733706837688436700,4.878436767578125,-0.007884914986789227,0.0005347942933440208,-0.010731189511716366
1733706837698456800,4.888456787109375,-0.003967671189457178,0.0023721088655292988,-0.006694635841995478
1733706837708476700,4.8984765625,-0.0038618475664407015,0.000393107533454895,-0.0009537084843032062
1733706837718497800,4.908497802734375,-0.0058637456968426704,0.0019297515973448753,-0.005243262276053429
1733706837728518000,4.918517822265625,-0.005831373855471611,0.007133859675377607,-0.007811686024069786
1733706837738537700,4.928537841796875,-0.007773883640766144,0.006049153860658407,-0.002684834413230419
1733706837748557800,4.938557861328125,-0.006904554087668657,-0.00028010178357362747,-0.0025270774494856596
1733706837758578700,4.94857861328125,-0.007963959127664566,0.0072483886033296585,-0.0058831931091845036
1733706837768598800,4.958598876953125,-0.004343998618423939,0.012381618842482567,0.0013029829133301973
1733706837778619000,4.968618896484375,-0.0059488192200660706,0.015846392139792442,-0.002697085030376911
1733706837788639700,4.9786396484375,-0.0055398824624717236,0.01539361011236906,-0.004506777971982956
1733706837798659800,4.988659912109375,-0.0021102637983858585,0.01584554836153984,-0.01021686103194952
1733706837808680000,4.998679931640625,-0.003414005506783724,0.018759004771709442,-0.014756027609109879
1733706837818699800,5.00869970703125,-0.004857438616454601,0.02078700065612793,-0.010953299701213837
1733706837828721000,5.018720947265625,-0.003981474321335554,0.024013718590140343,-0.0054765320383012295
1733706837838740700,5.02874072265625,-0.0022666649892926216,0.020771319046616554,-0.008347952738404274
1733706837848760800,5.0387607421875,-0.00462556816637516,0.01850953884422779,-0.009293300099670887
1733706837858781700,5.04878173828125,-0.004090539179742336,0.023004421964287758,-0.010170545428991318
1733706837868801800,5.0588017578125,-0.0031286505982279778,0.01939108595252037,-0.009361982345581055
1733706837878822000,5.06882177734375,-0.0021371557377278805,0.012863676063716412,-0.010357738472521305
1733706837888842000,5.078842041015625,-0.003770279698073864,0.0120729710906744,-0.015355790965259075
1733706837898862800,5.08886279296875,-0.0025255181826651096,0.015818439424037933,-0.010730945505201817
1733706837908883000,5.098883056640625,0.00001024163793772459,0.018562233075499535,-0.006598739419132471
1733706837918902800,5.10890283203125,0.0006038602441549301,0.019167037680745125,-0.00484611326828599
1733706837928922600,5.118922607421875,-0.0013808012008666992,0.01315387338399887,-0.0003992642741650343
1733706837938943700,5.12894384765625,-0.0018846711609512568,0.005720191635191441,0.0005996875115670264
1733706837948963600,5.138963623046875,-0.003524549538269639,0.007199571933597326,-0.003024657256901264
1733706837958983700,5.148983642578125,-0.0051445504650473595,0.007807571906596422,-0.007069466169923544
1733706837969004800,5.1590048828125,-0.002702697878703475,0.004922835156321526,-0.011221333406865597
1733706837979024600,5.169024658203125,-0.0024108155630528927,0.006184374447911978,-0.010538765229284763
1733706837989044700,5.179044677734375,-0.0008251410908997059,0.006622247863560915,-0.00269137229770422
1733706837999064600,5.189064697265625,-0.002375100739300251,0.010713929310441017,0.002649064641445875
1733706838009085700,5.199085693359375,-0.00465469341725111,0.008573025465011597,-0.001828943146392703
1733706838019105800,5.209105712890625,-0.0021771544124931097,0.006272853352129459,-0.00019109915592707694
1733706838029125600,5.219125732421875,-0.005541015416383743,0.006671281531453133,0.001594696892425418
1733706838039146800,5.229146728515625,-0.0018019374692812562,0.006402035243809223,0.0032503840047866106
1733706838049166600,5.23916650390625,-0.004006043076515198,0.0028610839508473873,-0.00009224712266586721
1733706838059186700,5.249186767578125,-0.0030425116419792175,0.003816360142081976,-0.0022012044209986925
1733706838069206800,5.259206787109375,-0.002199116861447692,0.0006013426464051008,-0.0008753400761634111
1733706838079227600,5.2692275390625,-0.003321372903883457,-0.00628426019102335,0.00487096281722188
1733706838089247700,5.279247802734375,-0.0050843628123402596,-0.011285429820418358,0.007673793938010931
1733706838099267800,5.289267822265625,-0.002837187610566616,-0.0126859862357378,0.008607764728367329
1733706838109288700,5.299288818359375,-0.002991848159581423,-0.010116888210177422,0.00743660144507885
1733706838119308800,5.309308837890625,-0.007010025437921286,-0.005109080579131842,0.005399815738201141
1733706838129328600,5.31932861328125,-0.004543956369161606,0.003060517366975546,0.0006856360123492777
1733706838139348700,5.3293486328125,-0.002930613700300455,0.0023659653961658478,0.007606925442814827
1733706838149369600,5.33936962890625,-0.003237387165427208,-0.009264610707759857,0.0099343815818429
1733706838159389700,5.3493896484375,-0.0046539222821593285,-0.008418258279561996,0.009786044247448444
1733706838169409800,5.359409912109375,-0.0034779158886522055,-0.00990772619843483,0.0065953368321061134
1733706838179430700,5.3694306640625,-0.006676105782389641,-0.015356021001935005,0.009781808592379093
1733706838189450800,5.37945068359375,-0.005930125713348389,-0.01549765095114708,0.010164362378418446
1733706838199470800,5.389470947265625,-0.006849449127912521,-0.009093547239899635,0.004281173925846815
1733706838209490700,5.39949072265625,-0.006327838636934757,-0.006205678451806307,0.0017597374971956015
1733706838219511800,5.40951171875,-0.005598132498562336,-0.010093627497553825,0.0061843134462833405
1733706838229531600,5.41953173828125,-0.00421316921710968,-0.01566178910434246,0.008868584409356117
1733706838239551700,5.4295517578125,-0.003198771271854639,-0.01577950082719326,0.014676672406494617
1733706838249571800,5.43957177734375,-0.0064433906227350235,-0.017184242606163025,0.014717471785843372
1733706838259592700,5.4495927734375,-0.005024191923439503,-0.011065364815294743,0.009475571103394032
1733706838269612800,5.45961279296875,-0.004966956563293934,-0.006330245640128851,0.008381159044802189
1733706838279633000,5.4696328125,-0.005853522568941116,-0.006612540688365698,0.003961643669754267
1733706838289653800,5.47965380859375,-0.00408421503379941,-0.00791588518768549,0.005920713767409325
1733706838299673900,5.489673828125,-0.0030775400809943676,-0.008223745971918106,0.010663803666830063
1733706838309693700,5.499693603515625,-0.005476855672895908,-0.005249274428933859,0.013701040297746658
1733706838319713800,5.5097138671875,-0.006297109182924032,-0.004425558727234602,0.010587804950773716
1733706838329735000,5.51973486328125,-0.006338462233543396,0.000211257953196764,0.007300035562366247
1733706838339754800,5.529754638671875,-0.005986126139760017,0.00784654077142477,0.004945002496242523
1733706838349774800,5.53977490234375,-0.004946966655552387,0.015367237851023674,0.002213660627603531
1733706838359795700,5.549795654296875,-0.0047970302402973175,0.007784420158714056,-0.00040529214311391115
1733706838369815800,5.55981591796875,-0.0037422652821987867,0.010639157146215439,0.0025155958719551563
1733706838379836000,5.5698359375,-0.006511153653264046,0.006647345144301653,0.003979535773396492
1733706838389855700,5.579855712890625,-0.006877492181956768,0.005738580133765936,0.009289945475757122
1733706838399876900,5.589876953125,-0.00628467183560133,0.01011015847325325,0.009444675408303738
1733706838409897000,5.59989697265625,-0.006743528880178928,0.004951418377459049,0.00980314053595066
1733706838419916800,5.609916748046875,-0.01036516111344099,0.0050877719186246395,0.008795400150120258
1733706838429936600,5.6199365234375,-0.009410684928297997,0.0009220556821674109,0.011473208665847778
1733706838439957800,5.629957763671875,-0.008574185892939568,0.002286659087985754,0.012011965736746788
1733706838449977900,5.639977783203125,-0.008895170874893665,0.003859243355691433,0.012717872858047485
1733706838459997700,5.649997802734375,-0.009889062494039536,0.015642931684851646,0.012722933664917946
1733706838470018800,5.660018798828125,-0.007342644035816193,0.017632320523262024,0.011656119488179684
1733706838480038700,5.67003857421875,-0.009744016453623772,0.006606300361454487,0.010222007520496845
1733706838490058800,5.680058837890625,-0.009611169807612896,0.002662463579326868,0.008677933365106583
1733706838500078800,5.690078857421875,-0.01140614040195942,0.009153652936220169,0.009011893533170223
1733706838510100000,5.700099853515625,-0.008373769000172615,0.01191294752061367,0.01040387898683548
1733706838520119800,5.710119873046875,-0.007211032323539257,0.011988846585154533,0.0062059382908046246
1733706838530140000,5.720139892578125,-0.0049817003309726715,0.0101707074791193,0.007221668027341366
1733706838540160800,5.730160888671875,-0.006742849014699459,0.01293187215924263,0.003264210419729352
1733706838550180900,5.740180908203125,-0.005749155767261982,0.009050257503986359,0.005411343649029732
1733706838560201000,5.750200927734375,-0.005043151788413525,0.00594607787206769,0.003227551933377981
1733706838570221000,5.760220947265625,-0.007357705384492874,0.012590931728482246,0.0004283032612875104
1733706838580242000,5.770241943359375,-0.005752884317189455,0.022105606272816658,0.0055682044476270676
1733706838590262000,5.780261962890625,-0.005409359000623226,0.02439115010201931,0.005006157327443361
1733706838600281900,5.79028173828125,-0.007402203045785427,0.020673643797636032,0.006341466214507818
1733706838610303000,5.800302978515625,-0.009824029169976711,0.019916538149118423,0.0067345271818339825
1733706838620322800,5.81032275390625,-0.012083721347153187,0.02133786678314209,0.009432575665414333
1733706838630343000,5.820343017578125,-0.012831877917051315,0.01637106016278267,0.009073483757674694
1733706838640363000,5.830363037109375,-0.0130750248208642,0.013615752570331097,0.008466549217700958
1733706838650384000,5.8403837890625,-0.012527626007795334,0.005295746028423309,0.013658452779054642
1733706838660404000,5.850404052734375,-0.012945475988090038,0.008183412253856659,0.014953015372157097
1733706838670424000,5.860424072265625,-0.01221158355474472,0.010095017030835152,0.008850550279021263
1733706838680444000,5.87044384765625,-0.008728967048227787,0.003544705454260111,0.013239705935120583
1733706838690465000,5.880465087890625,-0.008123897016048431,-0.00644720857962966,0.017536716535687447
1733706838700484900,5.89048486328125,-0.0077478582970798016,-0.0075351097621023655,0.020537832751870155
1733706838710504700,5.900504638671875,-0.008274534717202187,-0.0050519853830337524,0.02091195620596409
1733706838720526000,5.910526123046875,-0.005896598566323519,-0.004190186038613319,0.024394573643803596
1733706838730546000,5.9205458984375,-0.008346138522028923,0.004391971509903669,0.02317231148481369
1733706838740565800,5.930565673828125,-0.007697924971580505,0.011698886752128601,0.01727234572172165
1733706838750585900,5.9405859375,-0.009182880632579327,0.013842444866895676,0.011271031573414803
1733706838760606700,5.950606689453125,-0.01188572309911251,0.0076063876040279865,0.010874221101403236
1733706838770626800,5.960626708984375,-0.01126603502780199,0.009662562981247902,0.009277530014514923
1733706838780647000,5.97064697265625,-0.01477901078760624,0.014242934063076973,0.006998397409915924
1733706838790666800,5.980666748046875,-0.012347226962447166,0.026547834277153015,0.011095914989709854
1733706838800687900,5.99068798828125,-0.011385826393961906,0.027652781456708908,0.016196133568882942
1733706838810707700,6.000707763671875,-0.009862896054983139,0.026214294135570526,0.011408490128815174
1733706838820727800,6.010727783203125,-0.011155327782034874,0.02407471090555191,0.013994419015944004
1733706838830748700,6.020748779296875,-0.012157609686255455,0.02399333007633686,0.011823490262031555
1733706838840768800,6.030768798828125,-0.01309078186750412,0.026438379660248756,0.00965541135519743
1733706838850788900,6.040788818359375,-0.012451164424419403,0.04023167863488197,0.004754830617457628
1733706838860809000,6.05080908203125,-0.014367042109370232,0.051139187067747116,0.0062792240642011166
1733706838870829800,6.060829833984375,-0.014715982601046562,0.061090413480997086,0.007296726573258638
1733706838880850000,6.070849853515625,-0.01331942155957222,0.06693072617053986,0.005920937284827232
1733706838890869800,6.080869873046875,-0.01167196687310934,0.06463612616062164,0.0026184702292084694
1733706838900891000,6.090890869140625,-0.013242966495454311,0.06250160187482834,-0.0011922467965632677
1733706838910910700,6.10091064453125,-0.015585615299642086,0.06674576550722122,-0.0014599754940718412
1733706838920930800,6.110930908203125,-0.020252803340554237,0.07663781195878983,-0.0036480287089943886
1733706838930951000,6.120950927734375,-0.01959417760372162,0.08580286055803299,-0.00818726234138012
1733706838940971800,6.1309716796875,-0.015736853703856468,0.09245144575834274,-0.00974947214126587
1733706838950992000,6.140991943359375,-0.012342987582087517,0.09507711231708527,-0.007332745939493179
1733706838961012000,6.151011962890625,-0.01239704992622137,0.09255190193653107,0.002580071799457073
1733706838971032800,6.16103271484375,-0.01628837175667286,0.0892268717288971,0.02285492792725563
1733706838981053000,6.171052978515625,-0.01689903438091278,0.09135473519563675,0.027712002396583557
1733706838991072800,6.18107275390625,-0.014874855056405067,0.08155837655067444,0.016322247684001923
1733706839001092900,6.1910927734375,-0.014648220501840115,0.07262639701366425,-0.0007209162577055395
1733706839011114000,6.201114013671875,-0.01554801408201456,0.08367577940225601,-0.008363177999854088
1733706839021133800,6.2111337890625,-0.013026266358792782,0.09742701053619385,-0.0176450926810503
1733706839031154000,6.22115380859375,-0.013097542338073254,0.1014382541179657,-0.02064812183380127
1733706839041174000,6.231174072265625,-0.009658602066338062,0.09966832399368286,-0.02330808714032173
1733706839051195000,6.24119482421875,-0.003693728242069483,0.09114459156990051,-0.026583340018987656
1733706839061215000,6.251215087890625,-0.000418839103076607,0.07744263112545013,-0.018202371895313263
1733706839071234800,6.26123486328125,0.006146436557173729,0.060326796025037766,-0.012558890506625175
1733706839081256000,6.271255859375,0.009180310182273388,0.04969918355345726,-0.008155619725584984
1733706839091276000,6.281276123046875,0.01341921929270029,0.05153839662671089,-0.004744083154946566
1733706839101295900,6.2912958984375,0.012997107580304146,0.050296034663915634,-0.003391730133444071
1733706839111316000,6.30131591796875,0.014967515133321285,0.052550192922353745,-0.00011799775529652834
1733706839121336800,6.3113369140625,0.017210960388183594,0.05463464930653572,-0.0020538493990898132
1733706839131357000,6.32135693359375,0.012634288519620895,0.04521073400974274,0.003947990946471691
1733706839141377000,6.331376953125,0.011060893535614014,0.03386753425002098,0.007964037358760834
1733706839151396900,6.34139697265625,0.009875106625258923,0.026412786915898323,0.01299348846077919
1733706839161418000,6.35141796875,0.0038326603826135397,0.02158154547214508,0.01877121441066265
1733706839171438000,6.36143798828125,0.005169101990759373,0.026474516838788986,0.01930713653564453
1733706839181458000,6.3714580078125,0.0031629428267478943,0.02787320874631405,0.018657058477401733
1733706839191479000,6.38147900390625,0.004436998628079891,0.027652699500322342,0.017868496477603912
1733706839201499000,6.391498779296875,0.005491876974701881,0.02324197068810463,0.020171863958239555
1733706839211518700,6.401518798828125,0.004157884046435356,0.012039738707244396,0.028894668444991112
1733706839221538800,6.411538818359375,0.0038510875310748816,0.005748286843299866,0.032698459923267365
1733706839231560000,6.421559814453125,0.005532023496925831,-0.0011381467338651419,0.03802773728966713
1733706839241579800,6.431579833984375,0.007139774039387703,-0.01350267045199871,0.04246509447693825
1733706839251600000,6.441599853515625,0.004140566103160381,-0.009196111932396889,0.042197950184345245
1733706839261619700,6.45161962890625,0.00554671511054039,-0.005730539560317993,0.03802770748734474
1733706839271640800,6.461640869140625,0.0070075104013085365,-0.009408066980540752,0.029876815155148506
1733706839281660700,6.47166064453125,0.010597984306514263,-0.017165057361125946,0.028417935594916344
1733706839291680800,6.4816806640625,0.01286602858453989,-0.022184055298566818,0.03571707755327225
1733706839301702000,6.491701904296875,0.014606136828660965,-0.03212989866733551,0.04534387215971947
1733706839311721700,6.5017216796875,0.016184430569410324,-0.04689546301960945,0.05296393483877182
1733706839321741800,6.511741943359375,0.020034562796354294,-0.05008033663034439,0.05586970970034599
1733706839331762000,6.521761962890625,0.017145492136478424,-0.04092280566692352,0.055218733847141266
1733706839341782800,6.53178271484375,0.017858153209090233,-0.03868734836578369,0.05090254917740822
1733706839351803000,6.541802978515625,0.019379425793886185,-0.03865164890885353,0.04116613045334816
1733706839361822700,6.55182275390625,0.013979067094624043,-0.03954380750656128,0.03911256790161133
1733706839371843800,6.56184375,0.016034109517931938,-0.04736495390534401,0.0391167551279068
1733706839381864000,6.571864013671875,0.012652695178985596,-0.05841547250747681,0.04364572465419769
1733706839391883800,6.5818837890625,0.010182317346334457,-0.06882981956005096,0.04386371374130249
1733706839401903900,6.59190380859375,0.012093400582671165,-0.07396146655082703,0.0431465245783329
1733706839411924700,6.6019248046875,0.011791909113526344,-0.07078828662633896,0.048833854496479034
1733706839421944800,6.61194482421875,0.01311922911554575,-0.06551629304885864,0.05614982545375824
1733706839431965000,6.62196484375,0.013283878564834595,-0.0652492344379425,0.056447919458150864
1733706839441984800,6.63198486328125,0.014548879116773605,-0.06570969521999359,0.058337435126304626
1733706839452006000,6.642005859375,0.011735983192920685,-0.06601589918136597,0.06125297397375107
1733706839462026000,6.65202587890625,0.012163420207798481,-0.06379109621047974,0.06315100193023682
1733706839472045800,6.6620458984375,0.00965360552072525,-0.0679059773683548,0.05500601604580879
1733706839482067000,6.67206689453125,0.009586227126419544,-0.06641806662082672,0.046668458729982376
1733706839492086800,6.682086669921875,0.007631578948348761,-0.057193510234355927,0.04208069667220116
1733706839502107100,6.692107177734375,0.011084634810686111,-0.05060378462076187,0.03885401040315628
1733706839512127200,6.702127197265625,0.011912905611097813,-0.04420015960931778,0.0364018976688385
1733706839522148000,6.712148193359375,0.010256685316562653,-0.03890819102525711,0.03598484396934509
1733706839532168200,6.722168212890625,0.0065325587056577206,-0.0426359660923481,0.03610482066869736
1733706839542188300,6.732188232421875,0.0059687672182917595,-0.046949755400419235,0.03767448663711548
1733706839552208100,6.7422080078125,0.004101957194507122,-0.04237716272473335,0.03476480767130852
1733706839562229200,6.752229248046875,0.004375197924673557,-0.03854780271649361,0.0352628193795681
1733706839572249000,6.7622490234375,0.003107599914073944,-0.03731774911284447,0.034622419625520706
1733706839582269200,6.772269287109375,0.002209848491474986,-0.029103226959705353,0.039498403668403625
1733706839592290000,6.7822900390625,-0.00044500548392534256,-0.02725709229707718,0.03611909598112106
1733706839602310100,6.79231005859375,-0.00274624302983284,-0.02052462100982666,0.0361073799431324
1733706839612330200,6.802330322265625,-0.004792394116520882,-0.019301394000649452,0.03458647429943085
1733706839622350000,6.81235009765625,-0.006129301153123379,-0.013051753863692284,0.0357673205435276
1733706839632371200,6.82237109375,-0.0038983928970992565,-0.005611926782876253,0.03363427519798279
1733706839642391300,6.832391357421875,-0.01022180262953043,-0.0036166864447295666,0.032227326184511185
1733706839652411000,6.842410888671875,-0.010533444583415985,-0.004373589064925909,0.03033384121954441
1733706839662431000,6.852430908203125,-0.009618115611374378,-0.008136369287967682,0.030795367434620857
1733706839672452000,6.8624521484375,-0.012153616175055504,-0.008208280429244041,0.0315745584666729
1733706839682472000,6.872471923828125,-0.015156595036387444,0.00330642843618989,0.027597125619649887
1733706839692492000,6.882491943359375,-0.00836644321680069,0.01911451667547226,0.01681765355169773
1733706839702513000,6.892512939453125,-0.004407388158142567,0.021178200840950012,0.010979738086462021
1733706839712533000,6.902532958984375,-0.005850149318575859,0.019820474088191986,0.015744855627417564
1733706839722553000,6.912552978515625,-0.0034463803749531507,0.026620589196681976,0.01770946942269802
1733706839732573000,6.922572998046875,-0.0038383451756089926,0.03167237341403961,0.010679768398404121
1733706839742594000,6.932593994140625,-0.005190165713429451,0.03959900885820389,0.006755334325134754
1733706839752614100,6.9426142578125,-0.007980892434716225,0.05213077738881111,0.002257254905998707
1733706839762634000,6.952634033203125,-0.00796768069267273,0.05148622766137123,0.0003291681641712785
1733706839772654000,6.962654052734375,-0.010252650827169418,0.043887943029403687,0.006217536516487598
1733706839782675000,6.972675048828125,-0.016381382942199707,0.04406903684139252,0.010606159456074238
1733706839792695000,6.982695068359375,-0.0177001953125,0.04703269153833389,0.007645944599062204
1733706839802715100,6.992715087890625,-0.012291846796870232,0.04768303781747818,0.00027751014567911625
1733706839812736000,7.002736083984375,-0.012088957242667675,0.05020855367183685,-0.0005365891847759485
1733706839822756000,7.012756103515625,-0.010896394029259682,0.04867537319660187,0.0022464143112301826
1733706839832776200,7.022776123046875,-0.014254478737711906,0.04538257420063019,0.008538972586393356
1733706839842796000,7.032796142578125,-0.015950912609696388,0.044287748634815216,0.013619484379887581
1733706839852817200,7.042817138671875,-0.014456411823630333,0.044843342155218124,0.010806563310325146
1733706839862837000,7.0528369140625,-0.015591184608638287,0.0470561608672142,0.006168135441839695
1733706839872857000,7.062857177734375,-0.012760119512677193,0.04734493046998978,0.0016896738670766354
1733706839882877200,7.072877197265625,-0.009836767800152302,0.045706819742918015,0.004005292430520058
1733706839892898000,7.08289794921875,-0.0094071626663208,0.046438246965408325,0.0047572338953614235
1733706839902918100,7.092918212890625,-0.010740607976913452,0.045648619532585144,0.004345242865383625
1733706839912938200,7.102938232421875,-0.008114932104945183,0.043272752314805984,-0.002710444387048483
1733706839922959000,7.112958984375,-0.00554018747061491,0.04939562827348709,-0.008389635942876339
1733706839932979200,7.122979248046875,-0.004572770558297634,0.05319632217288017,-0.00786345824599266
1733706839942999000,7.1329990234375,-0.004545073956251144,0.04991796985268593,-0.013461156748235226
1733706839953019100,7.14301904296875,-0.004790722392499447,0.04032280296087265,-0.011587314307689667
1733706839963040000,7.1530400390625,-0.004616018384695053,0.032158348709344864,-0.004026866517961025
1733706839973060000,7.16306005859375,-0.007969195954501629,0.025798525661230087,-0.0033243168145418167
1733706839983080200,7.173080078125,-0.008449098095297813,0.018503595143556595,-0.007290029898285866
1733706839993101000,7.18310107421875,-0.006009768694639206,0.02149401232600212,-0.006935641169548035
1733706840003121200,7.19312109375,-0.0064409347251057625,0.02617505006492138,-0.0019147833809256554
1733706840013141200,7.203141357421875,-0.003981291316449642,0.022573092952370644,0.003960703499615192
1733706840023161000,7.2131611328125,-0.006890794262290001,0.023058587685227394,0.0037023769691586494
1733706840033182200,7.22318212890625,-0.00848140474408865,0.020985309034585953,0.0063377926126122475
1733706840043202000,7.2332021484375,-0.010668392293155193,0.013066133484244347,0.004527907818555832
1733706840053222100,7.24322216796875,-0.011759087443351746,0.007958043366670609,0.0036893640644848347
1733706840063242200,7.2532421875,-0.01401079073548317,0.012397797778248787,0.003879513591527939
1733706840073263000,7.26326318359375,-0.017288751900196075,0.01210013497620821,0.0044935476034879684
1733706840083283200,7.273283203125,-0.01557048037648201,0.010896386578679085,0.004387287423014641
1733706840093303300,7.28330322265625,-0.01547713577747345,0.009815258905291557,0.005699509754776955
1733706840103324200,7.29332421875,-0.011478133499622345,0.004627421032637358,0.007550406735390425
1733706840113344300,7.30334423828125,-0.007631782442331314,0.0021461211144924164,0.004774081986397505
1733706840123364000,7.313364013671875,-0.006604600697755814,0.004628986120223999,0.007095293141901493
1733706840133384000,7.323384033203125,-0.00591442734003067,0.009000591933727264,0.002448006998747587
1733706840143405300,7.3334052734375,-0.00398656539618969,0.010321252048015594,-0.0026476853527128696
1733706840153425000,7.3434248046875,-0.004097256809473038,0.008761165663599968,-0.0035995482467114925
1733706840163445000,7.353445068359375,-0.004747600760310888,0.0025906218215823174,-0.007592425681650639
1733706840173465000,7.363465087890625,-0.0032753311097621918,0.003039910923689604,-0.01093725673854351
1733706840183486000,7.37348583984375,-0.004837541375309229,0.0023421626538038254,-0.011554045602679253
1733706840193506000,7.383506103515625,-0.006600383669137955,-0.00007811211980879307,-0.00918591395020485
1733706840203526100,7.393526123046875,-0.003645074088126421,0.0013155199121683836,-0.006539264693856239
1733706840213546000,7.4035458984375,-0.006972863804548979,0.009069306775927544,-0.005137425381690264
1733706840223567000,7.413567138671875,-0.00684769544750452,0.007114546839147806,-0.003647653153166175
1733706840233587000,7.4235869140625,-0.0076193311251699924,0.0019898521713912487,-0.001642096322029829
1733706840243607000,7.43360693359375,-0.009643333032727242,0.0006521465256810188,-0.0000961313780862838
1733706840253628000,7.4436279296875,-0.011730579659342766,0.003454811405390501,-0.0005851652240380645
1733706840263648000,7.45364794921875,-0.012639516033232212,0.009702321141958237,-0.004612663760781288
1733706840273668000,7.463668212890625,-0.011144599877297878,0.009192943572998047,-0.005669033154845238
1733706840283688200,7.473688232421875,-0.010606109164655209,0.0036996412090957165,-0.011961016803979874
1733706840293709000,7.483708984375,-0.009427063167095184,0.005124106537550688,-0.012349482625722885
1733706840303729200,7.493729248046875,-0.010347452014684677,0.01617462746798992,-0.008958213962614536
1733706840313749000,7.5037490234375,-0.004617542028427124,0.02253076806664467,-0.012725451961159706
1733706840323769000,7.51376904296875,-0.007865799590945244,0.030440088361501694,-0.013842914253473282
1733706840333790000,7.5237900390625,-0.0074244095012545586,0.03936946764588356,-0.01699187606573105
1733706840343810000,7.53381005859375,-0.005132758989930153,0.038197677582502365,-0.018112268298864365
1733706840353830100,7.543830078125,-0.008209849707782269,0.034647136926651,-0.017748577520251274
1733706840363851000,7.55385107421875,-0.008461784571409225,0.03415658324956894,-0.018300652503967285
1733706840373871000,7.56387109375,-0.008963769301772118,0.02899642288684845,-0.017685875296592712
1733706840383891200,7.57389111328125,-0.010142750106751919,0.02785872109234333,-0.019125312566757202
1733706840393911000,7.5839111328125,-0.011649500578641891,0.034607112407684326,-0.01344443392008543
1733706840403932200,7.59393212890625,-0.013178421184420586,0.03895232453942299,-0.014349643141031265
1733706840413952000,7.603951904296875,-0.011462708935141563,0.03679363429546356,-0.01689193770289421
1733706840423972000,7.61397216796875,-0.009468534030020237,0.03569348156452179,-0.01604798249900341
1733706840433992200,7.6239921875,-0.010170181281864643,0.03665540739893913,-0.018530897796154022
1733706840444013000,7.634012939453125,-0.006732306443154812,0.031668905168771744,-0.01671648398041725
1733706840454033200,7.644033203125,-0.004454866982996464,0.030915504321455956,-0.018909549340605736
1733706840464053200,7.65405322265625,-0.010159358382225037,0.038683414459228516,-0.018611008301377296
1733706840474074000,7.66407421875,-0.010242587886750698,0.043359968811273575,-0.01867830753326416
1733706840484094200,7.67409423828125,-0.007510717026889324,0.03599978983402252,-0.01988392136991024
1733706840494114000,7.684114013671875,-0.007420776411890984,0.024838736280798912,-0.02031784877181053
1733706840504134400,7.694134521484375,-0.007649010047316551,0.02855491079390049,-0.02156607247889042
1733706840514155300,7.7041552734375,-0.006608596071600914,0.03014579601585865,-0.022935843095183372
1733706840524175400,7.71417529296875,-0.003865273669362068,0.029764434322714806,-0.02485251985490322
1733706840534195500,7.724195556640625,-0.003998497501015663,0.032736845314502716,-0.02711709588766098
1733706840544215600,7.734215576171875,-0.0035225902684032917,0.032856155186891556,-0.02326030656695366
1733706840554236400,7.744236328125,-0.001213393989019096,0.033143721520900726,-0.023510504513978958
1733706840564256500,7.754256591796875,-0.0011337654432281852,0.03514402359724045,-0.0209307000041008
1733706840574276400,7.7642763671875,-0.0057199206203222275,0.027522604912519455,-0.01990368589758873
1733706840584297500,7.77429736328125,-0.005932973697781563,0.012061355635523796,-0.02033538557589054
1733706840594317300,7.7843173828125,-0.008551053702831268,0.014076583087444305,-0.019018886610865593
1733706840604337400,7.79433740234375,-0.010331109166145325,0.019493985921144485,-0.017055602744221687
1733706840614357500,7.804357421875,-0.00897772517055273,0.018803805112838745,-0.01614263467490673
1733706840624378400,7.81437841796875,-0.005649573169648647,0.01726929284632206,-0.016043297946453094
1733706840634398500,7.8243984375,-0.0060792770236730576,0.02029559016227722,-0.015157883986830711
1733706840644418600,7.83441845703125,-0.0035127890296280384,0.02382907085120678,-0.01756298542022705
1733706840654438400,7.8444384765625,-0.006761346943676472,0.022645410150289536,-0.018019678071141243
1733706840664459500,7.85445947265625,-0.006313935853540897,0.01966293528676033,-0.019056979566812515
1733706840674479400,7.864479248046875,-0.005900090094655752,0.02123252861201763,-0.023345477879047394
1733706840684499500,7.87449951171875,-0.0020547518506646156,0.028050487861037254,-0.023050133138895035
1733706840694519600,7.88451953125,-0.000488014193251729,0.02741425856947899,-0.021715089678764343
1733706840704540400,7.89454052734375,-0.0011759087210521102,0.02801773138344288,-0.02367677539587021
1733706840714560500,7.904560546875,0.0006343161221593618,0.020759297534823418,-0.020597262308001518
1733706840724580600,7.91458056640625,0.002724631456658244,0.01794060878455639,-0.021963730454444885
1733706840734601500,7.9246015625,-0.0008422146202065051,0.014457447454333305,-0.02416226826608181
1733706840744621600,7.93462158203125,-0.00039506988832727075,0.018986418843269348,-0.02189032733440399
1733706840754641400,7.944641357421875,-0.004617415834218264,0.019964326173067093,-0.022763093933463097
1733706840764661500,7.95466162109375,-0.007307741325348616,0.017285984009504318,-0.02439907379448414
1733706840774682600,7.9646826171875,0.0018734633922576904,0.014655353501439095,-0.020282329991459846
1733706840784702500,7.974702392578125,-0.0013151392340660095,0.009296541102230549,-0.015955492854118347
1733706840794722600,7.98472265625,-0.0009782062843441963,0.0017658807337284088,-0.015176014974713326
1733706840804742700,7.99474267578125,-0.0013598372461274266,-0.0011004797415807843,-0.01273762434720993
1733706840814763500,8.004763427734375,-0.0036893258802592754,-0.004711706656962633,-0.016259239986538887
1733706840824783600,8.01478369140625,-0.003922885283827782,0.005573687609285116,-0.01928272657096386
1733706840834803500,8.024803466796875,-0.003547593019902706,0.00996527448296547,-0.022417820990085602
1733706840844824600,8.034824462890626,-0.0029169563204050064,0.014860695227980614,-0.021483050659298897
1733706840854844700,8.0448447265625,0.0010763048194348812,0.011164735071361065,-0.019991612061858177
1733706840864864300,8.0548642578125,-0.00010001333430409431,0.00876016728579998,-0.01910637691617012
1733706840874884400,8.06488427734375,-0.000798603636212647,0.002009626477956772,-0.015172326937317848
1733706840884905500,8.074905517578125,0.00008290272671729326,0.007576165720820427,-0.012701712548732758
1733706840894925300,8.08492529296875,0.0010987408459186554,0.01192154549062252,-0.017813589423894882
1733706840904945400,8.0949453125,0.0009980732575058937,0.019298501312732697,-0.01604897901415825
1733706840914965500,8.104965576171875,-0.002233557403087616,0.016138801351189613,-0.015461781993508339
1733706840924986400,8.114986328125,-0.006172106135636568,0.022951699793338776,-0.015075091272592545
1733706840935006500,8.12500634765625,-0.003357901470735669,0.0251101516187191,-0.019016332924365997
1733706840945026300,8.1350263671875,-0.0028076923917979,0.02342090755701065,-0.023399362340569496
1733706840955046400,8.14504638671875,-0.003232423448935151,0.02121656946837902,-0.022789528593420982
1733706840965067300,8.1550673828125,-0.002184735843911767,0.016381867229938507,-0.015543600544333458
1733706840975087400,8.16508740234375,-0.004133126232773066,0.012997277081012726,-0.015297908335924149
1733706840985107500,8.175107421875,-0.004272942431271076,0.007824884727597237,-0.010379582643508911
1733706840995128300,8.18512841796875,-0.006681322120130062,0.0005383898969739676,-0.011232700198888779
1733706841005148400,8.1951484375,-0.002217864152044058,0.0017892769537866116,-0.013487332500517368
1733706841015168500,8.20516845703125,-0.005893955007195473,0.009321615099906921,-0.011812916956841946
1733706841025188400,8.215188232421875,-0.0021173262502998114,0.012780794873833656,-0.010786001570522785
1733706841035209500,8.22520947265625,-0.0026794765144586563,0.009950612671673298,-0.010111718438565731
1733706841045229300,8.235229248046876,0.001890774117782712,0.001470309216529131,-0.014821251854300499
1733706841055249400,8.24524951171875,0.002457773545756936,0.00529664708301425,-0.012729494832456112
1733706841065269500,8.25526953125,0.004541963338851929,-0.0015431492356583476,-0.012575031258165836
1733706841075290400,8.265290283203125,0.005418333224952221,-0.00479125464335084,-0.018197696655988693
1733706841085310500,8.275310546875,0.005790109746158123,-0.004625872243195772,-0.022374331951141357
1733706841095330600,8.28533056640625,0.005681783892214298,-0.004018199630081654,-0.01860906556248665
1733706841105350400,8.295350341796874,0.0070019131526350975,-0.007727982942014933,-0.015103014186024666
1733706841115371500,8.30537158203125,0.006528690457344055,-0.003878403455018997,-0.018732251599431038
1733706841125391400,8.315391357421875,0.006553990766406059,0.0018604421056807041,-0.020321359857916832
1733706841135411500,8.325411376953125,0.0047997767105698586,-0.004916962236166,-0.01691756397485733
1733706841145432600,8.3354326171875,0.005165694281458855,-0.018185896798968315,-0.007912085391581059
1733706841155452400,8.345452392578125,0.0016317875124514103,-0.01792447455227375,-0.013403995893895626
1733706841165472500,8.355472412109375,-0.001261204364709556,-0.011195464059710503,-0.011210350319743156
1733706841175492600,8.36549267578125,-0.00472139660269022,-0.009069429710507393,-0.005835845600813627
1733706841185513500,8.375513427734376,-0.0019386596977710724,-0.009426826611161232,-0.0059996298514306545
1733706841195533600,8.385533447265624,-0.001946094911545515,-0.008386615663766861,-0.008527916856110096
1733706841205553400,8.395553466796875,-0.003418556647375226,-0.010720610618591309,-0.006886343937367201
1733706841215573500,8.405573486328125,-0.002392750233411789,-0.008756488561630249,-0.010118858888745308
1733706841225594600,8.4155947265625,0.00020676117856055498,-0.006811049301177263,-0.00919554103165865
1733706841235614500,8.425614501953126,0.0037108524702489376,-0.006662172265350819,-0.007783484645187855
1733706841245634600,8.435634521484374,0.005206217523664236,-0.0015944431070238352,-0.011380350217223167
1733706841255655400,8.445655517578125,0.0033771370071917772,0.00509597035124898,-0.013066781684756279
1733706841265675500,8.455675537109375,0.0048530614003539085,0.008754088543355465,-0.018329454585909843
1733706841275695600,8.465695556640625,0.003949162550270557,0.0005371915176510811,-0.019884325563907623
1733706841285715500,8.475715576171876,0.0026471433229744434,0.0010051089338958263,-0.017502393573522568
1733706841295736600,8.485736572265624,0.003542828606441617,0.0006042427849024534,-0.01540133822709322
1733706841305756700,8.495756591796875,0.0059876106679439545,-0.0013925954699516296,-0.01777528040111065
1733706841315776300,8.5057763671875,0.0055992575362324715,-0.0053803520277142525,-0.012683671899139881
1733706841325796400,8.51579638671875,0.002889490919187665,-0.0007890625856816769,-0.012807774357497692
1733706841335817500,8.5258173828125,0.0051002767868340015,0.0006375857628881931,-0.01631813682615757
1733706841345837300,8.53583740234375,0.0050424858927726746,0.0021579843014478683,-0.017324810847640038
1733706841355857400,8.545857421875,0.0020583397708833218,0.004533244296908379,-0.018156616017222404
1733706841365877500,8.55587744140625,0.0011275650467723608,-0.004017633385956287,-0.012942146509885788
1733706841375898400,8.5658984375,-0.0005378269124776125,-0.0074434964917600155,-0.008487013168632984
1733706841385918500,8.57591845703125,-0.0008416936034336686,-0.006850677076727152,-0.009638830088078976
1733706841395938300,8.585938232421874,-0.00020569830667227507,-0.0028209935408085585,-0.015477947890758514
1733706841405959400,8.59595947265625,0.001964245457202196,0.0005985053721815348,-0.018060680478811264
1733706841415979300,8.605979248046875,0.0027477473486214876,-0.005762721411883831,-0.015099512413144112
1733706841425999400,8.615999267578125,0.0030992848332971334,-0.002714467002078891,-0.016680896282196045
1733706841436019500,8.62601953125,0.004098874982446432,0.010461688041687012,-0.017424393445253372
1733706841446040300,8.636040283203124,0.005836055148392916,0.02416658028960228,-0.02234857901930809
1733706841456060400,8.646060302734375,0.005837439559400082,0.029022356495261192,-0.023076973855495453
1733706841466080500,8.65608056640625,-0.00019595178309828043,0.03778442367911339,-0.030013175681233406
1733706841476100400,8.666100341796875,0.0025626367423683405,0.03543490171432495,-0.033513691276311874
1733706841486121500,8.67612158203125,0.0007964284159243107,0.032320600003004074,-0.028338639065623283
1733706841496141000,8.68614111328125,0.0020849714055657387,0.031059660017490387,-0.018654892221093178
1733706841506160600,8.69616064453125,-0.0003440977307036519,0.01891697756946087,-0.015561099164187908
1733706841516180700,8.7061806640625,0.0026381632778793573,0.012802394106984138,-0.015312112867832184
1733706841526201600,8.71620166015625,0.00366933923214674,0.005637158174067736,-0.012741629965603352
1733706841536221700,8.7262216796875,0.005512278992682695,0.006214586086571217,-0.0071222297847270966
1733706841546241800,8.73624169921875,0.005600163247436285,0.020594589412212372,-0.011100992560386658
1733706841556262700,8.7462626953125,0.007523924112319946,0.02879173308610916,-0.01433270052075386
1733706841566282800,8.75628271484375,0.005844268016517162,0.02770809270441532,-0.016480805352330208
1733706841576302800,8.766302734375,0.008523674681782722,0.01968665048480034,-0.019100824370980263
1733706841586322700,8.77632275390625,0.004344642162322998,0.022633971646428108,-0.01769067905843258
1733706841596343800,8.78634375,0.0029963694978505373,0.02383391186594963,-0.01615809090435505
1733706841606363600,8.79636376953125,0.005389486439526081,0.02755434811115265,-0.019565870985388756
1733706841616383700,8.8063837890625,0.0053649949841201305,0.025890743359923363,-0.024304157122969627
1733706841626403800,8.81640380859375,0.0019015539437532425,0.024622280150651932,-0.01859780214726925
1733706841636424700,8.8264248046875,0.0010866695083677769,0.023039525374770164,-0.022129982709884644
1733706841646444800,8.83644482421875,0.00604148069396615,0.023285867646336555,-0.026534052565693855
1733706841656465000,8.84646484375,0.0037198434583842754,0.025715801864862442,-0.02093852311372757
1733706841666484700,8.856484619140625,0.002822358161211014,0.026271604001522064,-0.01823221892118454
1733706841676505900,8.866505859375,0.002734868787229061,0.02696470357477665,-0.019202230498194695
1733706841686525700,8.876525634765626,0.00274472264572978,0.021390974521636963,-0.012966172769665718
1733706841696545800,8.8865458984375,-0.00042969099013134837,0.01749052107334137,-0.009563353843986988
1733706841706567000,8.89656689453125,-0.00016177701763808727,0.007231758441776037,-0.008577185682952404
1733706841716586800,8.906586669921875,-0.001693638856522739,0.0006751499604433775,-0.005257929675281048
1733706841726606800,8.91660693359375,-0.0031538500916212797,0.006525049917399883,-0.0069016325287520885
1733706841736627000,8.926626953125,-0.0031773699447512627,0.009776318445801735,-0.0027763349935412407
1733706841746647800,8.936647705078125,-0.00280079897493124,0.002913353033363819,-0.0038828784599900246
1733706841756668000,8.94666796875,-0.001372802653349936,-0.005204856861382723,-0.0048942407593131065
1733706841766687700,8.956687744140625,-0.001170668751001358,0.001327078090980649,-0.005082526244223118
1733706841776707800,8.966707763671875,-0.0015054279938340187,0.006375366356223822,-0.005187720991671085
1733706841786729000,8.97672900390625,-0.0022987837437540293,-0.008868034929037094,-0.0030052606016397476
1733706841796748800,8.986748779296875,0.00032437697518616915,-0.01482236385345459,-0.003537873039022088
1733706841806769000,8.996768798828125,-0.0034003201872110367,-0.007281889673322439,-0.0038641104474663734
1733706841816789000,9.0067890625,-0.002665082924067974,-0.004447326064109802,0.0021530480589717627
1733706841826809900,9.016809814453126,0.0016774674877524376,-0.004923766013234854,-0.000586545851547271
1733706841836830000,9.026829833984374,0.0026634843088686466,-0.011058485135436058,-0.007250605616718531
1733706841846849800,9.036849853515625,0.0029811994172632694,-0.00605840003117919,-0.0032547989394515753
1733706841856870000,9.046869873046875,0.002909997245296836,0.0023380210623145103,-0.002750612795352936
1733706841866891000,9.05689111328125,0.002273501828312874,0.0025055338628590107,-0.005850266199558973
1733706841876910800,9.066910888671876,0.00022746052127331495,-0.005653216503560543,-0.006627116817981005
1733706841886931000,9.076930908203124,-0.00247724587097764,-0.008260983973741531,-0.007033515255898237
1733706841896951800,9.086951904296875,-0.0033605536445975304,0.0014155495446175337,-0.0022706317249685526
1733706841906972000,9.096971923828125,-0.004573090933263302,0.0062124356627464294,-0.00952774565666914
1733706841916992000,9.106991943359375,-0.002772368025034666,0.0028914054855704308,-0.004634414799511433
1733706841927011800,9.11701171875,-0.0023505231365561485,0.00009242328815162182,-0.0041734217666089535
1733706841937033000,9.127032958984374,-0.003012265544384718,-0.0020732253324240446,-0.0003241081431042403
1733706841947053000,9.137052978515625,-0.003495363052934408,-0.0005443046102300286,-0.0005704505601897836
1733706841957072600,9.14707275390625,-0.00019955204334110022,0.003732492681592703,-0.0044313035905361176
1733706841967092700,9.1570927734375,-0.0007082157535478473,0.005452362354844809,-0.0032240927685052156
1733706841977113600,9.167113525390626,0.003273114562034607,0.004288301337510347,-0.005717028398066759
1733706841987133700,9.1771337890625,0.002686952706426382,-0.0006084528286010027,-0.006756992544978857
1733706841997153800,9.18715380859375,0.001896227477118373,0.004921813029795885,-0.007277503609657288
1733706842007174000,9.197173828125,0.005008930340409279,0.01389586552977562,-0.005989864934235811
1733706842017194800,9.20719482421875,0.001940287183970213,0.01467321626842022,-0.010894007980823517
1733706842027214800,9.21721484375,0.0034284614957869053,0.018198709934949875,-0.011684966273605824
1733706842037234700,9.227234619140624,0.003055459586903453,0.006068877410143614,-0.00641887029632926
1733706842047255800,9.237255859375,0.0033726419787853956,0.001264801248908043,-0.0075688231736421585
1733706842057275600,9.247275634765625,0.0006909134099259973,-0.0030234071891754866,-0.006260845810174942
1733706842067295700,9.257295654296875,0.00007279368583112955,0.0011199386790394783,-0.00465336162596941
1733706842077315800,9.26731591796875,-0.0013066490646451712,0.007119521964341402,-0.004786953330039978
1733706842087336700,9.277336669921874,-0.0010437950259074569,0.009854588657617569,-0.004006380680948496
1733706842097356800,9.287356689453125,-0.0020630406215786934,0.005300015676766634,0.004892590455710888
1733706842107377000,9.297376953125,-0.002775968750938773,0.006431592628359795,0.006476638838648796
1733706842117396700,9.307396728515625,-0.0032043755054473877,0.004963119048625231,0.003655236680060625
1733706842127417900,9.31741796875,-0.005576186813414097,0.0009617195464670658,0.004582283087074757
1733706842137437700,9.327437744140624,-0.004000809974968433,-0.004398185759782791,0.002512809121981263
1733706842147457800,9.337457763671875,-0.00402770796790719,-0.004393924493342638,-0.0019165603443980217
1733706842157478000,9.347477783203125,-0.0020382730290293694,-0.006158234551548958,-0.0011133701773360372
1733706842167498800,9.357498779296876,0.00008027150761336088,-0.003423168323934078,-0.0020452102180570364
1733706842177518800,9.367518798828126,0.0020464833360165358,-0.0006007500924170017,-0.004871889483183622
1733706842187539000,9.3775390625,0.0023295774590224028,-0.001024192781187594,0.00023738510208204389
1733706842197559800,9.387559814453125,0.003430932993069291,0.005282391328364611,-0.004008838441222906
1733706842207580000,9.397579833984375,0.0015350286848843098,0.01073761098086834,-0.003544649574905634
1733706842217599700,9.407599853515626,0.004302276764065027,0.0015478814020752907,-0.005117482505738735
1733706842227619800,9.417619873046876,0.002153638284653425,-0.00015627546235919,-0.004295630846172571
1733706842237641000,9.427640869140625,0.00120251695625484,0.0009435429237782955,-0.0085989935323596
1733706842247660800,9.437660888671875,0.0019761654548346996,0.004582486115396023,-0.01091194897890091
1733706842257681000,9.447680908203125,0.003479958511888981,0.007803490851074457,-0.009500518441200256
1733706842267701000,9.457700927734376,0.0005163927562534809,0.007171523291617632,-0.005675953347235918
1733706842277721900,9.467721923828124,-0.00022517179604619741,0.0007268150802701712,-0.003064284101128578
1733706842287742000,9.477741943359375,-0.002303236396983266,-0.005767569411545992,0.0053411852568387985
1733706842297761800,9.48776171875,-0.0017719570314511657,-0.007519110105931759,0.004818554501980543
1733706842307782000,9.497781982421875,-0.003361597890034318,-0.009261349216103554,0.004159688483923674
1733706842317803000,9.507802978515626,-0.00020948040764778852,-0.004808011930435896,0.003028644248843193
1733706842327822800,9.51782275390625,0.0018155337311327457,-0.0016529990825802088,-0.0009250654838979244
1733706842337843000,9.527843017578125,0.0005816490156576037,0.005551691632717848,-0.0013807021314278245
1733706842347863000,9.537863037109375,-0.00038561102701351047,0.006216150242835283,-0.002577793085947633
1733706842357884000,9.5478837890625,-0.002220507711172104,0.004451252985745668,-0.0027302741073071957
1733706842367904000,9.557904052734376,-0.0016138397622853518,-0.00011233985424041748,0.0019683409482240677
1733706842377923800,9.567923828125,0.001058003632351756,-0.0032599973492324352,0.002335097175091505
1733706842387943700,9.577943603515624,-0.0008336397586390376,-0.003057597205042839,-0.0021874827798455954
1733706842397965000,9.587965087890625,0.0011859529186040163,0.005998624954372644,-0.0027851234190165997
1733706842407984600,9.597984619140625,0.0028935717418789864,0.008884426206350327,-0.008844081312417984
1733706842418004700,9.608004638671876,0.0032127893064171076,0.008572311140596867,-0.007096997927874327
1733706842428025600,9.618025634765624,0.0021496552508324385,0.0021844524890184402,-0.0018332600593566895
1733706842438045700,9.628045654296875,0.0015695649199187756,-0.009889289736747742,0.006456912960857153
1733706842448065800,9.638065673828125,0.0005554331000894308,-0.011815553531050682,0.007232691626995802
1733706842458086000,9.6480859375,0.0009115186985582113,-0.0032620334532111883,0.002346973866224289
1733706842468106800,9.658106689453126,-0.002304514404386282,-0.0007805000059306622,0.0011424261610955
1733706842478126800,9.668126953125,0.00025012774858623743,0.0012988487724214792,0.002330116229131818
1733706842488146700,9.678146728515625,0.0017108714673668146,0.005533008370548487,0.0006251605809666216
1733706842498166800,9.688166748046875,0.001937443157657981,0.003228902816772461,0.0031353686936199665
1733706842508187600,9.698187744140625,0.00033288856502622366,-0.0046623097732663155,0.006734097842127085
1733706842518207700,9.708207763671876,-0.0016202102415263653,-0.008980154059827328,0.0035333323758095503
1733706842528227800,9.718227783203124,-0.0005355047760531306,-0.007687189616262913,-0.003557600313797593
1733706842538248000,9.728248046875,0.0012082161847501993,-0.00334567716345191,-0.006569437682628632
1733706842548268800,9.738268798828125,0.0033853501081466675,-0.0021163620986044407,-0.004747036844491959
1733706842558289000,9.748288818359375,0.0023671279195696115,0.0072678253054618835,-0.0059081255458295345
1733706842568308700,9.758308837890626,0.00522443326190114,0.008677969686686993,-0.0012625071685761213
1733706842578328600,9.76832861328125,0.003759324084967375,0.0074564809910953045,0.005088543985038996
1733706842588349700,9.778349609375,0.0021837980020791292,-0.0016541928052902222,0.008567431010305882
1733706842598369500,9.78836962890625,0.0006441914010792971,-0.0017730256076902151,0.0023703910410404205
1733706842608389600,9.7983896484375,-0.0007699471898376942,-0.0027530689258128405,0.0026878397911787033
1733706842618410800,9.80841064453125,-0.0014350134879350662,0.0018155700527131557,0.002938344143331051
1733706842628430600,9.8184306640625,-0.0034227969590574503,0.008615419268608093,0.0008624101174063981
1733706842638450700,9.82845068359375,-0.0029770908877253532,0.004326862748712301,-0.0027911425568163395
1733706842648470500,9.838470458984375,-0.0017680157907307148,0.004820346366614103,-0.0014931177720427513
1733706842658491600,9.84849169921875,-0.0006119374884292483,0.0010580988600850105,0.0011761686764657497
1733706842668511700,9.85851171875,-0.0012484330218285322,-0.004746260587126017,0.007974952459335327
1733706842678531600,9.868531494140624,-0.0003852700465358794,-0.007976886816322803,0.0066253915429115295
1733706842688551700,9.8785517578125,0.003511201124638319,-0.014558357186615467,0.0048200348392128944
1733706842698572500,9.888572509765625,-0.0004103531828150153,-0.006620931904762983,0.00459918612614274
1733706842708592600,9.898592529296875,0.0030847794841974974,-0.0024858417455106974,0.0027895686216652393
1733706842718612700,9.90861279296875,0.0033635124564170837,0.001178767066448927,-0.0003810503694694489
1733706842728632600,9.918632568359374,0.0014409765135496855,-0.0030388811137527227,-0.004174456931650639
1733706842738653700,9.92865380859375,0.00246506929397583,-0.0060692233964800835,-0.00179842219222337
1733706842748673800,9.938673828125,0.001663990318775177,-0.005554167553782463,0.0012287929421290755
1733706842758693600,9.948693603515625,0.0009076416026800871,-0.011725511401891708,0.007209986448287964
1733706842768713700,9.958713623046876,0.0016370813827961683,-0.013737529516220093,0.007043804973363876
1733706842778734600,9.968734619140625,0.0031512128189206123,-0.017817867919802666,0.006584950257092714
1733706842788754700,9.978754638671875,0.0028217798098921776,-0.012558124959468842,0.005525811109691858
1733706842798774800,9.98877490234375,0.004420995246618986,-0.004768098704516888,0.0012938803993165493
1733706842808794600,9.998794677734375,0.003679304849356413,-0.0060663893818855286,0.0027543578762561083
1733706842818815700,10.008815673828124,0.002576498780399561,-0.008652783930301666,0.0023311434779316187
1733706842828835800,10.0188359375,-0.0017170493956655264,-0.006792565807700157,0.0015569624956697226
1733706842838855700,10.028855712890625,-0.002760987263172865,-0.005823904182761908,-0.0023957379162311554
1733706842848876800,10.038876708984375,-0.0016453892458230257,-0.00013219635002315044,0.0016509353881701827
1733706842858896600,10.048896728515626,-0.0010559054790064692,0.003336193971335888,0.004432080779224634
1733706842868916700,10.058916748046874,-0.002378431148827076,-0.00047745276242494583,0.009638294577598572
1733706842878936800,10.068936767578125,0.0005382640520110726,-0.003204706124961376,0.00861441995948553
1733706842888957700,10.078957763671875,0.0010261550778523088,-0.0013993491884320974,0.008695646189153194
1733706842898977800,10.088977783203125,0.0014592999359592795,0.0010310166981071234,0.003938726149499416
1733706842908998000,10.098997802734376,0.0017450571758672595,-0.0018997921142727137,0.006490567233413458
1733706842919017700,10.109017822265624,0.003686523297801614,-0.0009506894275546074,0.00007546489359810948
1733706842929038800,10.119038818359375,0.00428919680416584,0.0012333688791841269,-0.0030271178111433983
1733706842939058700,10.12905859375,0.005620733834803104,-0.005596826784312725,-0.005896308459341526
1733706842949078800,10.139078857421875,0.004355732351541519,-0.006897514685988426,-0.0006829044432379305
1733706842959099000,10.149098876953126,0.0014346289681270719,-0.00440131314098835,-0.0019536162726581097
1733706842969119700,10.15911962890625,0.004446131642907858,-0.008924160152673721,0.001469344599172473
1733706842979139800,10.169139892578125,0.0028172540478408337,-0.0010989586589857936,0.004756199661642313
1733706842989160000,10.179159912109375,0.0033224555663764477,0.0010094658937305212,0.0036017191596329212
1733706842999179500,10.189179443359375,0.00042374187614768744,-0.005354710854589939,0.0053062597289681435
1733706843009201000,10.199200927734376,0.0004780703457072377,-0.010092740878462791,-0.0009918499272316694
1733706843019220700,10.209220703125,0.0010343148605898023,-0.007773092482239008,0.0015482548624277115
1733706843029240600,10.219240478515625,-0.0027084918692708015,-0.006082518026232719,0.007877789437770844
1733706843039260700,10.2292607421875,0.0010377776343375444,-0.004451570101082325,0.01112411543726921
1733706843049281800,10.23928173828125,0.000060663907788693905,-0.00669155502691865,0.01130174845457077
1733706843059301600,10.249301513671876,-0.002554581966251135,-0.012475989758968353,0.012005274184048176
1733706843069321700,10.25932177734375,-0.0017806674586609006,-0.017710965126752853,0.012987447902560234
1733706843079341600,10.269341552734375,-0.000012065982446074486,-0.023228207603096962,0.007932433858513832
1733706843089362700,10.27936279296875,0.0006079179001972079,-0.023502513766288757,0.0021139599848538637
1733706843099382500,10.289382568359375,0.0017879633232951164,-0.01611948013305664,0.004453199915587902
1733706843109402600,10.299402587890626,-0.0007910419371910393,-0.010815263725817204,0.013151349499821663
1733706843119423700,10.309423828125,-0.002727936487644911,-0.009064928628504276,0.009361617267131805
1733706843129443600,10.319443603515625,0.0030545853078365326,-0.005808948073536158,-0.0008233754197135568
1733706843139463700,10.329463623046875,0.0025057937018573284,-0.006909709889441729,-0.0003805056621786207
1733706843149483800,10.33948388671875,0.0021278909407556057,-0.014460037462413311,0.005967671517282724
1733706843159504600,10.349504638671876,0.004536357708275318,-0.017600402235984802,0.005824908148497343
1733706843169524700,10.359524658203124,0.0034966599196195602,-0.015736188739538193,0.003734859172254801
1733706843179544600,10.369544677734375,0.0034465172793716192,-0.014265872538089752,0.0049148062244057655
1733706843189564700,10.379564697265625,0.003738665720447898,-0.0063959648832678795,0.004499086644500494
1733706843199585800,10.389585693359376,0.002110142959281802,-0.001998819876462221,0.0011352482251822948
1733706843209605600,10.399605712890626,0.0030121554154902697,0.0003391692880541086,0.0019384576007723808
1733706843219625700,10.409625732421874,-0.0032113855704665184,0.003957340028136969,0.006860511843115091
1733706843229645800,10.419645751953125,-0.0024281498044729233,0.0001990869641304016,0.004419724456965923
1733706843239666700,10.429666748046875,-0.004324449226260185,-0.0030577415600419044,0.0020379789639264345
1733706843249686800,10.439686767578126,-0.003846145700663328,-0.005503322463482618,0.0030643611680716276
1733706843259706600,10.44970654296875,-0.002086574211716652,-0.007035459391772747,0.006070921663194895
1733706843269726700,10.459726806640624,-0.00026710249949246645,-0.012429425492882729,0.009569782763719559
1733706843279747800,10.469747802734375,-0.0037650149315595627,-0.009670097380876541,0.00961658637970686
1733706843289767700,10.479767578125,-0.003834257135167718,-0.005941937677562237,0.006231441628187895
1733706843299787800,10.489787841796876,-0.0016628862358629704,-0.005899867042899132,0.0030822043772786856
1733706843309807900,10.499807861328126,-0.00280325161293149,-0.0036172717809677124,-0.001301891403272748
1733706843319828700,10.509828857421875,-0.0022431970573961735,0.0005719785112887621,0.0001494275056757033
1733706843329848800,10.519848876953125,-0.0038525450509041548,0.0016178018413484097,-0.0018498075660318136
1733706843339868700,10.52986865234375,-0.003556115087121725,0.0008401379454880953,0.0025562432128936052
1733706843349888800,10.539888671875,-0.0047460151836276054,0.0032510976307094097,0.007302262354642153
1733706843359910000,10.549909912109374,-0.0012431386858224869,-0.0022832383401691914,0.010396705940365791
1733706843369929700,10.5599296875,0.0007518351776525378,-0.003511222079396248,0.00906858779489994
1733706843379949800,10.56994970703125,-0.0015230030985549092,-0.0006522622425109148,0.006319538690149784
1733706843389970000,10.579969970703125,0.003125278279185295,-0.0026874500326812267,-0.0020790062844753265
1733706843399990800,10.58999072265625,0.002682264894247055,0.0017818175256252289,-0.003316392656415701
1733706843410011000,10.600010986328124,-0.0001433489378541708,0.007658881600946188,-0.008715419098734856
1733706843420030700,10.61003076171875,-0.001013703178614378,0.008654581382870674,-0.007410334423184395
1733706843430050600,10.620050537109375,-0.005806327797472477,0.011496441438794136,-0.0019742900040000677
1733706843440072000,10.630072021484375,-0.0029070191085338593,0.005261434242129326,0.004954623524099588
1733706843450091500,10.640091552734376,-0.002859082305803895,0.0006219411734491587,0.006579950917512178
1733706843460111600,10.650111572265626,-0.003760699648410082,-0.0027913835365325212,0.007364599034190178
1733706843470131700,10.660131591796874,-0.0034025046043097973,0.006705981679260731,0.00537548353895545
1733706843480152600,10.670152587890625,-0.0007282811566255987,0.004022708162665367,-0.0019915220327675343
1733706843490172700,10.680172607421875,-0.002781311981379986,0.0064192870631814,-0.007644613739103079
1733706843500192800,10.69019287109375,-0.001073911553248763,0.007263633422553539,-0.006436800118535757
1733706843510212900,10.700212890625,-0.0020619442220777273,0.007425287738442421,-0.007617379538714886
1733706843520234000,10.71023388671875,-0.0007355944253504276,0.013683443889021873,-0.012505661696195602
1733706843530253800,10.72025390625,-0.0018389420583844185,0.012571573257446289,-0.0073966532945632935
1733706843540274000,10.73027392578125,-0.0037151260767132044,0.010638195089995861,0.003019249765202403
1733706843550294800,10.740294677734376,-0.0013268031179904938,0.0061688777059316635,0.0014623659662902355
1733706843560315000,10.75031494140625,-0.00038439827039837837,0.0018810974434018135,0.0027698653284460306
1733706843570335000,10.7603349609375,0.0033970242366194725,-0.002126959851011634,0.002577318577095866
1733706843580354800,10.770354736328125,-0.0009688331047073007,-0.002948496025055647,0.004381158389151096
1733706843590376000,10.7803759765625,-0.001148862880654633,-0.0015870881034061313,-0.00023676278942730278
1733706843600396000,10.79039599609375,-0.0003748317831195891,0.005503550171852112,-0.004162726923823357
1733706843610415900,10.800415771484374,-0.0005210392992012203,0.00558264646679163,-0.003057248890399933
1733706843620436000,10.81043603515625,-0.0025562061928212643,0.0032030907459557056,-0.0010331288212910295
1733706843630456800,10.820456787109375,0.0013261500280350447,0.0012850821949541569,-0.0008459086529910564
1733706843640477000,10.830476806640625,0.00038520677480846643,-0.005213955417275429,-0.003334171138703823
1733706843650497000,10.8404970703125,-0.0022382731549441814,-0.005220879800617695,-0.002842551562935114
1733706843660516900,10.850516845703124,-0.0014675476122647524,-0.003895523026585579,0.000781580398324877
1733706843670538000,10.8605380859375,-0.0025658351369202137,-0.006480121053755283,-0.00009726281859911978
1733706843680557800,10.870557861328125,-0.001338076195679605,-0.008569679223001003,0.00009844830492511392
1733706843690577700,10.88057763671875,0.00005209387745708227,-0.00042333570308983326,0.0022044761572033167
1733706843700597800,10.89059765625,-0.0024921612348407507,-0.001163911772891879,0.0059769246727228165
1733706843710618600,10.90061865234375,-0.002776853274554014,-0.008531280793249607,0.004882631823420525
1733706843720638700,10.910638671875,-0.0016051990678533912,-0.00538736954331398,-0.0003509306407067925
1733706843730658800,10.920658935546875,-0.0027338466607034206,-0.0017252567922696471,-0.002212746534496546
1733706843740679000,10.930678955078125,-0.0005660676397383213,-0.000638477155007422,-0.0001683692098595202
1733706843750699800,10.94069970703125,0.0018707248382270336,-0.006035639438778162,-0.006381257902830839
1733706843760720000,10.950719970703124,0.0022677816450595856,-0.008805305697023869,-0.004161630291491747
1733706843770739700,10.96073974609375,0.0033855100627988577,-0.0026083963457494974,-0.0003618320042733103
1733706843780759800,10.970759765625,0.0020550363697111607,0.007438336499035358,-0.003983496222645044
1733706843790780700,10.98078076171875,0.004807413090020418,0.011313769035041332,-0.0071108462288975716
1733706843800800800,10.99080078125,0.002781962975859642,0.007104670628905296,-0.014315297827124596
1733706843810820900,11.00082080078125,0.0007377205183729529,0.011849358677864075,-0.012502217665314674
1733706843820841000,11.010841064453125,0.0012087380746379495,0.016064615920186043,-0.01494215615093708
1733706843830861800,11.02086181640625,0.0013797128340229392,0.022281499579548836,-0.009966838173568249
1733706843840882000,11.0308818359375,-0.002576583530753851,0.011662936769425869,-0.003773973323404789
1733706843850901800,11.04090185546875,-0.002736639464274049,0.006855398416519165,0.002048495691269636
1733706843860921900,11.050921875,-0.00020486791618168354,0.0007580984383821487,-0.0009030359797179699
1733706843870942700,11.060942626953125,-0.0021636229939758778,-0.0023982799611985683,0.00439452426508069
1733706843880962800,11.070962890625,-0.003228600136935711,-0.003478745464235544,0.009265030734241009
1733706843890983000,11.08098291015625,-0.00002268690150231123,-0.0025450410321354866,0.007588304579257965
1733706843901003000,11.0910029296875,-0.0020390485879033804,0.0007123553659766912,0.00018850876949727535
1733706843911023900,11.10102392578125,-0.002814028412103653,0.002257521729916334,0.0013666911981999874
1733706843921044000,11.1110439453125,-0.003474205732345581,-0.005574323236942291,-0.0013216529041528702
1733706843931063800,11.121063720703125,-0.002146619837731123,-0.012970454059541225,-0.00008221768075600266
1733706843941084000,11.131083984375,0.00102054828312248,-0.01454070396721363,0.003048246493563056
1733706843951104800,11.141104736328124,-0.00041702616726979613,-0.011021602898836136,0.003927355632185936
1733706843961124900,11.151124755859374,0.0007996698841452599,-0.009590047411620617,-0.000006984249921515584
1733706843971145000,11.16114501953125,0.0034761466085910797,-0.0046014138497412205,-0.0005145827308297157
1733706843981165000,11.1711650390625,0.0028319554403424263,-0.006663619540631771,-0.0003497800789773464
1733706843991186000,11.18118603515625,0.0013989083236083388,-0.010107886046171188,-0.00026961893308907747
1733706844001206000,11.1912060546875,0.0004131150199100375,-0.011003969237208366,-0.0018047005869448185
1733706844011225900,11.201225830078124,0.0025191428139805794,-0.00934402085840702,-0.0009149384568445385
1733706844021247000,11.2112470703125,0.003978500608354807,-0.011940637603402138,0.0024414609652012587
1733706844031266800,11.221266845703125,0.0036314907483756542,-0.017878422513604164,0.0029866101685911417
1733706844041287000,11.231286865234376,-0.0011567772598937154,-0.008429533801972866,0.0017516526859253645
1733706844051306800,11.241306640625,-0.0005719470791518688,-0.005347990430891514,-0.0005365354008972645
1733706844061328000,11.251327880859375,-0.000902595347724855,-0.010101228021085262,-0.001633423613384366
1733706844071348000,11.261347900390625,-0.0008048573508858681,-0.012152926996350288,0.002941887127235532
1733706844081367800,11.271367919921875,-0.001684998394921422,-0.01211452204734087,0.0020693002734333277
1733706844091387600,11.2813876953125,0.000007973168976604939,-0.0032150365877896547,-0.0031161406077444553
1733706844101409000,11.291408935546874,-0.0017635615076869726,-0.0017351179849356413,-0.0017475421773269773
1733706844111428900,11.301428955078125,0.0009794943034648895,-0.005530655384063721,-0.0019179844530299306
1733706844121448700,11.31144873046875,0.002376704942435026,0.0006353338249027729,-0.001210315153002739
1733706844131468800,11.32146875,0.0010384663473814726,0.0016878149472177029,-0.008112429641187191
1733706844141489700,11.33148974609375,0.003146795555949211,0.007670613471418619,-0.0059584155678749084
1733706844151509800,11.341509765625,0.0006676585180684924,0.006688173394650221,-0.004326163791120052
1733706844161529900,11.35152978515625,0.00041381840128451586,-0.0016014059074223042,0.0013551898300647736
1733706844171549700,11.3615498046875,0.0006058323197066784,-0.0036634914577007294,0.0021283053793013096
1733706844181570800,11.37157080078125,-0.001452708849683404,-0.005552023183554411,0.0031908429227769375
1733706844191591000,11.3815908203125,-0.00014749367255717516,-0.007344330660998821,0.0015340904938057065
1733706844201610800,11.39161083984375,0.0004528510617092252,0.000994139350950718,-0.0012747487053275108
1733706844211630800,11.401630859375,0.0032552953343838453,0.008417168632149696,-0.0032401615753769875
1733706844221651700,11.411651611328125,0.001315941335633397,0.01486898586153984,-0.0030787410214543343
1733706844231671800,11.421671875,0.0015044929459691048,0.010250265710055828,-0.00045952197979204357
1733706844241692000,11.43169189453125,0.0019435177091509104,0.0013504633679986,-0.0006726578576490283
1733706844251711700,11.441711669921874,0.0004798445152118802,0.0023486162535846233,-0.0029696342535316944
1733706844261732900,11.45173291015625,0.0022206574212759733,0.005374506581574678,0.0000895887496881187
1733706844271753000,11.4617529296875,-0.0007849861867725849,0.004495397210121155,-0.002885162364691496
1733706844281772800,11.471772705078125,-0.0007056442555040121,0.005415274761617184,-0.008318127132952213
1733706844291793000,11.48179296875,0.0009862619917839766,0.003947074059396982,-0.0021332022733986378
1733706844301813800,11.491813720703124,-0.0017804690869525075,0.0016534393653273582,0.0012795915827155113
1733706844311833900,11.501833740234375,-0.0031527960672974586,0.0029466701671481133,0.007358522620052099
1733706844321854000,11.51185400390625,-0.003543277271091938,-0.000049588968977332115,0.006577332504093647
1733706844331873800,11.521873779296875,-0.0016907822573557496,0.00026279990561306477,0.003644126933068037
1733706844341895000,11.53189501953125,-0.003188543953001499,-0.0056068068370223045,0.006081185769289732
1733706844351915000,11.5419150390625,-0.003846078645437956,-0.0035958541557192802,0.006011676974594593
1733706844361934800,11.551934814453125,-0.0017971924971789122,-0.0004080787766724825,0.0008532016072422266
1733706844371955000,11.561954833984375,0.000208167708478868,0.0037347343750298023,-0.005567146930843592
1733706844381975800,11.571975830078125,0.0019279622938483953,-0.002892289310693741,-0.007908964529633522
1733706844391996000,11.581995849609376,0.002592687262222171,-0.0028731145430356264,-0.00704104034230113
1733706844402016000,11.59201611328125,0.0026885545812547207,0.0020895195193588734,-0.0008048174204304814
1733706844412035800,11.602035888671875,0.0023785624653100967,0.0034016589634120464,-0.0004191916959825903
1733706844422057000,11.612056884765625,0.0028122065123170614,0.00870312750339508,-0.0031716336961835623
1733706844432077000,11.6220771484375,0.0020814351737499237,0.01119717862457037,-0.003067504148930311
1733706844442097000,11.632096923828126,0.002341851592063904,0.0048346626572310925,-0.005145270377397537
1733706844452116700,11.64211669921875,0.0011958932736888528,-0.0006426608888432384,-0.0015430785715579987
1733706844462137900,11.652137939453125,-0.0025286381132900715,-0.0011719887843355536,0.0013109812280163169
1733706844472158000,11.662157958984375,-0.0031086744274944067,-0.0025903882924467325,0.002839901950210333
1733706844482177800,11.672177734375,-0.004105142317712307,0.0031426791101694107,-0.005792166572064161
1733706844492197600,11.68219775390625,-0.002445726655423641,0.0029986021108925343,-0.004029420204460621
1733706844502219300,11.69221923828125,-0.005876949988305569,0.006301553454250097,0.00009731191676110029
1733706844512239000,11.702239013671875,-0.004610084462910891,-0.0005025571445003152,0.008252177387475967
1733706844522259000,11.712259033203125,-0.0038739866577088833,-0.006466173566877842,0.006289960350841284
1733706844532279000,11.722279052734375,-0.005205300636589527,-0.006954331416636705,0.006482772994786501
1733706844542300000,11.7322998046875,-0.0025965641252696514,-0.006442996673285961,0.004217804409563541
1733706844552320000,11.742320068359374,-0.004576624371111393,-0.0014975067460909486,0.005420754197984934
1733706844562340000,11.752340087890625,-0.003606469137594104,-0.01196565106511116,0.00860549695789814
1733706844572360000,11.76235986328125,0.001106260810047388,-0.011210644617676735,0.006184683181345463
1733706844582381000,11.772381103515626,0.0010543086100369692,-0.00854586437344551,0.005028221290558577
1733706844592401200,11.782401123046874,-0.0005731491255573928,-0.011954178102314472,0.005253791343420744
1733706844602421000,11.7924208984375,-0.0014813120942562819,-0.005673522595316172,0.002823973074555397
1733706844612441000,11.802441162109375,-0.00022456643637269735,-0.00028781197033822536,0.004615215118974447
1733706844622462000,11.8124619140625,-0.00011910044122487307,0.0005525802262127399,0.0001012567663565278
1733706844632482000,11.82248193359375,-0.0027063614688813686,0.01268700696527958,-0.002960046986117959
1733706844642502100,11.832502197265624,-0.001564533798955381,0.005966304801404476,-0.0027674175798892975
1733706844652522000,11.84252197265625,0.00003922183532267809,-0.005520974285900593,0.0010097440099343657
1733706844662543000,11.852543212890625,-0.0008816387271508574,0.001185865607112646,-0.0011076517403125763
1733706844672563200,11.862563232421875,0.0014502251287922263,0.01091625727713108,0.0030122583266347647
1733706844682583000,11.8725830078125,-0.001006158534437418,0.011285343207418919,0.003084497293457389
1733706844692603100,11.88260302734375,0.0015206485986709595,0.003374156542122364,0.0010919201886281371
1733706844702624000,11.8926240234375,-0.0025213672779500484,0.004097787197679281,-0.00002279668115079403
1733706844712644000,11.90264404296875,-0.00293522235006094,0.006919406820088625,0.0004461859934963286
1733706844722664200,11.912664306640625,-0.003958443179726601,0.011161232367157936,-0.003937775269150734
1733706844732684000,11.92268408203125,-0.0012510737869888544,0.009866669774055481,-0.004015539772808552
1733706844742705200,11.932705078125,-0.003567572683095932,0.010623892769217491,-0.0010527078993618488
