time,seconds_elapsed,z,y,x
1733768851780935400,0.037935302734375,-0.11264558881521225,0.1484195739030838,0.024271102622151375
1733768851790895400,0.047895263671875,-0.0808640792965889,0.13443365693092346,-0.016765138134360313
1733768851800855300,0.057855224609375,-0.06456952542066574,0.0951768010854721,-0.05561373382806778
1733768851810816500,0.06781640625,-0.012567583471536636,0.071077361702919,-0.0783594399690628
1733768851820776400,0.0777763671875,0.0162251815199852,0.042244911193847656,-0.10665819048881531
1733768851830737400,0.0877373046875,0.04208429157733917,-0.006579074077308178,-0.11144433170557022
1733768851840697600,0.097697509765625,0.05020427331328392,-0.09884029626846313,-0.12104476243257523
1733768851850657500,0.107657470703125,0.05259311944246292,-0.1717384159564972,-0.13773329555988312
1733768851860618200,0.1176181640625,0.048226069658994675,-0.2371528297662735,-0.13395054638385773
1733768851870578400,0.127578369140625,0.02866121381521225,-0.33086901903152466,-0.1400928944349289
1733768851880538400,0.137538330078125,0.0299384668469429,-0.3008756935596466,-0.16841188073158264
1733768851890499300,0.147499267578125,0.024131055921316147,-0.2837447226047516,-0.18110524117946625
1733768851900459500,0.15745947265625,0.018208187073469162,-0.30913183093070984,-0.17097005248069763
1733768851910420500,0.16742041015625,0.017854539677500725,-0.3496032953262329,-0.13671232759952545
1733768851920380400,0.17738037109375,0.059375081211328506,-0.3402681052684784,-0.10760769248008728
1733768851930340600,0.187340576171875,0.021127089858055115,-0.34078481793403625,-0.07067734003067017
1733768851940301300,0.19730126953125,0.030918734148144722,-0.2729133367538452,-0.032582689076662064
1733768851950261200,0.20726123046875,-0.08646868914365768,-0.05487484112381935,-0.08133291453123093
1733768851960222500,0.217222412109375,-0.32679232954978943,0.17707610130310059,-0.15950894355773926
1733768851970182400,0.227182373046875,-0.4702885150909424,0.4409668445587158,-0.2487751692533493
1733768851980142300,0.237142333984375,-0.49534085392951965,0.6910001039505005,-0.2842884063720703
1733768851990103600,0.247103515625,-0.40792974829673767,0.8252679109573364,-0.24333368241786957
1733768852000063500,0.2570634765625,-0.22901380062103271,0.6728085875511169,-0.25515440106391907
1733768852010023400,0.2670234375,-0.03711797297000885,0.8502044677734375,-0.20012299716472626
1733768852019985000,0.27698486328125,-0.027928201481699944,0.8864349126815796,-0.27791017293930054
1733768852029944800,0.28694482421875,-0.03212414309382439,0.8616885542869568,-0.19919198751449585
1733768852039905800,0.29690576171875,-0.004281327594071627,0.750795304775238,-0.12946510314941406
1733768852049866000,0.306865966796875,0.08236794173717499,0.5179682970046997,-0.1528715193271637
1733768852059826000,0.316825927734375,0.07358163595199585,0.0758824571967125,-0.13850483298301697
1733768852069787000,0.326786865234375,0.008035307750105858,-0.5193950533866882,-0.11665643006563187
1733768852079747000,0.3367470703125,-0.00874340534210205,-1.0318994522094727,-0.06324354559183121
1733768852089707800,0.346707763671875,-0.016994860023260117,-1.2681140899658203,-0.027262263000011444
1733768852099667700,0.356667724609375,-0.056641608476638794,-1.2612340450286865,-0.054813727736473083
1733768852109628000,0.3666279296875,-0.10266923159360886,-1.1132011413574219,-0.09885039180517197
1733768852119588900,0.3765888671875,-0.13399572670459747,-0.9813406467437744,-0.1831788569688797
1733768852129548800,0.386548828125,-0.11476291716098785,-0.8886029124259949,-0.26307734847068787
1733768852139509000,0.396509033203125,-0.0781862661242485,-0.8073488473892212,-0.36858007311820984
1733768852149470000,0.406469970703125,-0.06123862788081169,-0.7693779468536377,-0.4660200774669647
1733768852159430000,0.416429931640625,-0.036645133048295975,-0.6862966418266296,-0.533200740814209
1733768852169390800,0.426390869140625,0.10760752856731415,-0.5689714550971985,-0.6169034838676453
1733768852179350800,0.436350830078125,0.1608864665031433,-0.4334612786769867,-0.6524673700332642
1733768852189310700,0.446310791015625,0.1474410742521286,-0.2903171181678772,-0.693463146686554
1733768852199272000,0.45627197265625,0.10555675625801086,-0.18333926796913147,-0.7046031355857849
1733768852209232000,0.46623193359375,0.023353204131126404,-0.12970063090324402,-0.7299326062202454
1733768852219192800,0.47619287109375,-0.027088399976491928,-0.15573623776435852,-0.7233836650848389
1733768852229153000,0.486153076171875,-0.06990010291337967,-0.13199809193611145,-0.6712595224380493
1733768852239113000,0.496113037109375,-0.13684770464897156,-0.03714374825358391,-0.6109644770622253
1733768852249073700,0.50607373046875,-0.23589739203453064,0.08342060446739197,-0.540852427482605
1733768852259033900,0.516033935546875,-0.3474644124507904,0.3295949697494507,-0.4774259924888611
1733768852268993800,0.525993896484375,-0.47421056032180786,0.9894641041755676,-0.4783560037612915
1733768852278954800,0.535954833984375,-0.5688496828079224,1.6752701997756958,-0.576636016368866
1733768852288915000,0.5459150390625,-0.7221940755844116,1.8620842695236206,-0.6080321073532104
1733768852298876000,0.5558759765625,-0.8802484273910522,1.6739537715911865,-0.41037869453430176
1733768852308835800,0.5658359375,-0.931327223777771,1.377366304397583,-0.23172535002231598
1733768852318796000,0.575796142578125,-0.9127703309059143,0.8979618549346924,-0.17794521152973175
1733768852328756700,0.5857568359375,-0.8900401592254639,0.3966590464115143,-0.11663094162940979
1733768852338716700,0.595716552734375,-0.8751863837242126,0.22830916941165924,-0.010976415127515793
1733768852348678000,0.605677978515625,-0.749703049659729,0.3125556707382202,0.09655790776014328
1733768852358637800,0.615637939453125,-0.6481979489326477,0.38298773765563965,0.2029980719089508
1733768852368597800,0.62559765625,-0.5105583071708679,0.5473002195358276,0.3622801601886749
1733768852378559000,0.63555908203125,-0.30547386407852173,0.8487524390220642,0.5525542497634888
1733768852388519000,0.645518798828125,-0.12037038058042526,0.9675654768943787,0.668209433555603
1733768852398478800,0.655478759765625,0.020880484953522682,0.7943524122238159,0.7077824473381042
1733768852408439800,0.665439697265625,0.014654083177447319,0.539968729019165,0.6641116738319397
1733768852418399700,0.675399658203125,-0.05834902077913284,0.22222934663295746,0.614993691444397
1733768852428361000,0.68536083984375,-0.09603814035654068,0.0709693506360054,0.5427491068840027
1733768852438321000,0.69532080078125,-0.15291687846183777,0.11007627099752426,0.5528606176376343
1733768852448280800,0.70528076171875,-0.2083142250776291,0.35538792610168457,0.6544061899185181
1733768852458242000,0.715241943359375,-0.1721988320350647,0.713707685470581,0.8712610006332397
1733768852468202000,0.725201904296875,-0.06495446711778641,0.9902043342590332,1.1458485126495361
1733768852478162700,0.73516259765625,0.0277634896337986,0.8750561475753784,1.2454146146774292
1733768852488123000,0.745122802734375,0.12683294713497162,0.36503610014915466,1.1478745937347412
1733768852498082800,0.755082763671875,0.16037146747112274,-0.1512959599494934,0.8809720277786255
1733768852508043800,0.765043701171875,0.13077834248542786,-0.23278020322322845,0.5977771878242493
1733768852518004000,0.77500390625,0.12843236327171326,0.28076833486557007,0.5447011590003967
1733768852527965000,0.78496484375,0.17589282989501953,1.295079231262207,0.7493461966514587
1733768852537924900,0.7949248046875,0.1699310690164566,1.9028754234313965,0.6461402177810669
1733768852547885000,0.804885009765625,0.1601921170949936,1.8554296493530273,0.4241510331630707
1733768852557845800,0.814845703125,0.19059236347675323,1.4842278957366943,0.30435246229171753
1733768852567805700,0.8248056640625,0.2800384759902954,1.118880033493042,0.2869517505168915
1733768852577766000,0.834765869140625,0.3806319236755371,0.9666606783866882,0.3789817988872528
1733768852587726800,0.844726806640625,0.4532591998577118,0.8502939343452454,0.4331846237182617
1733768852597686800,0.854686767578125,0.5122793316841125,0.725182056427002,0.4153723418712616
1733768852607648000,0.86464794921875,0.5835508108139038,0.6931234002113342,0.36161157488822937
1733768852617608000,0.87460791015625,0.6699975728988647,0.7697899341583252,0.29654309153556824
1733768852627567900,0.88456787109375,0.7442567944526672,0.8675323724746704,0.2464316338300705
1733768852637528800,0.89452880859375,0.8085145950317383,0.852915346622467,0.18911002576351166
1733768852647488800,0.90448876953125,0.8650444149971008,0.7566589117050171,0.128274604678154
1733768852657450000,0.914449951171875,0.9090691208839417,0.6560846567153931,0.09169422835111618
1733768852667410000,0.924409912109375,0.9436745047569275,0.5539826154708862,0.08147696405649185
1733768852677369900,0.934369873046875,0.9517561197280884,0.4159347116947174,0.08744244277477264
1733768852687331000,0.9443310546875,0.9282498359680176,0.23455138504505157,0.0722903162240982
1733768852697291000,0.954291015625,0.8933520317077637,0.024951554834842682,0.055900689214468
1733768852707251700,0.964251708984375,0.853093147277832,-0.20590858161449432,0.07596198469400406
1733768852717212000,0.9742119140625,0.8094503283500671,-0.4025563895702362,0.13350810110569
1733768852727171800,0.984171875,0.769195020198822,-0.5101620554924011,0.2641790211200714
1733768852737132800,0.9941328125,0.7090368270874023,-0.6447818875312805,0.3862612545490265
1733768852747093000,1.004093017578125,0.6521169543266296,-0.8470742702484131,0.3769354224205017
1733768852757053000,1.014052978515625,0.6333315372467041,-0.9189060926437378,0.30639150738716125
1733768852767014000,1.024013916015625,0.6355308294296265,-0.845589280128479,0.25569915771484375
1733768852776974000,1.03397412109375,0.6326122879981995,-0.7213930487632751,0.1872335523366928
1733768852786934800,1.043934814453125,0.6489710211753845,-0.5369829535484314,0.12561604380607605
1733768852796894700,1.053894775390625,0.6697080135345459,-0.36570119857788086,0.12081862986087799
1733768852806854700,1.063854736328125,0.7007301449775696,-0.33714818954467773,0.0006825942546129227
1733768852816815900,1.07381591796875,0.7250797152519226,-0.4831477403640747,-0.3149808347225189
1733768852826775800,1.08377587890625,0.733726978302002,-0.6867077350616455,-0.7292452454566956
1733768852836737000,1.093737060546875,0.7457636594772339,-0.8487456440925598,-1.1529605388641357
1733768852846697000,1.103697021484375,0.7812670469284058,-0.8284115791320801,-1.5401333570480347
1733768852856657000,1.113656982421875,0.8236374258995056,-0.3774909973144531,-1.6283282041549683
1733768852866617900,1.123617919921875,1.084672451019287,2.5160727500915527,1.2618176937103271
1733768852876577800,1.133577880859375,1.472694993019104,2.0386013984680176,0.9750482439994812
1733768852886538800,1.143538818359375,1.1401090621948242,0.560337483882904,-0.6223878264427185
1733768852896499000,1.1534990234375,-0.25343820452690125,-0.7312737703323364,-2.794914484024048
1733768852906459000,1.163458984375,-1.5663539171218872,-0.3651579022407532,-2.6885695457458496
1733768852916419800,1.173419921875,-1.5714515447616577,1.467376708984375,-1.2056541442871094
1733768852926380000,1.183380126953125,-0.07047618925571442,4.469724178314209,0.5934300422668457
1733768852936340700,1.1933408203125,1.2943615913391113,6.480311870574951,1.1397809982299805
1733768852946300700,1.20330078125,1.561099648475647,5.314784049987793,-0.175863116979599
1733768852956260900,1.2132607421875,0.9404774308204651,2.505192756652832,-1.8451635837554932
1733768852966221800,1.223221923828125,-0.34061199426651,1.0742082595825195,-2.2818877696990967
1733768852976181800,1.233181640625,-1.3747981786727905,1.1962050199508667,-1.4634733200073242
1733768852986142000,1.243141845703125,-1.8425556421279907,1.6875056028366089,-0.21220773458480835
1733768852996103000,1.25310302734375,-2.2553699016571045,1.823012351989746,0.5908111929893494
1733768853006062800,1.263062744140625,-2.5732834339141846,1.4118367433547974,1.0702707767486572
1733768853016023000,1.27302294921875,-2.745473623275757,-0.04542448744177818,1.1546021699905396
1733768853025983000,1.28298291015625,-2.6454246044158936,-1.9825329780578613,0.701580286026001
1733768853035943000,1.29294287109375,-1.9976308345794678,-3.3924460411071777,-0.137022465467453
1733768853045904100,1.302904052734375,-1.1809391975402832,-4.341432571411133,-1.1284773349761963
1733768853055864000,1.312864013671875,-0.7312731742858887,-4.622812747955322,-1.8777395486831665
1733768853065825000,1.322824951171875,-0.8657549619674683,-3.596829652786255,-2.429793119430542
1733768853075785200,1.33278515625,-1.1884211301803589,-1.1876614093780518,-2.948086977005005
1733768853085745200,1.3427451171875,-0.7632827162742615,2.330221176147461,-2.3074967861175537
1733768853095706000,1.3527060546875,-0.06050916016101837,4.143181324005127,-1.285463571548462
1733768853105666000,1.362666015625,0.37548503279685974,3.7073047161102295,-1.1192599534988403
1733768853115627000,1.372626953125,0.3995317816734314,2.8901243209838867,-1.2709040641784668
1733768853125587000,1.3825869140625,0.32425081729888916,2.0949652194976807,-1.4120844602584839
1733768853135547100,1.392547119140625,0.29157543182373047,1.6564780473709106,-1.2386462688446045
1733768853145508000,1.402508056640625,0.2629700303077698,1.4234342575073242,-0.9564571380615234
1733768853155468000,1.412468017578125,0.2248159795999527,0.986449658870697,-0.8484553098678589
1733768853165429000,1.422428955078125,0.15181471407413483,0.5036150813102722,-0.8094353079795837
1733768853175389000,1.432388916015625,0.0726621076464653,0.04770852252840996,-0.7509821057319641
1733768853185348900,1.442348876953125,0.007155163679271936,-0.2325345277786255,-0.6567577719688416
1733768853195310000,1.45231005859375,-0.08891677856445312,-0.21355390548706055,-0.5519804954528809
1733768853205270000,1.46227001953125,-0.1801987588405609,-0.13447892665863037,-0.602993369102478
1733768853215231200,1.472231201171875,-0.20967356860637665,0.11657752096652985,-0.6874049305915833
1733768853225191200,1.482191162109375,-0.13579365611076355,0.5331782698631287,-0.7590500116348267
1733768853235151000,1.492151123046875,-0.11900029331445694,0.9869913458824158,-0.7714025378227234
1733768853245112000,1.502112060546875,-0.09795094281435013,1.2136613130569458,-0.7843226790428162
1733768853255072000,1.512072021484375,-0.11288595199584961,1.1557990312576294,-0.8818207383155823
1733768853265033000,1.522032958984375,-0.157669335603714,0.9515665173530579,-0.9270223379135132
1733768853274993200,1.5319931640625,-0.2127605527639389,0.6540126204490662,-0.82572340965271
1733768853284953000,1.541953125,-0.22594386339187622,0.18778713047504425,-0.6799925565719604
1733768853294914000,1.5519140625,-0.20430009067058563,-0.35293206572532654,-0.5762690901756287
1733768853304874200,1.561874267578125,-0.2542087137699127,-0.6338627338409424,-0.5415391325950623
1733768853314835000,1.5718349609375,-0.3117644190788269,-0.5333451628684998,-0.5900821685791016
1733768853324795000,1.581794921875,-0.2937431037425995,-0.23092900216579437,-0.6077994108200073
1733768853334755000,1.591755126953125,-0.239467591047287,0.06976477801799774,-0.6123379468917847
1733768853344716000,1.601716064453125,-0.1977423131465912,0.2885270118713379,-0.6695125102996826
1733768853354676000,1.611676025390625,-0.16453216969966888,0.3833126425743103,-0.8139216303825378
1733768853364636200,1.62163623046875,-0.15440790355205536,0.37700292468070984,-1.0077767372131348
1733768853374597000,1.63159716796875,-0.1704111099243164,0.35007062554359436,-1.187328815460205
1733768853384557000,1.64155712890625,-0.20017512142658234,0.27789777517318726,-1.2895822525024414
1733768853394518000,1.65151806640625,-0.256637841463089,0.12481527775526047,-1.2749085426330566
1733768853404478000,1.66147802734375,-0.3293116092681885,0.08931922912597656,-1.2388243675231934
1733768853414438000,1.67143798828125,-0.40507322549819946,0.32128268480300903,-1.2204737663269043
1733768853424399000,1.681399169921875,-0.40816187858581543,0.7992863059043884,-1.1431498527526855
1733768853434359000,1.691359130859375,-0.38959670066833496,2.0125691890716553,-0.24683025479316711
1733768853444320300,1.7013203125,-0.38184064626693726,2.6856751441955566,0.5302978157997131
1733768853454280200,1.7112802734375,-0.3244785666465759,2.201948404312134,0.47495919466018677
1733768853464240000,1.721240234375,-0.20811226963996887,1.582113265991211,0.7046964764595032
1733768853474201000,1.731201171875,-0.02042120136320591,0.9017289280891418,1.0645179748535156
1733768853484161000,1.7411611328125,0.01739562302827835,0.2171645164489746,1.264726996421814
1733768853494122000,1.7511220703125,-0.08740642666816711,-0.4088074862957001,1.3782522678375244
1733768853504082200,1.761082275390625,-0.17422308027744293,-0.843278169631958,1.469862937927246
1733768853514042000,1.7710419921875,-0.22828765213489532,-1.0728988647460938,1.4869385957717896
1733768853524003000,1.781003173828125,-0.2610233426094055,-0.9707159399986267,1.5152804851531982
1733768853533963300,1.79096337890625,-0.2863726317882538,-0.6859819293022156,1.5971328020095825
1733768853543924000,1.800924072265625,-0.2555199861526489,-0.3463567793369293,1.7096810340881348
1733768853553884000,1.8108837890625,-0.1640225648880005,0.017367927357554436,1.8209697008132935
1733768853563844000,1.820843994140625,-0.013218889012932777,0.23854076862335205,1.8633816242218018
1733768853573805000,1.83080517578125,0.16469305753707886,0.32003217935562134,1.8552896976470947
1733768853583765000,1.840764892578125,0.27531829476356506,0.32451820373535156,1.8419148921966553
1733768853593726200,1.850726318359375,0.3223779499530792,0.41187840700149536,1.8490148782730103
1733768853603686100,1.86068603515625,0.3525471091270447,0.6300003528594971,1.8819795846939087
1733768853613647000,1.870647216796875,0.4025610089302063,0.8098697066307068,1.8313283920288086
1733768853623607000,1.88060693359375,0.42856597900390625,0.8356860876083374,1.648158311843872
1733768853633567000,1.89056689453125,0.37720903754234314,0.6781926155090332,1.3374601602554321
1733768853643528000,1.90052783203125,0.28931015729904175,0.4744977653026581,0.9984336495399475
1733768853653488000,1.910488037109375,0.27094048261642456,0.31706473231315613,0.7537370920181274
1733768853663448000,1.920447998046875,0.3212813436985016,0.13649269938468933,0.6462574005126953
1733768853673409000,1.930408935546875,0.3757416605949402,0.072561115026474,0.660640299320221
1733768853683369200,1.940369140625,0.4163549244403839,0.1376107782125473,0.7281410694122314
1733768853693330200,1.950330078125,0.4681704342365265,0.20570673048496246,0.7743293642997742
1733768853703290000,1.9602900390625,0.5273357629776001,0.17713616788387299,0.7722302079200745
1733768853713250000,1.97025,0.6239286065101624,0.12045291811227798,0.7032846808433533
1733768853723211000,1.9802109375,0.7262470722198486,-0.08439865708351135,0.6012912392616272
1733768853733171000,1.9901708984375,0.7888068556785583,-0.4037207067012787,0.5418457984924316
1733768853743132200,2.000132080078125,0.7969456315040588,-0.6346058249473572,0.6290595531463623
1733768853753092000,2.010092041015625,0.730806291103363,-0.7986363172531128,0.8323814868927002
1733768853763053000,2.020052978515625,0.669834315776825,-1.0543371438980103,0.9918640851974487
1733768853773013000,2.030012939453125,0.6627436280250549,-1.3048322200775146,1.0122334957122803
1733768853782973000,2.039972900390625,0.7216960787773132,-1.5189045667648315,0.9149277806282043
1733768853792934100,2.04993408203125,0.8166183233261108,-1.6353087425231934,0.8145681619644165
1733768853802894000,2.05989404296875,0.8597809672355652,-1.50082266330719,0.7015689611434937
1733768853812855000,2.06985498046875,0.7913001775741577,-1.0979350805282593,0.5523424744606018
1733768853822815200,2.079815185546875,0.649768054485321,-0.5398119688034058,0.39914751052856445
1733768853832775200,2.089775146484375,0.5318701863288879,-0.07857751846313477,0.26285067200660706
1733768853842736000,2.099736083984375,0.4450450539588928,0.042731210589408875,0.19723185896873474
1733768853852696000,2.109696044921875,0.40073883533477783,-0.07266755402088165,0.13211144506931305
1733768853862657000,2.119656982421875,0.3746594786643982,-0.3402405083179474,0.07439372688531876
1733768853872617000,2.129616943359375,0.34623661637306213,-0.5417600870132446,0.09789052605628967
1733768853882577200,2.1395771484375,0.33396363258361816,-0.6509071588516235,0.16529284417629242
1733768853892538000,2.1495380859375,0.29928556084632874,-0.7945881485939026,0.14898498356342316
1733768853902498000,2.159498046875,0.22552932798862457,-0.9189321994781494,0.09004497528076172
1733768853912459000,2.169458984375,0.15649805963039398,-0.9418255686759949,0.049874115735292435
1733768853922419000,2.1794189453125,0.07118861377239227,-0.7889586687088013,0.06887225806713104
1733768853932379000,2.18937890625,-0.0028797558043152094,-0.8121417760848999,-0.004809418227523565
1733768853942340000,2.199340087890625,-0.0091885756701231,-0.9398919939994812,-0.12726248800754547
1733768853952300000,2.209300048828125,-0.0028872701805084944,-1.028584599494934,-0.21278856694698334
1733768853962261200,2.21926123046875,-0.056337516754865646,-1.037925362586975,-0.23809422552585602
1733768853972221200,2.22922119140625,-0.1778990924358368,-0.9426665902137756,-0.08371957391500473
1733768853982181000,2.23918115234375,-0.30011317133903503,-0.8177067637443542,0.09217070788145065
1733768853992142000,2.24914208984375,-0.2962217330932617,-0.8812538385391235,-0.23589879274368286
1733768854002102000,2.25910205078125,-0.1861652135848999,-1.0182527303695679,-1.3337002992630005
1733768854012063000,2.26906298828125,-0.20327283442020416,-0.4768941104412079,-1.7414113283157349
1733768854022023200,2.279023193359375,-0.3459150791168213,0.7144954204559326,-1.2809268236160278
1733768854031983000,2.288983154296875,-0.5389231443405151,2.3204619884490967,-0.42173224687576294
1733768854041944000,2.298944091796875,-0.5367037653923035,3.518515110015869,0.1772034615278244
1733768854051904300,2.308904296875,-0.38951829075813293,4.170312881469727,0.3445138931274414
1733768854061865200,2.318865234375,-0.2599753141403198,4.48036527633667,0.03728928789496422
1733768854071825200,2.3288251953125,-0.22748608887195587,4.50673770904541,-0.6121358275413513
1733768854081785000,2.33878515625,-0.37535199522972107,4.339913368225098,-1.1213127374649048
1733768854091746000,2.34874609375,-0.7036910057067871,3.9345035552978516,-1.1896659135818481
1733768854101706000,2.3587060546875,-1.0286221504211426,3.4254093170166016,-0.959308385848999
1733768854111667200,2.368667236328125,-1.176604986190796,2.7857089042663574,-0.6394965648651123
1733768854121627100,2.378627197265625,-1.2233350276947021,1.9857686758041382,-0.3581128716468811
1733768854131587000,2.388587158203125,-1.1385577917099,1.107694149017334,-0.17153608798980713
1733768854141548000,2.398548095703125,-0.9161279797554016,0.23723478615283966,-0.14644405245780945
1733768854151508000,2.408508056640625,-0.7284569144248962,-0.7053626179695129,-0.25960254669189453
1733768854161469000,2.418468994140625,-0.49817919731140137,-1.5895832777023315,-0.47267866134643555
1733768854171429000,2.42842919921875,-0.2907077372074127,-2.2498528957366943,-0.674673855304718
1733768854181389000,2.43838916015625,-0.20266470313072205,-2.3704562187194824,-0.8341051936149597
1733768854191350000,2.44835009765625,-0.18653152883052826,-1.91373610496521,-0.9483547806739807
1733768854201310200,2.458310302734375,-0.21872375905513763,-1.1452566385269165,-1.0388450622558594
1733768854211271200,2.468271240234375,-0.2970212399959564,-0.35126161575317383,-1.2078473567962646
1733768854221231000,2.478231201171875,-0.31596648693084717,0.4034325182437897,-1.5810576677322388
1733768854231191000,2.48819091796875,-0.23727327585220337,1.1488068103790283,-1.9531081914901733
1733768854241152000,2.498152099609375,-0.10750482976436615,1.7957264184951782,-2.078178882598877
1733768854251112000,2.50811181640625,0.014863159507513046,2.227980613708496,-1.9240202903747559
1733768854261073200,2.5180732421875,0.10547182708978653,2.4675745964050293,-1.6082693338394165
1733768854271033000,2.528033203125,0.17110010981559753,2.4605350494384766,-1.2973332405090332
1733768854280994300,2.537994384765625,0.2175469547510147,2.1790831089019775,-1.1006991863250732
1733768854290954200,2.547954345703125,0.24324938654899597,1.7294641733169556,-1.0051912069320679
1733768854300914200,2.5579140625,0.20865453779697418,1.2088910341262817,-0.9216598868370056
1733768854310875100,2.567875244140625,0.16620880365371704,0.6562014818191528,-0.790504515171051
1733768854320835000,2.5778349609375,0.11004720628261566,0.147817462682724,-0.6236892938613892
1733768854330796000,2.587796142578125,0.06910243630409241,-0.31106144189834595,-0.4782836437225342
1733768854340756200,2.597756103515625,0.02256815880537033,-0.6242275834083557,-0.3650471866130829
1733768854350716200,2.607716064453125,-0.04308116063475609,-0.7526742815971375,-0.3063436448574066
1733768854360677000,2.617677001953125,-0.04681697115302086,-0.7363281846046448,-0.3435783088207245
1733768854370637000,2.627636962890625,-0.03628656640648842,-0.6361930966377258,-0.43685075640678406
1733768854380598000,2.637597900390625,-0.04081347584724426,-0.4123747646808624,-0.5038178563117981
1733768854390558000,2.647557861328125,-0.013754960149526596,-0.07371866703033447,-0.5126009583473206
1733768854400518100,2.65751806640625,0.03484605997800827,0.2911570370197296,-0.4963452219963074
1733768854410479000,2.66747900390625,0.11938464641571045,0.5775347352027893,-0.5463436841964722
1733768854420439000,2.67743896484375,0.18480604887008667,0.7947680950164795,-0.6713547706604004
1733768854430400300,2.687400146484375,0.22985315322875977,0.9533010125160217,-0.8066774010658264
1733768854440360200,2.697360107421875,0.22647972404956818,1.0284857749938965,-0.8903789520263672
1733768854450321200,2.707321044921875,0.1811268925666809,1.117356777191162,-0.8893855810165405
1733768854460281000,2.717281005859375,0.15153458714485168,1.1385128498077393,-0.8808904886245728
1733768854470241000,2.727240966796875,0.14443407952785492,0.976925790309906,-0.9631784558296204
1733768854480202200,2.7372021484375,0.09709431976079941,0.7864281535148621,-1.1107267141342163
1733768854490162200,2.747162109375,0.07172824442386627,0.5624027848243713,-1.2863906621932983
1733768854500123100,2.757123046875,0.002714082133024931,0.3501429557800293,-1.4007530212402344
1733768854510083000,2.7670830078125,-0.12325557321310043,0.23239633440971375,-1.4078388214111328
1733768854520043000,2.77704296875,-0.28226152062416077,0.209642231464386,-1.3360763788223267
1733768854530004000,2.78700390625,-0.426257848739624,0.25976452231407166,-1.255489706993103
1733768854539964200,2.796964111328125,-0.5242522954940796,0.42807817459106445,-1.1421740055084229
1733768854549925000,2.806925048828125,-0.5902595520019531,0.6622341871261597,-1.0107507705688477
1733768854559885000,2.816885009765625,-0.6424846649169922,0.9134765267372131,-0.8663991689682007
1733768854569845200,2.82684521484375,-0.6768838763237,1.158311128616333,-0.7007840871810913
1733768854579806200,2.83680615234375,-0.632929801940918,1.1891810894012451,-0.532534122467041
1733768854589766100,2.84676611328125,-0.5694810748100281,1.0521167516708374,-0.339059442281723
1733768854599727000,2.85672705078125,-0.4740571081638336,0.8386114835739136,-0.13411003351211548
1733768854609687000,2.86668701171875,-0.3296549320220947,0.5069108009338379,0.0486571229994297
1733768854619647000,2.87664697265625,-0.1476922482252121,0.07769013196229935,0.2051149606704712
1733768854629608200,2.886608154296875,0.024516522884368896,-0.3932720720767975,0.3032825291156769
1733768854639568100,2.896568115234375,0.08053644746541977,-0.822141170501709,0.822209358215332
1733768854649529000,2.906529052734375,0.003636336885392666,-1.4616258144378662,2.6546213626861572
1733768854659489300,2.9164892578125,-0.07033628225326538,-1.9413657188415527,2.71598744392395
1733768854669449200,2.92644921875,-0.20226608216762543,-1.5560829639434814,2.2030045986175537
1733768854679410000,2.936409912109375,-0.4637468159198761,-0.5403028726577759,2.0167388916015625
1733768854689370000,2.9463701171875,-0.7341737747192383,0.5388057231903076,2.112611770629883
1733768854699331000,2.9563310546875,-0.8209027051925659,1.3762937784194946,2.4128994941711426
1733768854709291000,2.966291015625,-0.6415870189666748,1.7414754629135132,2.7550175189971924
1733768854719251200,2.976251220703125,-0.2963765561580658,1.5943000316619873,3.0211527347564697
1733768854729212200,2.986212158203125,0.050517488270998,1.091240406036377,3.1570117473602295
1733768854739172000,2.996172119140625,0.2916492223739624,0.5068632364273071,3.1829867362976074
1733768854749133000,3.006133056640625,0.33252689242362976,0.1857195347547531,3.029914140701294
1733768854759093000,3.016093017578125,0.2989625930786133,0.24054673314094543,2.618359088897705
1733768854769054200,3.02605419921875,0.21767225861549377,0.5922123789787292,2.084773302078247
1733768854779014100,3.03601416015625,0.10651911795139313,0.7959527373313904,1.5299482345581055
1733768854788974000,3.04597412109375,0.023803459480404854,0.5912701487541199,1.0387520790100098
1733768854798935300,3.055935302734375,0.06755925714969635,0.14986258745193481,0.7584757208824158
1733768854808895200,3.065895263671875,0.14482660591602325,-0.15368716418743134,0.8217138051986694
1733768854818856000,3.07585595703125,0.14826948940753937,-0.18756665289402008,1.1007355451583862
1733768854828816100,3.085816162109375,0.05997771397233009,-0.011072576977312565,1.4041471481323242
1733768854838776000,3.095776123046875,-0.0542135015130043,0.284983366727829,1.4889475107192993
1733768854848737000,3.105737060546875,-0.08740714192390442,0.6307535767555237,1.3389707803726196
1733768854858697200,3.115697265625,-0.032602354884147644,0.9634969830513,1.0859816074371338
1733768854868658200,3.125658203125,0.07156239449977875,1.1586565971374512,0.8504647016525269
1733768854878618000,3.1356181640625,0.17562440037727356,1.0395128726959229,0.6504703164100647
1733768854888578300,3.145578369140625,0.21626532077789307,0.9056378602981567,0.5438802242279053
1733768854898539000,3.1555390625,0.2167665958404541,0.6254705786705017,0.4404122233390808
1733768854908499000,3.1654990234375,0.22656889259815216,0.05526357516646385,0.32438361644744873
1733768854918460200,3.175460205078125,0.2059457153081894,-0.346867173910141,0.23998212814331055
1733768854928420000,3.185420166015625,0.17915111780166626,-0.423679918050766,0.1763855665922165
1733768854938380000,3.195380126953125,0.1565561145544052,-0.3839489817619324,0.07421354204416275
1733768854948341200,3.20534130859375,0.140431746840477,-0.2379763424396515,-0.039722345769405365
1733768854958301200,3.21530126953125,0.07592225074768066,-0.06137753278017044,-0.14904072880744934
1733768854968262100,3.22526220703125,0.04087958112359047,0.10183162987232208,-0.29223009943962097
1733768854978222000,3.23522216796875,0.10942037403583527,0.29990488290786743,-0.3028886616230011
1733768854988183000,3.24518310546875,0.23730243742465973,0.6435248851776123,-0.05091205984354019
1733768854998143200,3.255143310546875,0.29160821437835693,0.7799200415611267,0.033927641808986664
1733768855008103200,3.265103271484375,0.28618013858795166,0.6118565201759338,-0.15281400084495544
1733768855018064000,3.27506396484375,0.3207458555698395,0.4169568717479706,-0.3536803424358368
1733768855028023800,3.28502392578125,0.398229718208313,0.3354036808013916,-0.42481762170791626
1733768855037984500,3.294984619140625,0.4851721525192261,0.30631929636001587,-0.38983845710754395
1733768855047944700,3.30494482421875,0.5366153717041016,0.22334158420562744,-0.32604989409446716
1733768855057904600,3.314904541015625,0.4513968229293823,-0.07800840586423874,-0.30394208431243896
1733768855067865600,3.324865478515625,0.27383559942245483,-0.4915187656879425,-0.18431343138217926
1733768855077825800,3.33482568359375,0.09388241171836853,-0.7440569400787354,0.3811236321926117
1733768855087786800,3.344786865234375,-0.07421018183231354,-1.337137222290039,0.8663531541824341
1733768855097746700,3.35474658203125,-0.15530863404273987,-2.237943410873413,0.895930826663971
1733768855107707000,3.364706787109375,-0.05488961562514305,-2.733842134475708,0.7763498425483704
1733768855117667600,3.37466748046875,0.15287448465824127,-2.87790846824646,0.5368130803108215
1733768855127627500,3.38462744140625,0.34994417428970337,-2.803633689880371,0.21078254282474518
1733768855137588700,3.394588623046875,0.4962291419506073,-2.524465799331665,-0.023065734654664993
1733768855147548700,3.404548583984375,0.5699049830436707,-2.0467190742492676,-0.13873134553432465
1733768855157509600,3.414509521484375,0.6195874214172363,-1.5104740858078003,-0.14148028194904327
1733768855167469800,3.4244697265625,0.6344755291938782,-0.8116858601570129,-0.002345822751522064
1733768855177429800,3.4344296875,0.554152250289917,0.061070092022418976,0.337146133184433
1733768855187390500,3.444390380859375,0.5022603273391724,0.4685611426830292,-0.02565576322376728
1733768855197350700,3.4543505859375,0.4614633321762085,0.4393249750137329,-1.1758599281311035
1733768855207311600,3.4643115234375,0.41652703285217285,1.0076699256896973,-1.452664852142334
1733768855217271600,3.474271484375,0.32931196689605713,2.241156816482544,-0.7402945756912231
1733768855227231700,3.484231689453125,0.1534631848335266,3.525294065475464,0.2828400135040283
1733768855237192700,3.494192626953125,-0.04788929596543312,4.193828105926514,0.8381787538528442
1733768855247152600,3.504152587890625,-0.2887197434902191,4.356601715087891,0.8365827202796936
1733768855257113600,3.514113525390625,-0.5798344612121582,4.247156143188477,0.51581871509552
1733768855267073500,3.524073486328125,-0.9255540370941162,4.018413066864014,0.11910118907690048
1733768855277033500,3.534033447265625,-1.2087243795394897,3.3291728496551514,-0.29910391569137573
1733768855286994700,3.54399462890625,-1.441164493560791,2.308821201324463,-0.7972689270973206
1733768855296954600,3.55395458984375,-1.630688190460205,1.0057095289230347,-1.281712532043457
1733768855306915800,3.563915771484375,-1.6532009840011597,-0.14861609041690826,-1.5558568239212036
1733768855316875800,3.573875732421875,-1.5449520349502563,-0.934893786907196,-1.4823744297027588
1733768855326836500,3.58383642578125,-1.4580988883972168,-1.3341604471206665,-1.126609444618225
1733768855336796700,3.593796630859375,-1.365264892578125,-1.598112940788269,-0.6753809452056885
1733768855346756600,3.603756591796875,-1.0766609907150269,-1.824952483177185,-0.4808900058269501
1733768855356717600,3.613717529296875,-0.7107822299003601,-1.973435878753662,-0.5770279169082642
1733768855366677800,3.623677734375,-0.45526471734046936,-2.101254940032959,-0.8090105652809143
1733768855376638700,3.633638671875,-0.38253286480903625,-2.3037025928497314,-1.018799066543579
1733768855386598700,3.6435986328125,-0.46946775913238525,-2.3446481227874756,-1.222511649131775
1733768855396558800,3.653558837890625,-0.6808263659477234,-1.206640362739563,-1.9913009405136108
1733768855406519600,3.66351953125,-1.0143508911132812,1.8603638410568237,-3.6704792976379395
1733768855416479500,3.6734794921875,-0.7177882194519043,3.96736216545105,-4.344686031341553
1733768855426440700,3.683440673828125,-0.13293595612049103,4.551931381225586,-3.9247214794158936
1733768855436400600,3.693400634765625,0.17750267684459686,4.43915319442749,-3.0707974433898926
1733768855446360600,3.703360595703125,0.24379675090312958,4.218072414398193,-2.345659017562866
1733768855456321800,3.71332177734375,0.24887172877788544,3.998246908187866,-2.001889228820801
1733768855466281700,3.72328173828125,0.3049882650375366,3.5844500064849854,-1.9676144123077393
1733768855476242700,3.73324267578125,0.2656296193599701,3.364382743835449,-1.831942081451416
1733768855486202600,3.74320263671875,0.26217523217201233,2.9245402812957764,-1.5903542041778564
1733768855496162600,3.75316259765625,0.3132825493812561,1.756066918373108,-1.469285011291504
1733768855506123800,3.763123779296875,0.31778037548065186,0.270072340965271,-1.1988152265548706
1733768855516083700,3.773083740234375,0.24451760947704315,-1.1129451990127563,-0.738697350025177
1733768855526044700,3.783044677734375,0.1872497797012329,-2.3266913890838623,-0.28594502806663513
1733768855536004900,3.7930048828125,0.2225833386182785,-3.3264265060424805,0.016029376536607742
1733768855545965600,3.802965576171875,0.29097676277160645,-4.018572807312012,0.17505738139152527
1733768855555925500,3.812925537109375,0.3400871157646179,-4.307823657989502,0.24457509815692902
1733768855565885700,3.8228857421875,0.3331591784954071,-4.151845455169678,0.24989742040634155
1733768855575846700,3.8328466796875,0.296989768743515,-3.7152099609375,0.2234123796224594
1733768855585806600,3.842806640625,0.2598056495189667,-3.0371570587158203,0.24978193640708923
1733768855595767800,3.852767822265625,0.24422644078731537,-2.2385997772216797,0.3272565007209778
1733768855605727700,3.862727783203125,0.2522566616535187,-1.4646655321121216,0.3913883566856384
1733768855615687700,3.872687744140625,0.27678170800209045,-0.745267391204834,0.3877231478691101
1733768855625648600,3.882648681640625,0.2835461497306824,-0.052575498819351196,0.24284346401691437
1733768855635608600,3.892608642578125,0.24798190593719482,0.488406777381897,-0.014401420950889587
1733768855645569500,3.902569580078125,0.2363276481628418,0.8474035859107971,-0.2934170663356781
1733768855655529700,3.91252978515625,0.22269557416439056,1.126950979232788,-0.5315427780151367
1733768855665489700,3.92248974609375,0.12164513021707535,1.1844425201416016,-0.7793999910354614
1733768855675450600,3.93245068359375,-0.044418398290872574,1.0476616621017456,-0.9780203700065613
1733768855685410800,3.942410888671875,-0.14069567620754242,0.848052978515625,-1.059049367904663
1733768855695371500,3.95237158203125,-0.18132351338863373,0.6927688121795654,-1.0007827281951904
1733768855705331500,3.96233154296875,-0.2244803011417389,0.6077428460121155,-0.8577950596809387
1733768855715292700,3.972292724609375,-0.26784324645996094,0.5560886263847351,-0.7158809900283813
1733768855725252600,3.982252685546875,-0.28773680329322815,0.49971240758895874,-0.661214292049408
1733768855735212500,3.992212646484375,-0.2868207097053528,0.4642534852027893,-0.698861300945282
1733768855745173800,4.002173828125,-0.2667306065559387,0.5408833026885986,-0.7798283100128174
1733768855755133700,4.0121337890625,-0.23332646489143372,0.6930264830589294,-0.8711820244789124
1733768855765094700,4.0220947265625,-0.2137618213891983,0.8630253672599792,-0.8995436429977417
1733768855775054600,4.0320546875,-0.18537531793117523,1.1519056558609009,-0.8559454679489136
1733768855785014500,4.0420146484375,-0.18665389716625214,1.5821446180343628,-0.6463584303855896
1733768855794975700,4.051975830078125,-0.21029844880104065,3.974698066711426,2.6213274002075195
1733768855804935700,4.061935791015625,-0.44567686319351196,2.8846707344055176,2.278146982192993
1733768855814896600,4.071896728515625,-0.48998069763183594,1.23162043094635,1.8006547689437866
1733768855824856800,4.08185693359375,-0.36005041003227234,-0.11202264577150345,2.023193359375
1733768855834816800,4.091816650390625,-0.14632712304592133,-1.0565659999847412,2.277852773666382
1733768855844777500,4.101777587890625,-0.05559588596224785,-1.4528275728225708,2.4162979125976562
1733768855854737700,4.111737548828125,-0.036841776221990585,-1.3494317531585693,2.6466660499572754
1733768855864698600,4.12169873046875,-0.05310942977666855,-0.7316205501556396,2.9002013206481934
1733768855874658600,4.131658447265625,-0.06499265134334564,0.02699512243270874,3.13845157623291
1733768855884618800,4.14161865234375,-0.013785923831164837,0.5475094318389893,3.188371181488037
1733768855894579700,4.151579833984375,0.056494638323783875,0.8173146843910217,2.9186408519744873
1733768855904539600,4.16153955078125,0.08651378750801086,1.086804986000061,2.383822202682495
1733768855914500600,4.17150048828125,0.06847520172595978,1.3609716892242432,1.8120861053466797
1733768855924460500,4.18146044921875,0.003257046453654766,1.5555627346038818,1.411430835723877
1733768855934421800,4.191421875,-0.05365731194615364,1.5726983547210693,1.2973105907440186
1733768855944381700,4.201381591796875,-0.08226898312568665,1.2672820091247559,1.3579100370407104
1733768855954341600,4.211341552734375,-0.12885598838329315,0.4379179775714874,1.4579869508743286
1733768855964302800,4.221302734375,-0.26439276337623596,-0.8234975337982178,1.4673322439193726
1733768855974262800,4.2312626953125,-0.4177851974964142,-1.967548131942749,1.4158904552459717
1733768855984223500,4.241223388671875,-0.47899821400642395,-2.731179714202881,1.3154407739639282
1733768855994183700,4.25118359375,-0.4971565902233124,-2.959451913833618,1.2024489641189575
1733768856004143600,4.2611435546875,-0.5248476266860962,-2.7489616870880127,1.0804295539855957
1733768856014104600,4.2711044921875,-0.48387712240219116,-2.217636823654175,0.9389967322349548
1733768856024065500,4.2810654296875,-0.3677201569080353,-1.647845983505249,0.796867847442627
1733768856034026500,4.291026611328125,-0.19537629187107086,-0.8412482738494873,0.8029676675796509
1733768856043986400,4.300986328125,0.03926258161664009,0.06335565447807312,0.8945844173431396
1733768856053946400,4.3109462890625,0.26057371497154236,0.7052853107452393,0.9326751828193665
1733768856063907300,4.3209072265625,0.45744630694389343,0.760882556438446,0.8683001399040222
1733768856073867500,4.330867431640625,0.6509807109832764,0.41155141592025757,0.7677667737007141
1733768856083828500,4.340828369140625,0.7933040261268616,0.08937548100948334,0.6533054113388062
1733768856093788400,4.350788330078125,0.8728766441345215,-0.14484186470508575,0.5175560712814331
1733768856103749600,4.36074951171875,0.9517490863800049,-0.4280083179473877,0.3452810049057007
1733768856113709600,4.37070947265625,0.9788914918899536,-0.5495656132698059,0.17917591333389282
1733768856123669500,4.38066943359375,0.9709001779556274,-0.448527991771698,0.06542883813381195
1733768856133630500,4.39063037109375,0.9550694227218628,-0.29273122549057007,-0.03923714905977249
1733768856143590400,4.40059033203125,0.9572002291679382,-0.16338281333446503,-0.2066706120967865
1733768856153551600,4.410551513671875,0.9589258432388306,-0.0715779960155487,-0.4039807915687561
1733768856163511600,4.420511474609375,0.9060895442962646,0.0882236510515213,-0.5825151205062866
1733768856173471500,4.430471435546875,0.7548129558563232,0.3374723792076111,-0.629744827747345
1733768856183432700,4.4404326171875,0.5536110997200012,0.567757248878479,-0.3505403697490692
1733768856193392600,4.450392578125,0.3536939024925232,0.4176516830921173,0.08692999184131622
1733768856203353300,4.460353271484375,0.22462432086467743,-0.26353269815444946,0.2904066741466522
1733768856213313500,4.4703134765625,0.18186114728450775,-1.1665786504745483,0.41866451501846313
1733768856223273500,4.4802734375,0.25905394554138184,-1.8161659240722656,0.5761460065841675
1733768856233234400,4.490234375,0.40472570061683655,-2.2818801403045654,0.726980984210968
1733768856243194600,4.500194580078125,0.5386489033699036,-2.6937108039855957,0.6094391345977783
1733768856253155600,4.510155517578125,0.5951195955276489,-2.7774863243103027,0.3726322054862976
1733768856263115500,4.520115478515625,0.5659151077270508,-2.4513440132141113,0.23155337572097778
1733768856273075500,4.530075439453125,0.49262580275535583,-2.025635242462158,0.12661771476268768
1733768856283036400,4.540036376953125,0.4865548610687256,-1.6666011810302734,0.0020331779960542917
1733768856292996400,4.549996337890625,0.5950345993041992,-1.3933308124542236,-0.14031673967838287
1733768856302957600,4.55995751953125,0.736261248588562,-1.0663902759552002,-0.22277726233005524
1733768856312917500,4.56991748046875,0.8572214245796204,-0.629980206489563,-0.2910816967487335
1733768856322878500,4.57987841796875,0.8966135382652283,-0.21308982372283936,-0.47531867027282715
1733768856332838700,4.589838623046875,0.8580700755119324,0.23262277245521545,-0.7983980178833008
1733768856342798600,4.599798583984375,0.6590365767478943,0.801734447479248,-0.660091757774353
1733768856352759300,4.60975927734375,0.3238135576248169,0.9438685178756714,0.03900442644953728
1733768856362719500,4.619719482421875,0.11526832729578018,0.688887894153595,0.39049428701400757
1733768856372680400,4.629680419921875,-0.14479567110538483,0.39312416315078735,-0.08239526301622391
1733768856382640400,4.639640380859375,-0.14969481527805328,0.1991187334060669,-0.6519226431846619
1733768856392600600,4.6496005859375,0.09550528228282928,1.1684575080871582,-0.41412490606307983
1733768856402561500,4.6595615234375,0.06129937246441841,3.666457414627075,0.9103681445121765
1733768856412521500,4.669521484375,-0.1463584154844284,5.587733745574951,2.1391568183898926
1733768856422482400,4.679482421875,-0.462497740983963,5.870769500732422,2.3910157680511475
1733768856432442400,4.6894423828125,-1.0219097137451172,4.919188499450684,1.79533052444458
1733768856442403600,4.699403564453125,-1.6115010976791382,3.3308634757995605,0.7478455305099487
1733768856452363500,4.709363525390625,-2.0117788314819336,1.3554621934890747,-0.41271159052848816
1733768856462323500,4.719323486328125,-2.1403329372406006,0.12495772540569305,-1.3566190004348755
1733768856472284700,4.72928466796875,-2.1142640113830566,-0.49611696600914,-1.9510865211486816
1733768856482244600,4.73924462890625,-2.066521167755127,-0.786435067653656,-2.075423002243042
1733768856492205300,4.749205322265625,-2.0465221405029297,-0.9931151866912842,-1.6537086963653564
1733768856502165500,4.75916552734375,-1.7850991487503052,-1.2348002195358276,-1.1109542846679688
1733768856512125400,4.76912548828125,-1.1795976161956787,-1.5093632936477661,-0.8346791863441467
1733768856522086400,4.77908642578125,-0.6897458434104919,-1.783115029335022,-0.6485505700111389
1733768856532046600,4.789046630859375,-0.35186728835105896,-2.0852930545806885,-0.6505327820777893
1733768856542007600,4.799007568359375,-0.3193455636501312,-2.4253904819488525,-0.8301321268081665
1733768856551967500,4.808967529296875,-0.7353370189666748,-1.7812340259552002,-1.5881460905075073
1733768856561927700,4.818927734375,-1.224433183670044,1.821771502494812,-3.793667793273926
1733768856571888400,4.828888427734375,-0.8632829785346985,4.043519973754883,-4.80051326751709
1733768856581848300,4.838848388671875,-0.10722219198942184,4.353466987609863,-4.329957008361816
1733768856591809500,4.8488095703125,0.2771497070789337,3.9670188426971436,-3.2718474864959717
1733768856601769500,4.85876953125,0.37027204036712646,3.568955421447754,-2.373922824859619
1733768856611729400,4.8687294921875,0.33067581057548523,4.161275386810303,-1.5941301584243774
1733768856621690600,4.878690673828125,0.450653612613678,4.67351770401001,-1.1635031700134277
1733768856631650600,4.888650634765625,0.6629619002342224,3.0760304927825928,-1.6247212886810303
1733768856641611500,4.898611572265625,0.4649624824523926,1.3382973670959473,-1.5712153911590576
1733768856651571500,4.908571533203125,0.2897011935710907,-0.17045378684997559,-0.9767311811447144
1733768856661532400,4.918532470703125,0.2883720099925995,-1.727836012840271,-0.40711647272109985
1733768856671492600,4.92849267578125,0.28332698345184326,-3.0775954723358154,-0.0003777449019253254
1733768856681452500,4.93845263671875,0.28997209668159485,-3.970217227935791,0.27596649527549744
1733768856691413500,4.94841357421875,0.3596627116203308,-4.44078254699707,0.41090381145477295
1733768856701373700,4.958373779296875,0.4631006717681885,-4.4803667068481445,0.45398762822151184
1733768856711334400,4.96833447265625,0.523968517780304,-4.263648509979248,0.43777501583099365
1733768856721294300,4.97829443359375,0.49059516191482544,-3.7602851390838623,0.4221835434436798
1733768856731254500,4.988254638671875,0.38711071014404297,-2.9489917755126953,0.4726336896419525
1733768856741215500,4.998215576171875,0.32159507274627686,-1.9660508632659912,0.5492373704910278
1733768856751175400,5.008175537109375,0.2801956534385681,-0.9506558775901794,0.5610081553459167
1733768856761136600,5.01813671875,0.24408821761608124,0.0015693572349846363,0.4745025336742401
1733768856771096600,5.0280966796875,0.20807650685310364,0.7307419180870056,0.2974424362182617
1733768856781056500,5.038056396484375,0.1721946746110916,1.2404768466949463,0.04459312930703163
1733768856791017500,5.048017578125,0.12013000249862671,1.5088266134262085,-0.2651371359825134
1733768856800977400,5.057977294921875,0.22785459458827972,1.7076950073242188,-0.41586539149284363
1733768856810938400,5.0679384765625,0.17188653349876404,1.6997133493423462,-0.6632474064826965
1733768856820898600,5.077898681640625,0.07522045075893402,1.4507524967193604,-0.9441837668418884
1733768856830859500,5.087859619140625,0.033339112997055054,1.0502640008926392,-1.1510223150253296
1733768856840819500,5.0978193359375,0.023786088451743126,0.5582666397094727,-1.2692304849624634
1733768856850779600,5.107779541015625,0.0036247624084353447,0.05426126345992088,-1.3259321451187134
1733768856860740400,5.117740234375,-0.05514933913946152,-0.4181904196739197,-1.3794461488723755
1733768856870700300,5.1277001953125,-0.10791222006082535,-0.8088110089302063,-1.4513838291168213
1733768856880661500,5.13766162109375,-0.15200510621070862,-1.0338441133499146,-1.536434531211853
1733768856890621400,5.147621337890625,-0.21519120037555695,-1.1210801601409912,-1.6334638595581055
1733768856900581400,5.157581298828125,-0.3524015247821808,-1.0145363807678223,-1.672651767730713
1733768856910542600,5.16754248046875,-0.5155342221260071,-0.6091837882995605,-1.5410019159317017
1733768856920502500,5.17750244140625,-0.672966718673706,-0.00002694595605134964,-1.2839291095733643
1733768856930463500,5.18746337890625,-0.7895822525024414,0.630812406539917,-1.0012708902359009
1733768856940423400,5.19742333984375,-0.8115959763526917,1.1064263582229614,-0.7482214570045471
1733768856950383400,5.20738330078125,-0.7535673379898071,1.2366350889205933,-0.5098661780357361
1733768856960344600,5.217344482421875,-0.6536393761634827,1.0149863958358765,-0.2379467785358429
1733768856970304500,5.227304443359375,-0.5006201267242432,0.537318229675293,0.004999416880309582
1733768856980265500,5.237265380859375,-0.30007827281951904,-0.16822771728038788,0.2001127153635025
1733768856990225700,5.2472255859375,-0.09979577362537384,-0.9169020652770996,0.3684912621974945
1733768857000185600,5.257185546875,0.061300165951251984,-1.5081208944320679,0.5244877934455872
1733768857010146300,5.267146240234375,0.07881178706884384,-1.874815821647644,0.9063879251480103
1733768857020106200,5.277106201171875,0.03879699110984802,-2.0776567459106445,1.7170888185501099
1733768857030067200,5.287067138671875,0.11440306901931763,-2.2604551315307617,2.055168867111206
1733768857040027400,5.29702734375,0.0858830139040947,-2.156714677810669,1.9231358766555786
1733768857049988400,5.30698828125,-0.09185661375522614,-1.551997423171997,1.77614164352417
1733768857059948300,5.3169482421875,-0.27771517634391785,-0.5796474814414978,1.8315789699554443
1733768857069908500,5.326908447265625,-0.4109346568584442,0.529884397983551,2.0480902194976807
1733768857079869200,5.336869140625,-0.46248388290405273,1.4638367891311646,2.3129138946533203
1733768857089829000,5.3468291015625,-0.4358046054840088,1.9905914068222046,2.487872362136841
1733768857099790300,5.356790283203125,-0.3254605233669281,1.9185502529144287,2.5486512184143066
1733768857109750300,5.366750244140625,-0.17240706086158752,1.4390567541122437,2.5206634998321533
1733768857119710200,5.376710205078125,-0.05954761803150177,0.8942693471908569,2.414055109024048
1733768857129671400,5.38667138671875,0.03761235624551773,0.5259764790534973,2.2188003063201904
1733768857139631400,5.39663134765625,0.08006501197814941,0.3923584818840027,1.9919177293777466
1733768857149592300,5.40659228515625,-0.019507121294736862,0.23456452786922455,1.7261024713516235
1733768857159552300,5.41655224609375,-0.1802975982427597,0.09811481088399887,1.4116861820220947
1733768857169512200,5.42651220703125,-0.23721548914909363,-0.016876518726348877,1.1156892776489258
1733768857179473400,5.436473388671875,-0.15479038655757904,-0.13511474430561066,0.895114541053772
1733768857189433300,5.446433349609375,-0.06183813512325287,-0.24549609422683716,0.7585736513137817
1733768857199394300,5.456394287109375,-0.0033695006277412176,-0.27829238772392273,0.7025468945503235
1733768857209354500,5.4663544921875,0.038297444581985474,-0.16093780100345612,0.6926671862602234
1733768857219315200,5.476315185546875,0.0795319676399231,0.10068528354167938,0.6851804852485657
1733768857229275100,5.486275146484375,0.15613499283790588,0.35599273443222046,0.6428595185279846
1733768857239235300,5.4962353515625,0.256776362657547,0.6601957678794861,0.6044966578483582
1733768857249196300,5.5061962890625,0.34495991468429565,0.9100998640060425,0.5634362697601318
1733768857259156200,5.51615625,0.41458985209465027,0.9205197095870972,0.49037542939186096
1733768857269117400,5.526117431640625,0.43275269865989685,0.7580206990242004,0.38971346616744995
1733768857279077400,5.536077392578125,0.4551067352294922,0.5899850726127625,0.3068057894706726
1733768857289037300,5.546037353515625,0.5040634870529175,0.4673982560634613,0.24159757792949677
1733768857298998300,5.555998291015625,0.5438692569732666,0.3375196158885956,0.1539260447025299
1733768857308958200,5.565958251953125,0.5746773481369019,0.23728890717029572,0.03281189873814583
1733768857318919400,5.57591943359375,0.5919197201728821,0.16759638488292694,-0.09922922402620316
1733768857328879400,5.58587939453125,0.5822438597679138,0.20243002474308014,-0.19922474026679993
1733768857338839300,5.59583935546875,0.5547781586647034,0.26651206612586975,-0.25145280361175537
1733768857348800500,5.605800537109375,0.5492938160896301,0.09434967488050461,-0.3135051429271698
1733768857358760400,5.615760498046875,0.5009169578552246,0.010626286268234253,-0.27971336245536804
1733768857368721200,5.62572119140625,0.442385196685791,0.27189701795578003,0.17261362075805664
1733768857378681300,5.635681396484375,0.3722849488258362,0.3592865467071533,0.49273598194122314
1733768857388641300,5.645641357421875,0.29900455474853516,0.025660153478384018,0.3760240077972412
1733768857398602200,5.655602294921875,0.31309640407562256,-0.34748759865760803,0.1747438758611679
1733768857408562200,5.665562255859375,0.33918899297714233,-0.5147265791893005,0.007200600579380989
1733768857418523400,5.6755234375,0.3523061275482178,-0.4611525535583496,-0.0822797417640686
1733768857428483300,5.6854833984375,0.33623531460762024,-0.37711402773857117,-0.07207661122083664
1733768857438444300,5.6954443359375,0.295380562543869,-0.3597067892551422,0.030773602426052094
1733768857448404200,5.705404296875,0.2474360167980194,-0.4069523811340332,0.11476550251245499
1733768857458364200,5.7153642578125,0.21895058453083038,-0.569564163684845,0.16220572590827942
1733768857468325400,5.725325439453125,0.19278782606124878,-0.7483278512954712,0.31736186146736145
1733768857478285300,5.735285400390625,0.1787676215171814,-0.7930300831794739,0.5387941002845764
1733768857488246300,5.745246337890625,0.2111302763223648,-0.945634663105011,0.6406016945838928
1733768857498206500,5.75520654296875,0.25669801235198975,-1.3157094717025757,0.6312881112098694
1733768857508166400,5.76516650390625,0.2898048460483551,-1.6386603116989136,0.6189550161361694
1733768857518127000,5.775127197265625,0.2743039131164551,-1.6943554878234863,0.7292522192001343
1733768857528087300,5.78508740234375,0.23687486350536346,-1.6506567001342773,0.8831077218055725
1733768857538048300,5.79504833984375,0.2354508638381958,-1.5899516344070435,0.9485309720039368
1733768857548008200,5.80500830078125,0.31982743740081787,-1.3873612880706787,0.9692125916481018
1733768857557968400,5.814968505859375,0.494167298078537,-1.2587313652038574,0.7668789625167847
1733768857567929300,5.824929443359375,0.6894879937171936,-1.2681077718734741,0.36434388160705566
1733768857577889300,5.83488916015625,0.8783673644065857,-1.3057830333709717,0.0015004356391727924
1733768857587850200,5.844850341796875,0.97132408618927,-1.272387146949768,-0.1337631195783615
1733768857597810200,5.85481005859375,0.8623208999633789,-1.2449402809143066,0.1823200136423111
1733768857607771400,5.864771484375,0.6232302188873291,-1.0846691131591797,0.9613151550292969
1733768857617731300,5.8747314453125,0.39912149310112,-1.4902863502502441,1.0610780715942383
1733768857627691300,5.884691162109375,0.4268573820590973,-2.173726797103882,-0.1860349029302597
1733768857637652500,5.894652587890625,0.47726088762283325,-1.5987317562103271,-1.2693419456481934
1733768857647612400,5.9046123046875,0.4821620583534241,-0.20734751224517822,-1.308975338935852
1733768857657573000,5.914572998046875,0.3713279366493225,1.296025037765503,-0.5730190277099609
1733768857667533300,5.924533203125,0.12441596388816833,1.921219825744629,0.20730075240135193
1733768857677493200,5.9344931640625,-0.19144479930400848,1.6028720140457153,0.5877493023872375
1733768857687454200,5.9444541015625,-0.5022855997085571,0.9297451376914978,0.48984095454216003
1733768857697414400,5.954414306640625,-0.8727283477783203,0.11907598376274109,0.08665356040000916
1733768857707375400,5.964375244140625,-1.2745230197906494,-0.36690306663513184,-0.33436843752861023
1733768857717335300,5.974335205078125,-1.5555959939956665,-0.34497272968292236,-0.6426833868026733
1733768857727295500,5.98429541015625,-1.657139539718628,0.09057546406984329,-0.7827093601226807
1733768857737256200,5.994256103515625,-1.6292399168014526,0.810002863407135,-0.7201809883117676
1733768857747216100,6.004216064453125,-1.4615105390548706,1.5486609935760498,-0.5830734968185425
1733768857757177300,6.01417724609375,-0.8791521191596985,2.0772957801818848,-0.5789996385574341
1733768857767137300,6.02413720703125,-0.2921454608440399,2.360365629196167,-0.7057360410690308
1733768857777098500,6.034098388671875,0.03934912756085396,2.4627504348754883,-1.234250783920288
1733768857787058400,6.044058349609375,0.035080548375844955,2.241414785385132,-1.9859929084777832
1733768857797018400,6.054018310546875,-0.12332426756620407,2.0072431564331055,-2.440629482269287
1733768857806979300,6.063979248046875,-0.21602430939674377,1.8897062540054321,-2.299086809158325
1733768857816939300,6.073939208984375,-0.23189514875411987,1.9038522243499756,-1.7432371377944946
1733768857826900200,6.083900146484375,-0.2071414589881897,1.8999700546264648,-1.1566327810287476
1733768857836860400,6.0938603515625,-0.14419366419315338,1.7324076890945435,-0.7905791997909546
1733768857846820400,6.1038203125,-0.10308171808719635,1.3046666383743286,-0.6913735866546631
1733768857856781300,6.11378125,-0.08319828659296036,0.7158145308494568,-0.686150074005127
1733768857866741500,6.123741455078125,-0.0498184971511364,0.06857379525899887,-0.6158393621444702
1733768857876702200,6.1337021484375,-0.0243791826069355,-0.4714670777320862,-0.4368634819984436
1733768857886662100,6.143662109375,-0.021008551120758057,-0.7976486682891846,-0.22842755913734436
1733768857896622300,6.153622314453125,0.05906524509191513,-0.9642360210418701,-0.13213777542114258
1733768857906583300,6.163583251953125,0.14187581837177277,-1.0099459886550903,-0.12196938693523407
1733768857916543200,6.173543212890625,0.10584671050310135,-0.8829362392425537,-0.18844109773635864
1733768857926504400,6.18350439453125,0.06745679676532745,-0.5702667236328125,-0.34297117590904236
1733768857936464400,6.19346435546875,0.07609662413597107,-0.15694919228553772,-0.5270355939865112
1733768857946425000,6.203425048828125,0.014635991305112839,0.32698193192481995,-0.6435412764549255
1733768857956385300,6.21338525390625,-0.05780971422791481,0.7907980680465698,-0.725624680519104
1733768857966345200,6.22334521484375,-0.09210602939128876,1.162234902381897,-0.7691089510917664
1733768857976306200,6.23330615234375,-0.12794259190559387,1.3382261991500854,-0.7673547267913818
1733768857986266400,6.243266357421875,-0.17166496813297272,1.3589667081832886,-0.7154315114021301
1733768857996227300,6.253227294921875,-0.21409444510936737,1.2522099018096924,-0.6399564743041992
1733768858006187300,6.263187255859375,-0.27379879355430603,1.0588394403457642,-0.5675186514854431
1733768858016147500,6.2731474609375,-0.3179350793361664,0.8642159104347229,-0.515825629234314
1733768858026108000,6.28310791015625,-0.33361420035362244,0.7186686992645264,-0.4852202236652374
1733768858036067800,6.29306787109375,-0.3397567868232727,0.6784530878067017,-0.4648478329181671
1733768858046028800,6.30302880859375,-0.3486340045928955,0.7029594779014587,-0.43095648288726807
1733768858055989000,6.312989013671875,-0.3763708174228668,0.8327619433403015,-0.3742295503616333
1733768858065949000,6.322948974609375,-0.3878990709781647,0.9740309119224548,-0.36034640669822693
1733768858075910000,6.332909912109375,-0.38058897852897644,1.145843505859375,-0.3446531891822815
1733768858085870000,6.3428701171875,-0.3719135820865631,1.3933218717575073,-0.27326714992523193
1733768858095831000,6.3528310546875,-0.3522016704082489,1.6131197214126587,-0.168809711933136
1733768858105791000,6.362791015625,-0.3084394037723541,1.6989715099334717,-0.03898276761174202
1733768858115751000,6.3727509765625,-0.2609027624130249,1.6653152704238892,0.16405770182609558
1733768858125712000,6.3827119140625,-0.23161804676055908,1.5298410654067993,0.3640627861022949
1733768858135671800,6.392671875,-0.22050787508487701,1.3227437734603882,0.4696238338947296
1733768858145633000,6.402633056640625,-0.27302855253219604,1.1743632555007935,0.43266379833221436
1733768858155593000,6.412593017578125,-0.40097132325172424,1.1718521118164062,0.29780423641204834
1733768858165553000,6.422552978515625,-0.5604323744773865,1.266660451889038,0.10267453640699387
1733768858175513900,6.432513916015625,-0.7160773873329163,1.4431508779525757,-0.05970637872815132
1733768858185473800,6.442473876953125,-0.8369632363319397,1.6303298473358154,-0.10728833824396133
1733768858195434800,6.452434814453125,-0.915168285369873,1.6471577882766724,-0.06630708277225494
1733768858205395000,6.46239501953125,-0.9073479175567627,1.4641289710998535,0.03856414556503296
1733768858215356000,6.47235595703125,-0.8131138682365417,1.1885815858840942,0.1706385612487793
1733768858225315800,6.48231591796875,-0.6509809494018555,0.9394105672836304,0.3232841491699219
1733768858235276000,6.492276123046875,-0.5339898467063904,0.8067100048065186,0.4958907961845398
1733768858245237000,6.502237060546875,-0.46354517340660095,0.8450070023536682,0.7095649838447571
1733768858255197000,6.512197021484375,-0.20345152914524078,1.2281464338302612,0.9024503231048584
1733768858265158000,6.522157958984375,0.10413465648889542,2.0489935874938965,1.0822362899780273
1733768858275117800,6.532117919921875,0.25992318987846375,3.210911512374878,1.1628289222717285
1733768858285077800,6.542077880859375,0.230915367603302,4.535379886627197,0.9752523303031921
1733768858295039000,6.5520390625,0.09675809741020203,5.69691801071167,0.45901378989219666
1733768858304999000,6.5619990234375,0.06840169429779053,6.356058597564697,-0.31932443380355835
1733768858314960100,6.571960205078125,0.19920150935649872,6.427672863006592,-1.1270323991775513
1733768858324920000,6.581920166015625,0.38862037658691406,6.071356773376465,-1.6535520553588867
1733768858334880000,6.5918798828125,0.11949436366558075,5.350278377532959,-1.718778133392334
1733768858344841000,6.601841064453125,-0.3943573832511902,4.357657432556152,-1.0951045751571655
1733768858354801000,6.61180078125,-0.7235201001167297,2.6892800331115723,0.5928599238395691
1733768858364761900,6.621761962890625,-1.1055361032485962,1.8960635662078857,1.4146645069122314
1733768858374722000,6.63172216796875,-1.5007457733154297,2.1231255531311035,1.2607975006103516
1733768858384682000,6.641681884765625,-1.6622626781463623,2.6355857849121094,0.9710804224014282
1733768858394643000,6.651642822265625,-1.7428536415100098,3.2256357669830322,0.6603893637657166
1733768858404603000,6.661602783203125,-1.7819263935089111,3.762338399887085,0.3439697325229645
1733768858414563800,6.671563720703125,-1.715133547782898,4.1977057456970215,0.05434217303991318
1733768858424523800,6.681523681640625,-1.6460494995117188,4.37800407409668,-0.220251202583313
1733768858434485000,6.691485107421875,-1.5773136615753174,4.401017189025879,-0.42355266213417053
1733768858444445000,6.70144482421875,-1.4203307628631592,4.38803243637085,-0.4966222643852234
1733768858454404900,6.71140478515625,-1.170196294784546,4.063353538513184,-0.4558822810649872
1733768858464366000,6.721365966796875,-0.897422194480896,3.230407953262329,-0.39006784558296204
1733768858474326000,6.731325927734375,-0.760766863822937,2.3627450466156006,-0.27396440505981445
1733768858484287000,6.741286865234375,-0.6510001420974731,1.4076377153396606,-0.25534188747406006
1733768858494247000,6.751246826171875,-0.48940834403038025,0.6363985538482666,-0.3694354295730591
1733768858504206800,6.761206787109375,-0.3097843527793884,0.31583431363105774,-0.5503148436546326
1733768858514168000,6.77116796875,-0.18831945955753326,0.47215893864631653,-0.70419842004776
1733768858524128000,6.7811279296875,-0.14277812838554382,0.9219027757644653,-0.8151221871376038
1733768858534089000,6.7910888671875,-0.11103857308626175,1.3941537141799927,-0.9050808548927307
1733768858544049200,6.801049072265625,-0.07641920447349548,1.7496851682662964,-1.0095722675323486
1733768858554009000,6.811009033203125,-0.048033371567726135,1.874929666519165,-1.156890630722046
1733768858563969800,6.8209697265625,-0.02249273471534252,1.7839988470077515,-1.3323547840118408
1733768858573930000,6.830929931640625,0.01669354923069477,1.4958869218826294,-1.4302380084991455
1733768858583891000,6.840890869140625,0.05404604971408844,1.077002763748169,-1.3666077852249146
1733768858593851000,6.850850830078125,-0.04944385960698128,0.4437837600708008,-0.521390438079834
1733768858603811000,6.86081103515625,-0.09936428815126419,-0.3361116945743561,0.01306743361055851
1733768858613772000,6.87077197265625,-0.11479517072439194,-0.6301305890083313,-0.3834010660648346
1733768858623732000,6.88073193359375,-0.2972557246685028,-0.25913044810295105,-0.7288876175880432
1733768858633693000,6.89069287109375,-0.3831535875797272,0.5624004006385803,-0.7929710149765015
1733768858643652900,6.90065283203125,-0.38363367319107056,1.5607242584228516,-0.729058563709259
1733768858653614000,6.910614013671875,-0.45379891991615295,2.404407501220703,-0.6403947472572327
1733768858663574000,6.920573974609375,-0.5686527490615845,2.8691329956054688,-0.5604696273803711
1733768858673534000,6.930533935546875,-0.6312053799629211,2.948042392730713,-0.4573189914226532
1733768858683495200,6.9404951171875,-0.6279605627059937,2.792297840118408,-0.32758629322052
1733768858693455000,6.950455078125,-0.5885471105575562,2.5720269680023193,-0.1988174021244049
1733768858703415800,6.960415771484375,-0.5555068254470825,2.3567934036254883,-0.10932725667953491
1733768858713376000,6.9703759765625,-0.513330340385437,2.160256862640381,-0.05991896241903305
1733768858723336000,6.9803359375,-0.47958889603614807,1.9575449228286743,-0.05729556083679199
1733768858733297000,6.990296875,-0.441416472196579,1.756508708000183,-0.09099280834197998
1733768858743257000,7.000257080078125,-0.4051305055618286,1.576614499092102,-0.12430469691753387
1733768858753218000,7.010218017578125,-0.36180007457733154,1.4131392240524292,-0.1411776840686798
1733768858763178000,7.020177978515625,-0.3169799745082855,1.2711280584335327,-0.11537482589483261
1733768858773138000,7.030137939453125,-0.2839035093784332,1.1917719841003418,-0.03422031179070473
1733768858783099000,7.040098876953125,-0.24894824624061584,1.193535327911377,0.04256027936935425
1733768858793058800,7.050058837890625,-0.23613311350345612,1.2868658304214478,-0.002219710499048233
1733768858803020000,7.06002001953125,-0.23318712413311005,1.519870400428772,-0.11608816683292389
1733768858812980000,7.06997998046875,-0.23407554626464844,1.8350576162338257,-0.22431503236293793
1733768858822940000,7.07993994140625,-0.20175282657146454,2.075359344482422,-0.3189655840396881
1733768858832901000,7.089901123046875,-0.12768739461898804,2.150169610977173,-0.40290603041648865
1733768858842861000,7.099861083984375,-0.03737328201532364,2.025531768798828,-0.48618701100349426
1733768858852821800,7.10982177734375,0.051290273666381836,1.70891273021698,-0.5860055088996887
1733768858862782000,7.119781982421875,0.14304395020008087,1.2864935398101807,-0.6832833290100098
1733768858872743000,7.129742919921875,0.21987907588481903,0.8724638819694519,-0.7540741562843323
1733768858882702800,7.139702880859375,0.2963659465312958,0.5080494284629822,-0.7731161713600159
1733768858892663000,7.1496630859375,0.3961543142795563,0.18108803033828735,-0.7334635257720947
1733768858902624000,7.1596240234375,0.5758904814720154,-0.05064759775996208,-0.47506222128868103
1733768858912584000,7.169583984375,0.7945583462715149,-0.17628434300422668,0.2392987608909607
1733768858922545000,7.179544921875,0.8951595425605774,-0.5391227006912231,0.5567736029624939
1733768858932504800,7.1895048828125,0.8040525317192078,-1.135376214981079,-0.0016597956418991089
1733768858942464800,7.19946484375,0.6857860684394836,-1.3612440824508667,-0.6463419198989868
1733768858952426000,7.209426025390625,0.6618756651878357,-1.0239555835723877,-0.8483365774154663
1733768858962386000,7.219385986328125,0.8572947382926941,-0.3759087920188904,-0.7634418606758118
1733768858972347100,7.22934716796875,1.062549114227295,0.4676682651042938,-0.6439481973648071
1733768858982307000,7.23930712890625,1.0500961542129517,1.499838948249817,-0.4696332514286041
1733768858992267000,7.24926708984375,0.884788990020752,2.5517921447753906,-0.27284348011016846
1733768859002228000,7.25922802734375,0.7104135155677795,3.3902106285095215,-0.17003133893013
1733768859012188000,7.26918798828125,0.4854946434497833,3.8566598892211914,-0.2249542474746704
1733768859022149600,7.279149658203125,0.18586306273937225,3.965256929397583,-0.3099517226219177
1733768859032109600,7.289109619140625,-0.11627335846424103,3.82104754447937,-0.2775506377220154
1733768859042069500,7.299069580078125,-0.33545932173728943,3.6122543811798096,-0.12085352838039398
1733768859052030500,7.309030517578125,-0.37411054968833923,3.243438243865967,0.04095001518726349
1733768859061990400,7.318990478515625,-0.32112517952919006,2.5783281326293945,0.12171436846256256
1733768859071951600,7.32895166015625,-0.31768304109573364,1.8654038906097412,0.16342905163764954
1733768859081911600,7.33891162109375,-0.3360305428504944,1.1765486001968384,0.19252844154834747
1733768859091871500,7.34887158203125,-0.34574761986732483,0.4363842308521271,0.16577699780464172
1733768859101832700,7.358832763671875,-0.35583382844924927,-0.42389824986457825,0.0552247017621994
1733768859111792600,7.368792724609375,-0.40065455436706543,-1.2936389446258545,-0.014604978263378143
1733768859121753300,7.37875341796875,-0.4048040509223938,-1.944839596748352,-0.05422428995370865
1733768859131713500,7.388713623046875,-0.3146408796310425,-2.326655149459839,-0.15006746351718903
1733768859141673500,7.398673583984375,-0.23125092685222626,-2.283867359161377,-0.386907696723938
1733768859151634400,7.408634521484375,-0.23598085343837738,-1.5784541368484497,-0.7678460478782654
1733768859161594600,7.4185947265625,-0.3133637011051178,-0.364888995885849,-1.1648569107055664
1733768859171555600,7.4285556640625,-0.2816252112388611,0.864691436290741,-1.3433805704116821
1733768859181515500,7.438515625,-0.05518529564142227,1.6845660209655762,-1.226638674736023
1733768859191476500,7.4484765625,0.21933387219905853,2.0278546810150146,-0.9183365106582642
1733768859201436400,7.4584365234375,0.3739342987537384,1.999146580696106,-0.6046361327171326
1733768859211396400,7.468396240234375,0.41239407658576965,1.839838981628418,-0.4365861117839813
1733768859221357600,7.478357666015625,0.4446823000907898,1.7407240867614746,-0.42949795722961426
1733768859231317500,7.4883173828125,0.517582356929779,1.7223511934280396,-0.5305015444755554
1733768859241278700,7.49827880859375,0.5881963968276978,1.7351986169815063,-0.6340634226799011
1733768859251238700,7.50823876953125,0.6170267462730408,1.7406868934631348,-0.6676552295684814
1733768859261198600,7.518198486328125,0.578062891960144,1.7133409976959229,-0.6432075500488281
1733768859271159600,7.52815966796875,0.522773802280426,1.6903834342956543,-0.6118147373199463
1733768859281119500,7.538119384765625,0.4888768792152405,1.7240467071533203,-0.6231186389923096
1733768859291080400,7.54808056640625,0.46908825635910034,1.827369213104248,-0.6876246929168701
1733768859301040600,7.55804052734375,0.43845030665397644,2.062544584274292,-0.7633284330368042
1733768859311000600,7.56800048828125,0.38789525628089905,2.3141229152679443,-0.8060500621795654
1733768859320961500,7.57796142578125,0.3292236924171448,2.5233705043792725,-0.8056231141090393
1733768859330921700,7.587921630859375,0.2680223882198334,2.6908557415008545,-0.7539876103401184
1733768859340882400,7.59788232421875,0.1948801428079605,2.8435683250427246,-0.6699285507202148
1733768859350842400,7.60784228515625,0.16840246319770813,2.8805971145629883,-0.5754366517066956
1733768859360802600,7.617802490234375,0.1507166028022766,2.697601795196533,-0.4599195420742035
1733768859370763500,7.627763427734375,0.126460000872612,2.2872564792633057,-0.32938259840011597
1733768859380723500,7.637723388671875,0.0669432058930397,1.7719546556472778,-0.18533547222614288
1733768859390684700,7.6476845703125,0.028215516358613968,1.2758910655975342,-0.004290313925594091
1733768859400644600,7.65764453125,0.013297423720359802,0.8338590264320374,0.1971130073070526
1733768859410604500,7.6676044921875,0.019947070628404617,0.44158661365509033,0.34880295395851135
1733768859420565500,7.6775654296875,0.02952086739242077,0.08812686055898666,0.4149109125137329
1733768859430525400,7.687525390625,0.028770918026566505,-0.2244265079498291,0.38096892833709717
1733768859440486700,7.697486572265625,0.029567938297986984,-0.4713996946811676,0.2569640278816223
1733768859450446600,7.707446533203125,0.020839426666498184,-0.6641297340393066,0.056552086025476456
1733768859460406500,7.717406494140625,0.013166860677301884,-0.7975509166717529,-0.17888440191745758
1733768859470367700,7.72736767578125,-0.0044142636470496655,-0.8727654814720154,-0.4070376753807068
1733768859480327700,7.73732763671875,-0.04720234125852585,-0.8377231359481812,-0.5731691718101501
1733768859490288400,7.747288330078125,-0.0796942338347435,-0.6113645434379578,-0.6637510061264038
1733768859500248600,7.75724853515625,-0.10489613562822342,-0.2289651483297348,-0.7133676409721375
1733768859510209500,7.76720947265625,-0.12437156587839127,0.257368266582489,-0.764069676399231
1733768859520169500,7.77716943359375,-0.1498587429523468,0.853181779384613,-0.8930756449699402
1733768859530129700,7.787129638671875,-0.16840259730815887,1.4641377925872803,-1.0975755453109741
1733768859540090600,7.797090576171875,-0.1703861951828003,2.006016254425049,-1.3336206674575806
1733768859550050600,7.807050537109375,-0.184228777885437,2.4398858547210693,-1.5486061573028564
1733768859560011500,7.817011474609375,-0.188942089676857,2.772923707962036,-1.7123501300811768
1733768859569971500,7.826971435546875,-0.16901099681854248,3.0027873516082764,-1.8028148412704468
1733768859579931400,7.836931396484375,-0.12320216745138168,3.2105600833892822,-1.7990621328353882
1733768859589892600,7.846892578125,-0.059859417378902435,3.6084237098693848,-1.6252617835998535
1733768859599852500,7.8568525390625,-0.04424743726849556,4.363034725189209,-1.2270920276641846
1733768859609813500,7.8668134765625,0.11085639894008636,7.732280731201172,2.269460678100586
1733768859619773700,7.876773681640625,0.32823824882507324,6.7945990562438965,2.0308258533477783
1733768859629733600,7.886733642578125,0.345367968082428,4.815829277038574,1.4744144678115845
1733768859639694300,7.8966943359375,0.3867800533771515,2.8632426261901855,1.670337200164795
1733768859649654500,7.906654541015625,0.4695199429988861,1.1434675455093384,1.9147621393203735
1733768859659615500,7.916615478515625,0.3399973213672638,-0.10530244559049606,2.1216955184936523
1733768859669575400,7.926575439453125,0.08871608227491379,-0.8143932819366455,2.390852451324463
1733768859679535600,7.93653564453125,-0.08042274415493011,-1.116273283958435,2.7500274181365967
1733768859689496600,7.94649658203125,-0.15477047860622406,-1.0004066228866577,3.0647575855255127
1733768859699456500,7.95645654296875,-0.1867539882659912,-0.4070156216621399,3.2478959560394287
1733768859709417500,7.96641748046875,-0.2809968590736389,0.36999571323394775,3.083423137664795
1733768859719377400,7.97637744140625,-0.4671098589897156,1.0833781957626343,2.629420280456543
1733768859729337300,7.98633740234375,-0.6113780736923218,1.734269142150879,2.113554000854492
1733768859739298600,7.996298583984375,-0.6268993616104126,2.3820879459381104,1.6278270483016968
1733768859749258500,8.006258544921875,-0.5766699910163879,2.8628201484680176,1.2471942901611328
1733768859759219700,8.0162197265625,-0.5365796089172363,2.7669198513031006,1.0371888875961304
1733768859769179600,8.0261796875,-0.48228976130485535,2.054760694503784,0.9467024803161621
1733768859779139600,8.0361396484375,-0.5289993286132812,1.012487530708313,0.8734634518623352
1733768859789100500,8.0461005859375,-0.6116936802864075,0.028133973479270935,0.8122387528419495
1733768859799060500,8.056060546875,-0.6028112173080444,-0.7052913904190063,0.7950072884559631
1733768859809021400,8.066021484375,-0.5165011286735535,-1.1722824573516846,0.8183704018592834
1733768859818981600,8.075981689453124,-0.4597196578979492,-1.2288786172866821,0.879104495048523
1733768859828941600,8.085941650390625,-0.4145255386829376,-0.8516585826873779,0.9223041534423828
1733768859838902500,8.095902587890626,-0.31394070386886597,-0.25422877073287964,0.8972685933113098
1733768859848862700,8.10586279296875,-0.17815569043159485,0.29735928773880005,0.8350827097892761
1733768859858823400,8.115823486328125,-0.037011224776506424,0.7130926251411438,0.7644472718238831
1733768859868783400,8.125783447265626,0.09660834819078445,0.8765361309051514,0.7069131731987
1733768859878743600,8.13574365234375,0.18983517587184906,0.9958125352859497,0.6630130410194397
1733768859888704500,8.14570458984375,0.2539505064487457,1.099260926246643,0.6197617053985596
1733768859898664400,8.15566455078125,0.28888264298439026,1.0638492107391357,0.5356738567352295
1733768859908625700,8.165625732421875,0.31607112288475037,0.9633457660675049,0.4267841577529907
1733768859918585600,8.175585693359375,0.34109506011009216,0.8253307342529297,0.3056892454624176
1733768859928545500,8.185545654296876,0.35973453521728516,0.6555076241493225,0.189030259847641
1733768859938506500,8.195506591796875,0.39799997210502625,0.37762323021888733,0.04638690873980522
1733768859948466400,8.205466552734375,0.42095935344696045,0.15485700964927673,-0.09685920178890228
1733768859958427600,8.215427734375,0.40509742498397827,0.10743924230337143,-0.13601946830749512
1733768859968387600,8.2253876953125,0.3978586792945862,0.25978323817253113,-0.039606645703315735
1733768859978347500,8.235347412109375,0.4071155786514282,0.4909922182559967,0.02451082319021225
1733768859988308700,8.245308837890626,0.39965924620628357,0.6356104016304016,-0.04452763497829437
1733768859998268700,8.2552685546875,0.3442164659500122,0.7019400596618652,-0.16986972093582153
1733768860008229400,8.2652294921875,0.2700066864490509,0.6906972527503967,-0.2960588037967682
1733768860018189600,8.275189453125,0.19651179015636444,0.5995116829872131,-0.3573077619075775
1733768860028150300,8.285150390625,0.11901912838220596,0.38100194931030273,-0.33094513416290283
1733768860038110200,8.295110107421875,0.06025227904319763,0.11601896584033966,-0.20877182483673096
1733768860048070100,8.305070068359376,0.027116164565086365,-0.18123668432235718,-0.05274040251970291
1733768860058031400,8.31503125,0.03195919096469879,-0.5453737378120422,0.04312794655561447
1733768860067991300,8.3249912109375,0.06099323928356171,-0.8781729936599731,0.10114464908838272
1733768860077952500,8.334952392578124,0.12366154789924622,-1.0945223569869995,0.20281094312667847
1733768860087912400,8.344912353515625,0.24430593848228455,-1.2446013689041138,0.3590487539768219
1733768860097872400,8.354872314453125,0.36781901121139526,-1.4200938940048218,0.3523760437965393
1733768860107833300,8.364833251953126,0.42514941096305847,-1.5268168449401855,0.2084534764289856
1733768860117793300,8.374793212890625,0.3719135522842407,-1.5306674242019653,0.10174347460269928
1733768860127754200,8.384754150390625,0.2984313368797302,-1.4790163040161133,0.1301918774843216
1733768860137714400,8.39471435546875,0.2586533725261688,-1.3894727230072021,0.26326826214790344
1733768860147674400,8.40467431640625,0.2465604692697525,-1.3244432210922241,0.3411308228969574
1733768860157635300,8.41463525390625,0.27070480585098267,-1.290073275566101,0.31419938802719116
1733768860167595300,8.42459521484375,0.36657965183258057,-1.2768278121948242,0.22190219163894653
1733768860177556200,8.43455615234375,0.46444231271743774,-1.2458957433700562,0.13204142451286316
1733768860187516200,8.44451611328125,0.5165659785270691,-1.1402579545974731,-0.0033116061240434647
1733768860197476400,8.454476318359376,0.5369774699211121,-0.9314938187599182,-0.19930769503116608
1733768860207437300,8.464437255859375,0.5527340769767761,-0.5930478572845459,-0.4017241597175598
1733768860217397200,8.474397216796875,0.5480551719665527,-0.19496256113052368,-0.6105437278747559
1733768860227358500,8.4843583984375,0.49399566650390625,0.2660180926322937,-0.7970201373100281
1733768860237318400,8.494318359375,0.35750332474708557,0.7511861324310303,-0.8566877245903015
1733768860247278300,8.5042783203125,0.17519718408584595,1.2124639749526978,-0.6037747859954834
1733768860257239300,8.5142392578125,0.09294464439153671,1.446117877960205,-0.20530226826667786
1733768860267199200,8.52419921875,0.11136040091514587,1.346887230873108,-0.12324762344360352
1733768860277160400,8.534160400390626,0.11016444861888885,1.3611499071121216,-0.26793211698532104
1733768860287120400,8.544120361328124,-0.04365840554237366,1.753391146659851,-0.45674359798431396
1733768860297080300,8.554080322265625,-0.19229042530059814,2.427375078201294,-0.2931966483592987
1733768860307041300,8.564041259765625,-0.20637694001197815,2.7472853660583496,0.06554312258958817
1733768860317001200,8.574001220703124,-0.3000783324241638,2.5369491577148438,0.23739513754844666
1733768860326962200,8.583962158203125,-0.5569351315498352,2.0301764011383057,0.2701496183872223
1733768860336922400,8.59392236328125,-0.8316051959991455,1.51091468334198,0.280737042427063
1733768860346882300,8.60388232421875,-1.0493191480636597,0.9709528684616089,0.19088809192180634
1733768860356843300,8.61384326171875,-1.1498608589172363,0.3265482485294342,-0.018076259642839432
1733768860366803500,8.623803466796875,-1.1163058280944824,-0.3581659197807312,-0.31658226251602173
1733768860376764400,8.633764404296874,-1.0006685256958008,-0.8674634099006653,-0.581085205078125
1733768860386724400,8.643724365234375,-0.8309347033500671,-1.1695929765701294,-0.7343139052391052
1733768860396684300,8.653684326171875,-0.6235877871513367,-1.3188958168029785,-0.8080964684486389
1733768860406645200,8.663645263671874,-0.46901264786720276,-1.4011375904083252,-0.7956347465515137
1733768860416605200,8.673605224609375,-0.3665417730808258,-1.3099907636642456,-0.7310531139373779
1733768860426566400,8.68356640625,-0.2887822687625885,-1.1019980907440186,-0.6557742953300476
1733768860436526300,8.6935263671875,-0.26327452063560486,-0.8823506832122803,-0.6414896845817566
1733768860446486300,8.703486328125,-0.23570333421230316,-0.7152365446090698,-0.6824461221694946
1733768860456447500,8.713447509765626,-0.30094993114471436,-0.3141663670539856,-1.1983096599578857
1733768860466407400,8.723407470703124,-0.4022988975048065,0.8020728230476379,-2.2619388103485107
1733768860476368100,8.7333681640625,-0.25983232259750366,2.1061253547668457,-2.8293616771698
1733768860486328300,8.743328369140626,0.0759587436914444,3.0009827613830566,-2.5738470554351807
1733768860496288300,8.753288330078124,0.3173155188560486,3.464597463607788,-1.8529822826385498
1733768860506249200,8.763249267578125,0.3669586777687073,3.4742772579193115,-1.1949833631515503
1733768860516209400,8.77320947265625,0.38448527455329895,3.0891363620758057,-0.8499751091003418
1733768860526170400,8.78317041015625,0.4030517637729645,2.3905179500579834,-0.7912065982818604
1733768860536130300,8.79313037109375,0.3737751841545105,1.503461480140686,-0.836152195930481
1733768860546090200,8.80309033203125,0.2940446734428406,0.647687554359436,-0.8104934692382812
1733768860556051200,8.81305126953125,0.24209649860858917,-0.04653654247522354,-0.655406653881073
1733768860566011100,8.82301123046875,0.2449205219745636,-0.5927690267562866,-0.4373890459537506
1733768860575972400,8.832972412109376,0.25098681449890137,-1.036622166633606,-0.24866224825382233
1733768860585932300,8.842932373046875,0.24980303645133972,-1.3515660762786865,-0.12230190634727478
1733768860595892200,8.852892333984375,0.21692225337028503,-1.4946184158325195,-0.054244767874479294
1733768860605853400,8.862853515625,0.19937361776828766,-1.441245436668396,-0.020737143233418465
1733768860615813400,8.8728134765625,0.19606509804725647,-1.2333329916000366,-0.0013254540972411633
1733768860625774300,8.8827744140625,0.17940489947795868,-0.8259876370429993,0.02425660565495491
1733768860635734300,8.892734375,0.16256040334701538,-0.30180299282073975,0.008405337110161781
1733768860645694200,8.902694091796874,0.12641972303390503,0.22624191641807556,-0.06617596000432968
1733768860655655400,8.912655517578125,0.06890568882226944,0.6272065043449402,-0.2156519591808319
1733768860665615400,8.922615478515626,0.0227549746632576,0.8261124491691589,-0.43747007846832275
1733768860675576300,8.932576416015625,-0.036796700209379196,0.8919589519500732,-0.653107225894928
1733768860685536500,8.94253662109375,-0.10306040942668915,0.8799494504928589,-0.7651959657669067
1733768860695496400,8.952496337890626,-0.14572812616825104,0.777145504951477,-0.7571077942848206
1733768860705457200,8.96245703125,-0.1719546765089035,0.6072155833244324,-0.6795240044593811
1733768860715417300,8.972417236328125,-0.17234954237937927,0.3377141058444977,-0.6232733726501465
1733768860725378300,8.98237841796875,-0.17065949738025665,0.031757112592458725,-0.6450963616371155
1733768860735338200,8.992338134765625,-0.1771344393491745,-0.2092832326889038,-0.7021996378898621
1733768860745298400,9.00229833984375,-0.17965459823608398,-0.27229923009872437,-0.6989271640777588
1733768860755259400,9.01225927734375,-0.1784742772579193,-0.1567007154226303,-0.6619235873222351
1733768860765219300,9.02221923828125,-0.15958154201507568,0.02743077464401722,-0.6594854593276978
1733768860775180300,9.03218017578125,-0.15075868368148804,0.1848497986793518,-0.6625714302062988
1733768860785140200,9.04214013671875,-0.16997259855270386,0.27113887667655945,-0.6116898655891418
1733768860795100200,9.05210009765625,-0.18665911257266998,0.2467476725578308,-0.4862319529056549
1733768860805061400,9.062061279296875,-0.16447444260120392,0.027297332882881165,-0.28694093227386475
1733768860815021300,9.072021240234376,-0.15030469000339508,-0.29390281438827515,0.0020538060925900936
1733768860824982500,9.081982421875,-0.13880489766597748,-0.7171973586082458,0.25750449299812317
1733768860834942500,9.0919423828125,-0.12537385523319244,-1.126641035079956,0.3510341942310333
1733768860844902400,9.10190234375,-0.09816567599773407,-1.422299861907959,0.2624010145664215
1733768860854863400,9.11186328125,-0.10001261532306671,-1.526712417602539,0.06677539646625519
1733768860864823300,9.1218232421875,-0.11612500995397568,-1.3998726606369019,-0.13394998013973236
1733768860874784300,9.1317841796875,-0.1471037119626999,-1.1929110288619995,-0.3614077866077423
1733768860884744400,9.141744384765625,-0.18061374127864838,-0.9345447421073914,-0.5833879113197327
1733768860894704400,9.151704345703125,-0.20414097607135773,-0.6479693055152893,-0.767979085445404
1733768860904665300,9.161665283203124,-0.20684674382209778,-0.39881110191345215,-0.914940595626831
1733768860914625300,9.171625244140625,-0.19953039288520813,-0.2019578367471695,-1.022474765777588
1733768860924586200,9.181586181640625,-0.1905113309621811,-0.04985060542821884,-1.1027007102966309
1733768860934546200,9.191546142578124,-0.19933848083019257,0.05865994095802307,-1.1391794681549072
1733768860944506400,9.20150634765625,-0.21594703197479248,0.1606302410364151,-1.1508902311325073
1733768860954467300,9.21146728515625,-0.1720772385597229,0.20334435999393463,-1.1278234720230103
1733768860964427300,9.22142724609375,0.02698419615626335,0.38426727056503296,-0.9880320429801941
1733768860974388500,9.231388427734375,0.37568527460098267,0.6087843179702759,-0.7740467190742493
1733768860984348400,9.241348388671875,0.7180593609809875,0.7605935335159302,-0.5620958805084229
1733768860994308400,9.251308349609374,0.6003852486610413,1.0382355451583862,1.4233155250549316
1733768861004269300,9.261269287109375,0.8107552528381348,-0.1023588553071022,2.7533469200134277
1733768861014229200,9.271229248046875,0.9625526070594788,-1.087806224822998,1.855920672416687
1733768861024190700,9.281190673828124,0.45128101110458374,-1.3974413871765137,1.268109679222107
1733768861034150700,9.291150634765625,-0.06632324308156967,-0.8078975081443787,1.1321587562561035
1733768861044110600,9.301110595703125,-0.26174306869506836,0.3894261121749878,1.3186827898025513
1733768861054071600,9.311071533203124,-0.2842242121696472,1.521173357963562,1.6376254558563232
1733768861064031500,9.321031494140625,-0.23827162384986877,2.068533420562744,1.814414620399475
1733768861073992400,9.330992431640626,-0.23455281555652618,2.2683093547821045,1.753851294517517
1733768861083952600,9.34095263671875,-0.3123876750469208,2.288670301437378,1.5713714361190796
1733768861093912600,9.35091259765625,-0.4535459876060486,2.102644920349121,1.4705560207366943
1733768861103873500,9.36087353515625,-0.5842552781105042,1.840708613395691,1.461846113204956
1733768861113833700,9.370833740234374,-0.6614397764205933,1.4384790658950806,1.421432375907898
1733768861123794400,9.38079443359375,-0.667737603187561,0.9765095710754395,1.3715159893035889
1733768861133754400,9.39075439453125,-0.5787832140922546,0.5236887335777283,1.3334299325942993
1733768861143714600,9.400714599609374,-0.4835786521434784,-0.03231752663850784,1.2797600030899048
1733768861153675500,9.410675537109375,-0.40969911217689514,-0.49869468808174133,1.2269569635391235
1733768861163635500,9.420635498046876,-0.31641337275505066,-0.8018937110900879,1.140623927116394
1733768861173596700,9.4305966796875,-0.2336687594652176,-0.8918746709823608,1.0425572395324707
1733768861183556600,9.440556640625,-0.15284554660320282,-0.881096601486206,0.9078378081321716
1733768861193516500,9.4505166015625,-0.08396269381046295,-0.7803656458854675,0.765451192855835
1733768861203477500,9.4604775390625,-0.018094727769494057,-0.5584193468093872,0.6524713635444641
1733768861213437400,9.4704375,0.06424243003129959,-0.26811131834983826,0.5884633660316467
1733768861223398700,9.480398681640626,0.17056195437908173,0.025465719401836395,0.5473098158836365
1733768861233358600,9.490358642578125,0.25096723437309265,0.39435210824012756,0.558475136756897
1733768861243318500,9.500318603515625,0.3187934160232544,0.6935912370681763,0.5688726305961609
1733768861253279700,9.51027978515625,0.4007166624069214,0.8955387473106384,0.5504940748214722
1733768861263239700,9.52023974609375,0.47338178753852844,1.0132839679718018,0.5788553953170776
1733768861273200400,9.530200439453125,0.5063555240631104,1.002984881401062,0.7404417395591736
1733768861283160600,9.54016064453125,0.5396391749382019,0.7399817109107971,0.8448815941810608
1733768861293120500,9.55012060546875,0.5751166939735413,0.27244895696640015,0.8149657249450684
1733768861303081500,9.56008154296875,0.5867280960083008,-0.10695908963680267,0.7453874349594116
1733768861313041700,9.570041748046876,0.5702815055847168,-0.2313811331987381,0.7083045244216919
1733768861323002600,9.580002685546875,0.5217872262001038,-0.11005444079637527,0.6805312037467957
1733768861332962600,9.589962646484375,0.4493507742881775,0.19532440602779388,0.6562507748603821
1733768861342922800,9.5999228515625,0.3798521161079407,0.515493631362915,0.6365015506744385
1733768861352883500,9.609883544921875,0.35728007555007935,0.6411207914352417,0.5850372910499573
1733768861362843400,9.619843505859375,0.36646851897239685,0.6507685780525208,0.5507338643074036
1733768861372804600,9.6298046875,0.38272809982299805,0.6396065950393677,0.5403303503990173
1733768861382764500,9.6397646484375,0.3899543285369873,0.5941677689552307,0.4962150752544403
1733768861392724500,9.649724365234375,0.3846762180328369,0.4457491338253021,0.38416609168052673
1733768861402685700,9.659685791015624,0.3875945210456848,0.27469831705093384,0.23993247747421265
1733768861412645600,9.669645751953125,0.40880072116851807,0.14560279250144958,0.10682164132595062
1733768861422606600,9.679606689453125,0.4314538538455963,-0.05074194818735123,0.008209053426980972
1733768861432566500,9.68956640625,0.46717163920402527,-0.3492624759674072,-0.04891263321042061
1733768861442526500,9.6995263671875,0.4688473045825958,-0.6661635041236877,-0.0736592561006546
1733768861452487700,9.70948779296875,0.4406265616416931,-0.8672282099723816,-0.07067099213600159
1733768861462447600,9.719447509765626,0.3956710994243622,-1.0280183553695679,0.016596006229519844
1733768861472408600,9.72940869140625,0.35303401947021484,-1.2567882537841797,0.2646637260913849
1733768861482368800,9.73936865234375,0.3102330267429352,-1.6464654207229614,0.4929179251194
1733768861492328700,9.74932861328125,0.2654327154159546,-2.208123207092285,0.6965048909187317
1733768861502289400,9.759289306640625,0.2297077476978302,-2.6296560764312744,0.8258213400840759
1733768861512249600,9.76924951171875,0.1938599944114685,-2.828570604324341,0.8346071243286133
1733768861522210600,9.77921044921875,0.2051938772201538,-2.83640456199646,0.7282233834266663
1733768861532170500,9.78917041015625,0.26643499732017517,-2.656337261199951,0.5321090221405029
1733768861542130700,9.799130615234375,0.3536492884159088,-2.3991549015045166,0.26622626185417175
1733768861552091600,9.809091552734374,0.43623214960098267,-2.1414408683776855,-0.05684517323970795
1733768861562051600,9.819051513671875,0.48643672466278076,-1.8760583400726318,-0.3700057566165924
1733768861572012500,9.829012451171875,0.5335208773612976,-1.5028612613677979,-0.5798349976539612
1733768861581972500,9.838972412109374,0.6037694811820984,-0.9864406585693359,-0.589404821395874
1733768861591932400,9.848932373046875,0.6631991863250732,-0.424221396446228,-0.4706915020942688
1733768861601893600,9.8588935546875,0.5510401725769043,0.180745467543602,-0.3903481960296631
1733768861611853600,9.868853515625,0.25625354051589966,0.7229716777801514,-0.6699273586273193
1733768861621814500,9.878814453125,-0.027964606881141663,1.304513931274414,-1.113397240638733
1733768861631774700,9.888774658203126,-0.11777390539646149,2.112729787826538,-1.3341326713562012
1733768861641734700,9.898734619140624,-0.089883953332901,3.0999202728271484,-0.7927783727645874
1733768861651695600,9.908695556640625,-0.017066022381186485,3.6852495670318604,0.3047749698162079
1733768861661655600,9.918655517578125,0.021246477961540222,3.7090442180633545,1.0117334127426147
1733768861671616500,9.928616455078124,-0.22616536915302277,3.4920666217803955,1.087632179260254
1733768861681576400,9.938576416015625,-0.6644284725189209,2.9658167362213135,0.7507545351982117
1733768861691536600,9.94853662109375,-1.0120044946670532,2.2310643196105957,0.22136764228343964
1733768861701497600,9.95849755859375,-1.1348804235458374,1.527611255645752,-0.3431514501571655
1733768861711457500,9.96845751953125,-1.2009239196777344,0.6016169786453247,-0.8614304661750793
1733768861721418500,9.97841845703125,-1.2666888236999512,-0.13239125907421112,-1.1781668663024902
1733768861731378400,9.98837841796875,-1.3072433471679688,-0.4854893088340759,-1.2247025966644287
1733768861741338400,9.99833837890625,-1.3195469379425049,-0.6319487690925598,-1.0830713510513306
1733768861751299600,10.008299560546876,-1.323752760887146,-0.8197815418243408,-0.846666157245636
1733768861761259500,10.018259521484374,-1.3484625816345215,-1.214968204498291,-0.6284230351448059
1733768861771220700,10.028220703125,-1.2036099433898926,-1.7167184352874756,-0.6067901849746704
1733768861781180700,10.0381806640625,-0.9467233419418335,-2.1809377670288086,-0.7412140369415283
1733768861791140600,10.048140625,-0.6755020022392273,-2.4918830394744873,-0.9874835014343262
1733768861801101600,10.0581015625,-0.6962708830833435,-1.5054047107696533,-1.8108311891555786
1733768861811061500,10.0680615234375,-0.9144769906997681,0.7965575456619263,-3.198211908340454
1733768861821022500,10.0780224609375,-0.662387490272522,2.315192222595215,-3.73473858833313
1733768861830982700,10.087982666015625,-0.12494514137506485,2.974766969680786,-3.282017230987549
1733768861840942600,10.097942626953126,0.14245405793190002,3.2397704124450684,-2.362506628036499
1733768861850903600,10.107903564453125,0.11863043159246445,3.2849507331848145,-1.5079610347747803
1733768861860863700,10.11786376953125,0.19992634654045105,3.1792774200439453,-1.1602264642715454
1733768861870824400,10.127824462890626,0.3004341125488281,3.107631206512451,-1.281509518623352
1733768861880784400,10.137784423828125,0.19700384140014648,3.287001371383667,-1.329184889793396
1733768861890744600,10.14774462890625,0.12530876696109772,3.0771567821502686,-1.1873939037322998
1733768861900705500,10.15770556640625,0.18594734370708466,2.0223701000213623,-1.1045324802398682
1733768861910665500,10.16766552734375,0.20261132717132568,0.6471462845802307,-0.896388828754425
1733768861920626700,10.177626708984375,0.13797268271446228,-0.6481151580810547,-0.5041589736938477
1733768861930586600,10.187586669921876,0.07608503848314285,-1.8161766529083252,-0.09880110621452332
1733768861940546600,10.197546630859375,0.1523188203573227,-2.829993724822998,0.18011654913425446
1733768861950507500,10.207507568359375,0.20447689294815063,-3.533536434173584,0.3479313254356384
1733768861960467500,10.217467529296876,0.24301789700984955,-3.8616654872894287,0.45260047912597656
1733768861970428700,10.2274287109375,0.32544636726379395,-3.9042258262634277,0.5152408480644226
1733768861980388600,10.237388671875,0.35797929763793945,-3.587512493133545,0.5790051817893982
1733768861990348500,10.2473486328125,0.31364625692367554,-3.0231728553771973,0.5955451726913452
1733768862000309800,10.257309814453125,0.29130101203918457,-2.348417043685913,0.5721224546432495
1733768862010269700,10.267269775390625,0.3045365810394287,-1.697239875793457,0.5091239213943481
1733768862020230700,10.277230712890624,0.33393922448158264,-0.9336035251617432,0.5012018084526062
1733768862030190600,10.287190673828125,0.32277119159698486,-0.12324833124876022,0.42149099707603455
1733768862040150500,10.297150634765625,0.3491330146789551,0.5853301286697388,0.1948719620704651
1733768862050111500,10.307111572265624,0.307333767414093,1.209028959274292,-0.1780838519334793
1733768862060071400,10.317071533203125,0.1892622411251068,1.4512288570404053,-0.6429133415222168
1733768862070032600,10.32703271484375,0.12475842237472534,1.3612828254699707,-1.088355541229248
1733768862079992600,10.33699267578125,0.15458263456821442,1.0921821594238281,-1.4192187786102295
1733768862089952500,10.346952392578125,0.13524124026298523,0.7069645524024963,-1.6237659454345703
1733768862099913500,10.35691357421875,0.06363628059625626,0.25957420468330383,-1.7013022899627686
1733768862109873400,10.366873291015626,-0.022610586136579514,-0.16333790123462677,-1.6841657161712646
1733768862119834600,10.376834716796875,-0.09977727383375168,-0.5553666353225708,-1.621800422668457
1733768862129794600,10.386794677734375,-0.17592163383960724,-0.8868630528450012,-1.5329554080963135
1733768862139754500,10.39675439453125,-0.259530246257782,-1.0260117053985596,-1.380838394165039
1733768862149715700,10.4067158203125,-0.3128712475299835,-0.9576243162155151,-1.1451449394226074
1733768862159675600,10.416675537109375,-0.3481474816799164,-0.7274899482727051,-0.8613848686218262
1733768862169636600,10.42663671875,-0.3332276940345764,-0.5348766446113586,-0.6400899887084961
1733768862179596500,10.436596435546875,-0.3082190155982971,-0.3562019467353821,-0.5281943678855896
1733768862189556500,10.446556396484375,-0.29404109716415405,-0.19744648039340973,-0.4828721880912781
1733768862199517400,10.456517333984374,-0.27878516912460327,-0.07761914283037186,-0.45758122205734253
1733768862209477600,10.4664775390625,-0.2580818831920624,-0.006964366417378187,-0.4496624767780304
1733768862219438600,10.4764384765625,-0.22213375568389893,0.03875278681516647,-0.4574631452560425
1733768862229398500,10.4863984375,-0.14541953802108765,0.04763985797762871,-0.4503405690193176
1733768862239358700,10.496358642578125,0.002465791068971157,0.019146962091326714,-0.29411953687667847
1733768862249319700,10.506319580078125,0.0521894209086895,0.3405762314796448,2.1689345836639404
1733768862259279600,10.516279541015624,0.08451885730028152,-0.7153550982475281,2.9061622619628906
1733768862269240600,10.526240478515625,0.14295493066310883,-1.5493613481521606,2.1512105464935303
1733768862279200500,10.536200439453125,0.08205457031726837,-1.2387049198150635,1.7915968894958496
1733768862289160400,10.546160400390624,-0.027144750580191612,-0.4694216847419739,1.7749724388122559
1733768862299121700,10.55612158203125,-0.11228014528751373,0.46900197863578796,2.08180570602417
1733768862309081600,10.56608154296875,-0.13411499559879303,1.2352204322814941,2.515934467315674
1733768862319042600,10.57604248046875,-0.14715516567230225,1.6953648328781128,2.7645413875579834
1733768862329002500,10.58600244140625,-0.19504579901695251,2.009554386138916,2.7128429412841797
1733768862338962400,10.59596240234375,-0.2343149036169052,2.06891131401062,2.4391260147094727
1733768862348923400,10.60592333984375,-0.3242926597595215,1.7322852611541748,2.0917115211486816
1733768862358883600,10.615883544921875,-0.4576331377029419,1.1676852703094482,1.7685279846191406
1733768862368844500,10.625844482421876,-0.47662153840065,0.5849454402923584,1.505216360092163
1733768862378804500,10.635804443359374,-0.3901764154434204,0.11926032602787018,1.3493924140930176
1733768862388764700,10.6457646484375,-0.32761749625205994,-0.1771964430809021,1.3003829717636108
1733768862398725600,10.6557255859375,-0.3401000201702118,-0.4485398232936859,1.2836378812789917
1733768862408685600,10.665685546875,-0.30100032687187195,-0.8653900027275085,1.2033826112747192
1733768862418645500,10.6756455078125,-0.25331056118011475,-1.3188390731811523,1.075844407081604
1733768862428606500,10.6856064453125,-0.19537916779518127,-1.5529873371124268,0.9640930891036987
1733768862438566400,10.69556640625,-0.10989914834499359,-1.6142991781234741,0.8341606259346008
1733768862448527600,10.705527587890625,-0.0610559806227684,-1.378887414932251,0.7304666042327881
1733768862458487600,10.715487548828126,0.0075331986881792545,-0.9559614658355713,0.651654839515686
1733768862468447500,10.725447509765624,0.09324710816144943,-0.47995346784591675,0.572420060634613
1733768862478408400,10.735408447265625,0.19886994361877441,0.04997215420007706,0.519514262676239
1733768862488368400,10.745368408203126,0.31593823432922363,0.6343245506286621,0.527157723903656
1733768862498329600,10.75532958984375,0.4707600474357605,0.9928427338600159,0.5907103419303894
1733768862508289500,10.76528955078125,0.6358081698417664,1.088688850402832,0.6533282399177551
1733768862518249500,10.77524951171875,0.7742307782173157,0.9590701460838318,0.6493127346038818
1733768862528210700,10.785210693359375,0.8779500722885132,0.6549400091171265,0.5760980844497681
1733768862538170600,10.795170654296875,0.9064986109733582,0.2841143012046814,0.5170358419418335
1733768862548131600,10.805131591796876,0.8652750849723816,-0.056236304342746735,0.580414354801178
1733768862558091500,10.815091552734375,0.7820254564285278,-0.3562243580818176,0.7459239363670349
1733768862568051500,10.825051513671875,0.6756889224052429,-0.6125048398971558,0.8313766121864319
1733768862578012400,10.835012451171876,0.5822623372077942,-0.7085831761360168,0.7656255960464478
1733768862587972600,10.84497265625,0.5942241549491882,-0.7109256386756897,0.6133328080177307
1733768862597933600,10.85493359375,0.5393041968345642,-0.6360359191894531,0.4598518908023834
1733768862607893500,10.8648935546875,0.4156240224838257,-0.4839979410171509,0.32640427350997925
1733768862617853700,10.874853759765625,0.31514135003089905,-0.34398677945137024,0.24731449782848358
1733768862627814700,10.884814697265625,0.27850982546806335,-0.2923087477684021,0.2255302518606186
1733768862637774600,10.894774658203126,0.28584417700767517,-0.389376163482666,0.20555680990219116
1733768862647735600,10.904735595703125,0.2995297908782959,-0.5652419924736023,0.1826198250055313
1733768862657695500,10.914695556640625,0.33676931262016296,-0.7458629012107849,0.24639801681041718
1733768862667655400,10.924655517578126,0.4160604476928711,-0.9790529012680054,0.4663033187389374
1733768862677616600,10.93461669921875,0.49837422370910645,-1.463253140449524,0.6073938012123108
1733768862687576600,10.94457666015625,0.5451962351799011,-2.1212422847747803,0.5098311305046082
1733768862697537500,10.95453759765625,0.6047541499137878,-2.5566296577453613,0.4969156086444855
1733768862707497500,10.96449755859375,0.6808333992958069,-2.8343522548675537,0.6841907501220703
1733768862717457400,10.97445751953125,0.6982118487358093,-3.339285373687744,0.5594996809959412
1733768862727418600,10.984418701171874,0.6362430453300476,-3.6706364154815674,0.2614921033382416
1733768862737378600,10.994378662109375,0.5308700203895569,-3.4771676063537598,-0.013484877534210682
1733768862747339500,11.004339599609375,0.453281044960022,-2.9945106506347656,-0.17987418174743652
1733768862757299700,11.0142998046875,0.4191305339336395,-2.55403995513916,-0.2632513642311096
1733768862767259600,11.024259765625,0.41720113158226013,-2.068028688430786,-0.30667737126350403
1733768862777220600,11.034220703125,0.4132663309574127,-1.4121685028076172,-0.28095948696136475
1733768862787180500,11.0441806640625,0.4350182116031647,-0.6676181554794312,0.001947490032762289
1733768862797141500,11.0541416015625,0.5220982432365417,0.0493394136428833,0.20385797321796417
1733768862807101400,11.064101318359375,0.5536424517631531,0.46888643503189087,-0.7648453712463379
1733768862817061600,11.0740615234375,0.5822315216064453,1.1183760166168213,-1.8656784296035767
1733768862827022600,11.084022705078125,0.6314482688903809,2.136482000350952,-1.7883871793746948
1733768862836982500,11.093982421875,0.6420210003852844,3.3676350116729736,-0.6135225296020508
1733768862846943700,11.10394384765625,0.6126027703285217,4.447759628295898,0.8492085337638855
1733768862856903700,11.113903564453125,0.4009819030761719,4.710039138793945,1.5274951457977295
1733768862866863600,11.123863525390625,0.04623892158269882,3.9622390270233154,1.1325231790542603
1733768862876824600,11.133824462890624,-0.3272121846675873,2.9854683876037598,0.1431763470172882
1733768862886784500,11.143784423828125,-0.8111770749092102,2.4375569820404053,-0.7035533785820007
1733768862896745500,11.153745361328125,-1.2962630987167358,2.2592265605926514,-1.011828899383545
1733768862906705700,11.16370556640625,-1.5877033472061157,2.048881769180298,-0.8921903371810913
1733768862916665600,11.17366552734375,-1.7427510023117065,1.5472168922424316,-0.6571200489997864
1733768862926626600,11.18362646484375,-1.7558289766311646,0.8001583814620972,-0.44256481528282166
1733768862936586500,11.19358642578125,-1.703675389289856,-0.11433572322130203,-0.24371857941150665
1733768862946547500,11.20354736328125,-1.6553916931152344,-1.113923192024231,-0.06008782610297203
1733768862956507400,11.21350732421875,-1.5083143711090088,-2.0995850563049316,0.06856681406497955
1733768862966467600,11.223467529296874,-1.2920818328857422,-3.072688579559326,0.10377076268196106
1733768862976428500,11.233428466796875,-0.9262726306915283,-3.8834946155548096,-0.05088912695646286
1733768862986388500,11.243388427734375,-0.5497110486030579,-4.558917999267578,-0.40198183059692383
1733768862996349700,11.253349609375,-0.6851258277893066,-4.1818013191223145,-1.6404470205307007
1733768863006309600,11.2633095703125,-1.1017441749572754,-1.8875397443771362,-3.3851206302642822
1733768863016269600,11.27326953125,-0.7971240878105164,0.26930832862854004,-3.9380645751953125
1733768863026230800,11.283230712890624,-0.1508796662092209,1.6565477848052979,-3.267500877380371
1733768863036190700,11.293190673828125,0.22457492351531982,2.533613681793213,-2.212346315383911
1733768863046152000,11.30315185546875,0.22145652770996094,3.1694321632385254,-1.216668725013733
1733768863056111900,11.31311181640625,0.3204273283481598,3.381131887435913,-0.6493288278579712
1733768863066071800,11.32307177734375,0.622581958770752,2.7635552883148193,-0.7792592644691467
1733768863076032800,11.33303271484375,0.6996564865112305,1.7313328981399536,-1.1180988550186157
1733768863085992700,11.34299267578125,0.5363461375236511,0.6832069754600525,-1.1817961931228638
1733768863095952600,11.35295263671875,0.39744842052459717,-0.29797637462615967,-0.9111806154251099
1733768863105913900,11.362913818359376,0.4032638669013977,-1.3321068286895752,-0.5302056670188904
1733768863115873800,11.372873779296874,0.44235801696777344,-2.344024419784546,-0.2506754696369171
1733768863125834800,11.382834716796875,0.46004828810691833,-3.1276001930236816,-0.07786288857460022
1733768863135795000,11.392794921875,0.4631088078022003,-3.4877777099609375,0.007325236685574055
1733768863145755000,11.4027548828125,0.4879380464553833,-3.4394216537475586,0.022385500371456146
1733768863155715600,11.412715576171875,0.4711169898509979,-3.011063575744629,0.021178023889660835
1733768863165675800,11.42267578125,0.4112957715988159,-2.355879783630371,0.05111290141940117
1733768863175636700,11.43263671875,0.39411094784736633,-1.7054919004440308,0.0935991108417511
1733768863185596700,11.4425966796875,0.3564830720424652,-1.1136647462844849,0.12188411504030228
1733768863195556900,11.452556884765626,0.34879985451698303,-0.6025183200836182,0.11907608062028885
1733768863205517800,11.462517822265625,0.3686501085758209,-0.08274345844984055,0.04134056344628334
1733768863215477800,11.472477783203125,0.37174099683761597,0.4744226038455963,-0.06829644739627838
1733768863225438700,11.482438720703126,0.2741108238697052,0.8106933236122131,-0.2721947133541107
1733768863235398700,11.492398681640625,0.14224494993686676,1.006928563117981,-0.5380064249038696
1733768863245358600,11.502358642578125,0.09844979643821716,1.0811288356781006,-0.7933473587036133
1733768863255319800,11.51231982421875,0.12422147393226624,0.9918619990348816,-0.9803457260131836
1733768863265279700,11.52227978515625,0.15540800988674164,0.7927709221839905,-1.0815030336380005
1733768863275241000,11.532240966796875,0.14842841029167175,0.5025513768196106,-1.1094305515289307
1733768863285201000,11.542200927734376,0.11816737800836563,0.14476008713245392,-1.1132265329360962
1733768863295160800,11.552160888671875,0.06829622387886047,-0.2613450884819031,-1.1461585760116577
1733768863305121800,11.562121826171875,-0.0031332937069237232,-0.6622166633605957,-1.2256643772125244
1733768863315081700,11.572081787109376,-0.09359075129032135,-1.0113948583602905,-1.313475489616394
1733768863325042700,11.582042724609375,-0.18481293320655823,-1.2637559175491333,-1.3795279264450073
1733768863335003000,11.5920029296875,-0.25225216150283813,-1.3741058111190796,-1.384727954864502
1733768863344962800,11.601962890625,-0.29232361912727356,-1.3175158500671387,-1.353622317314148
1733768863354923800,11.611923828125,-0.32677584886550903,-1.0458343029022217,-1.340101718902588
1733768863364884000,11.621884033203125,-0.3490590751171112,-0.6590775847434998,-1.361628770828247
1733768863374844700,11.6318447265625,-0.34529176354408264,-0.18054163455963135,-1.3386930227279663
1733768863384804600,11.6418046875,-0.3207874298095703,0.42092663049697876,-1.2076336145401
1733768863394764800,11.651764892578125,-0.19891983270645142,1.4072986841201782,-0.5162334442138672
1733768863404725800,11.661725830078124,-0.072020024061203,2.5570783615112305,1.0568841695785522
1733768863414685700,11.671685791015625,-0.2654310464859009,2.099363088607788,0.8690801858901978
1733768863424647000,11.68164697265625,-0.31579187512397766,1.3092536926269531,0.8420976996421814
1733768863434606800,11.69160693359375,-0.26586905121803284,0.41041579842567444,1.3238343000411987
1733768863444566800,11.70156689453125,-0.3333708643913269,-0.5266023874282837,1.785372018814087
1733768863454527700,11.71152783203125,-0.37727731466293335,-1.3869102001190186,2.041361093521118
1733768863464487700,11.72148779296875,-0.3295479416847229,-2.199763774871826,2.05851674079895
1733768863474447600,11.731447509765625,-0.21451590955257416,-2.554278612136841,2.0606274604797363
1733768863484408800,11.741408935546875,-0.13507913053035736,-2.4097630977630615,2.2236242294311523
1733768863494368800,11.75136865234375,-0.05299997702240944,-2.033491849899292,2.5574145317077637
1733768863504330000,11.761330078125,0.0562814436852932,-1.562390923500061,2.8938543796539307
1733768863514290000,11.7712900390625,0.16535812616348267,-1.1394782066345215,3.090977191925049
1733768863524249900,11.781249755859376,0.28003785014152527,-0.8568853735923767,3.0429062843322754
1733768863534210800,11.7912109375,0.3212782144546509,-0.7657527923583984,2.825645923614502
1733768863544170800,11.801170654296875,0.28727981448173523,-0.6545934081077576,2.614449977874756
1733768863554131700,11.811131591796874,0.23586270213127136,-0.4439443051815033,2.359933853149414
1733768863564092000,11.821091796875,0.2393968403339386,-0.1767626851797104,2.0577099323272705
1733768863574051800,11.8310517578125,0.25398752093315125,-0.022843163460493088,1.7342021465301514
1733768863584012800,11.8410126953125,0.2292390912771225,-0.1421995460987091,1.4103835821151733
1733768863593973000,11.850972900390625,0.20110146701335907,-0.40915587544441223,1.1009302139282227
1733768863603933700,11.86093359375,0.20864877104759216,-0.6425113677978516,0.8545753955841064
1733768863613893600,11.8708935546875,0.2713768780231476,-0.6348787546157837,0.6946895718574524
1733768863623853600,11.880853515625,0.3149084448814392,-0.30160781741142273,0.589469313621521
1733768863633814800,11.890814697265625,0.3409368693828583,0.34442204236984253,0.5195525288581848
1733768863643774700,11.900774658203124,0.40411996841430664,1.071420669555664,0.49565795063972473
1733768863653736000,11.91073583984375,0.5859614014625549,1.6612629890441895,0.5757109522819519
1733768863663696000,11.92069580078125,0.7854021191596985,2.1777584552764893,0.8357840776443481
1733768863673655800,11.93065576171875,0.8629850745201111,2.1958186626434326,1.265231966972351
1733768863683616800,11.94061669921875,1.0027153491973877,1.4324631690979004,1.4927572011947632
1733768863693576700,11.95057666015625,1.1770488023757935,0.26341986656188965,1.5371811389923096
1733768863703537700,11.96053759765625,1.2669175863265991,-0.6593783497810364,1.5881497859954834
1733768863713497900,11.970497802734375,1.2550686597824097,-1.2382783889770508,1.6414399147033691
1733768863723457800,11.980457763671875,1.1847957372665405,-1.4953314065933228,1.6305732727050781
1733768863733418800,11.990418701171874,1.0499601364135742,-1.49687922000885,1.5389599800109863
1733768863743379000,12.00037890625,0.9548341035842896,-1.4844824075698853,1.3863426446914673
1733768863753339600,12.010339599609376,0.9268133640289307,-1.3744736909866333,1.2282779216766357
1733768863763299600,12.020299560546874,0.9508227109909058,-1.171541452407837,1.1467070579528809
1733768863773259800,12.030259765625,0.9361998438835144,-0.8303252458572388,1.1553632020950317
1733768863783220700,12.040220703125,0.8225240707397461,-0.6264151930809021,1.1090748310089111
1733768863793180700,12.0501806640625,0.6420477628707886,-0.7383553385734558,1.0250251293182373
1733768863803142000,12.060141845703125,0.474481999874115,-1.0142582654953003,0.9996572136878967
1733768863813101800,12.070101806640626,0.3775852620601654,-1.3662623167037964,1.0400153398513794
1733768863823061800,12.080061767578124,0.34390756487846375,-1.7550534009933472,1.083726406097412
1733768863833022700,12.090022705078125,0.3830701410770416,-2.110203742980957,1.076413869857788
1733768863842982700,12.099982666015626,0.4730947017669678,-2.4024746417999268,1.0359728336334229
1733768863852944000,12.10994384765625,0.48006951808929443,-2.5288732051849365,0.9698740243911743
1733768863862903800,12.11990380859375,0.4634131193161011,-2.327958822250366,0.9199013113975525
1733768863872863700,12.12986376953125,0.5094655752182007,-2.096529960632324,0.783129870891571
1733768863882825000,12.139824951171875,0.5778518319129944,-1.6624257564544678,0.6376562714576721
1733768863892785000,12.149784912109375,0.599922776222229,-0.9597991108894348,0.5376085042953491
1733768863902744800,12.159744873046876,0.5664533972740173,-0.5004161596298218,0.31282687187194824
1733768863912705800,12.169705810546875,0.5714244246482849,-0.17182950675487518,0.03397151455283165
1733768863922665700,12.179665771484375,0.5527905225753784,0.028500525280833244,-0.1849583238363266
1733768863932626700,12.189626708984376,0.5369319319725037,0.0131010627374053,-0.28909215331077576
1733768863942587000,12.1995869140625,0.4333873689174652,-0.6490378975868225,-0.29414480924606323
1733768863952546800,12.209546875,0.28418004512786865,-1.1381696462631226,-0.21300095319747925
1733768863962507800,12.2195078125,0.4400503933429718,-1.86648690700531,-0.19469617307186127
1733768863972468000,12.229468017578125,0.5320333242416382,-2.9071409702301025,-0.026050159707665443
1733768863982428700,12.2394287109375,0.32699355483055115,-3.1685328483581543,0.04951862245798111
1733768863992388600,12.249388671875,0.2730166018009186,-2.7103567123413086,0.04910369962453842
1733768864002348800,12.259348876953124,0.3817633390426636,-2.4420015811920166,0.09820093959569931
1733768864012309800,12.269309814453125,0.5722475051879883,-2.351053237915039,-0.029717613011598587
1733768864022269700,12.279269775390626,0.8208317756652832,-2.420020818710327,-0.3989087641239166
1733768864032231200,12.289231201171875,1.0539140701293945,-2.1618025302886963,-1.0174071788787842
1733768864042191400,12.29919140625,0.9846328496932983,-0.344462513923645,0.14554259181022644
1733768864052151300,12.3091513671875,0.8991480469703674,-0.1667841076850891,-0.4424215853214264
1733768864062112000,12.319112060546875,0.6562642455101013,0.8110671043395996,-0.31800615787506104
1733768864072072200,12.329072265625,0.45923665165901184,0.480111300945282,-0.3561306297779083
1733768864082033200,12.339033203125,0.43272483348846436,-0.43135249614715576,-1.0871466398239136
1733768864091993000,12.3489931640625,0.445866197347641,-0.4658969044685364,-1.0211710929870605
1733768864101953300,12.358953369140625,0.34850117564201355,-0.016752324998378754,-0.39645564556121826
1733768864111914200,12.368914306640624,-0.009422602131962776,0.24491283297538757,-0.005556888412684202
1733768864121874200,12.378874267578125,-0.3720962405204773,0.5559777021408081,-0.35471853613853455
1733768864131835100,12.388835205078125,-0.40800872445106506,1.3044735193252563,-0.49265962839126587
1733768864141795000,12.398795166015624,-0.45458388328552246,1.0806413888931274,-0.28739815950393677
1733768864151755000,12.408755126953125,-0.8886903524398804,0.09978300333023071,-0.4228649139404297
1733768864161716200,12.41871630859375,-1.1841400861740112,-0.4456113278865814,-0.4565369188785553
1733768864171676200,12.42867626953125,-1.074112057685852,-0.3540100157260895,-0.4643312096595764
1733768864181636000,12.438635986328125,-0.6781824231147766,-0.16928288340568542,-0.4479296803474426
