time,seconds_elapsed,z,y,x
1733768851780935400,0.037935302734375,-0.08755144220292568,-0.41630058148801324,-0.2172360989972949
1733768851790895400,0.047895263671875,-0.015317980641126631,-0.21187924813926218,0.09231178847253323
1733768851800855300,0.057855224609375,0.28335663063675165,-0.2590244456738233,0.34100868220366537
1733768851810816500,0.06781640625,0.5817231988787651,-0.11006079565286636,0.4751186811596155
1733768851820776400,0.0777763671875,0.8013105371773243,-0.16142565670907497,0.5156052975878119
1733768851830737400,0.0877373046875,0.9561001168727874,-0.10400865600705146,0.365934668341279
1733768851840697600,0.097697509765625,0.765489866733551,0.05212824664413929,0.07516834596991538
1733768851850657500,0.107657470703125,0.3833712485715747,0.039352351701259614,-0.1631594947643578
1733768851860618200,0.1176181640625,0.2862316015511751,-0.03736556179821491,-0.3706985217422247
1733768851870578400,0.127578369140625,0.01152004966288805,-0.10494973624944687,-0.4863037267144769
1733768851880538400,0.137538330078125,-0.47597968190312384,-0.05038812497854232,-0.47264761487096546
1733768851890499300,0.147499267578125,-0.7443003637105227,-0.05162731138467788,-0.32472733642309903
1733768851900459500,0.15745947265625,-1.0668819202765822,-0.13590426196157931,-0.192427163368091
1733768851910420500,0.16742041015625,-1.3933844496786594,-0.268836814635992,-0.3236152835279703
1733768851920380400,0.17738037109375,-1.8923945862963794,-0.42834290145933623,-0.5560748898159712
1733768851930340600,0.187340576171875,-2.3591794466137883,-0.8660603649854659,-0.48937283196151254
1733768851940301300,0.19730126953125,-2.708460794056952,-0.7779086188018322,-0.5555081958439201
1733768851950261200,0.20726123046875,-3.3806039763122797,-0.7082113977193832,-1.1102803324982524
1733768851960222500,0.217222412109375,-2.5660417433738707,-1.5765893919974565,-2.0676678588330746
1733768851970182400,0.227182373046875,-1.9144515198037027,-1.0151046790271996,-2.9784044008910655
1733768851980142300,0.237142333984375,-1.2444260603547095,-1.1615227362185716,-3.1076380990475414
1733768851990103600,0.247103515625,-0.07968553113341331,-1.2922703460693359,-2.634427297335863
1733768852000063500,0.2570634765625,0.46659664426892994,-1.2561568301588295,-1.4134019863128662
1733768852010023400,0.2670234375,0.2451578328847885,-1.1833487835794687,0.3322752675846219
1733768852019985000,0.27698486328125,0.8458657182186842,-1.8472785565018652,2.293005431221425
1733768852029944800,0.28694482421875,2.075382670994103,-0.6816513075739145,3.094740039029717
1733768852039905800,0.29690576171875,1.4455188338026403,0.5825619877904653,3.8466502932220696
1733768852049866000,0.306865966796875,0.3527534074679017,0.9598404724448919,4.661665530624985
1733768852059826000,0.316825927734375,0.11635054344683884,1.0352893889218568,5.0023646354228255
1733768852069787000,0.326786865234375,-0.7280003862947225,0.9722247377216815,4.221763708797097
1733768852079747000,0.3367470703125,-1.4668281638130545,0.8716507323384285,2.6641195480272173
1733768852089707800,0.346707763671875,-1.3800535512015222,0.06574176145493983,1.4931471386790274
1733768852099667700,0.356667724609375,-0.47262540303915734,-0.6441799473136663,0.9562030657906084
1733768852109628000,0.3666279296875,0.6665580755993723,-0.60967035946846,0.8409687399573623
1733768852119588900,0.3765888671875,1.3250389354661107,-0.19447920052707193,1.0864623076025397
1733768852129548800,0.386548828125,1.5860326353862881,0.1357832659304142,1.4429767481043934
1733768852139509000,0.396509033203125,1.4958362316325307,0.39986967116892336,1.6441906637139618
1733768852149470000,0.406469970703125,1.3998632903039454,0.5653285289168357,1.584462317329645
1733768852159430000,0.416429931640625,1.3225979720547794,0.7183323942393064,1.5522690436027944
1733768852169390800,0.426390869140625,1.1815095854535698,0.684807725778222,1.653306282583624
1733768852179350800,0.436350830078125,1.1800728306487203,-0.20879063447415827,1.7075279943756758
1733768852189310700,0.446310791015625,0.9588076222658157,-0.4252852674543857,1.408941207511723
1733768852199272000,0.45627197265625,0.46831776897311206,0.04248772711753845,0.9657853523239492
1733768852209232000,0.46623193359375,-0.4157704201340675,0.26858780831098555,0.49140375326722857
1733768852219192800,0.47619287109375,-1.1546072577416897,0.2626069803357124,-0.18850684811919927
1733768852229153000,0.486153076171875,-1.3813047203063964,-0.06805588361620903,-0.7706105707481503
1733768852239113000,0.496113037109375,-1.3858780195713043,-0.4851093292981386,-1.1044190392494202
1733768852249073700,0.50607373046875,-1.4662231836572288,-0.9406149629712104,-1.4315427692897618
1733768852259033900,0.516033935546875,-1.8848232742592692,-1.2810522019624708,-1.7750239060215651
1733768852268993800,0.525993896484375,-2.566710436415672,-1.5228513720691204,-2.170628467091918
1733768852278954800,0.535954833984375,-3.098757457977533,-1.950307553821802,-2.626224993918836
1733768852288915000,0.5459150390625,-2.852105587142706,-2.674592134463787,-2.899087703070044
1733768852298876000,0.5558759765625,-2.957576132395863,-2.2024480852007864,-2.578546420159936
1733768852308835800,0.5658359375,-3.6286873412549494,-1.2124959676086902,-1.3065259581759572
1733768852318796000,0.575796142578125,-3.8750715010643004,-0.32101591468453405,1.1500161305591463
1733768852328756700,0.5857568359375,-3.1940041308581826,0.2939046203970909,3.5700343690171836
1733768852338716700,0.595716552734375,-2.642459797143936,1.2616630263596773,5.795086207953095
1733768852348678000,0.605677978515625,-2.5487626917928456,2.4377210684090853,7.219826165360212
1733768852358637800,0.615637939453125,-2.6329601473927498,2.9594927796721455,7.9420333552062505
1733768852368597800,0.62559765625,-2.735219621644914,2.8841210200846192,7.157851647484302
1733768852378559000,0.63555908203125,-3.398510804402828,2.300883909511566,5.36469046561718
1733768852388519000,0.645518798828125,-4.885865038894116,1.5135948834240436,3.098962917421758
1733768852398478800,0.655478759765625,-6.510877101016044,1.8528823678582906,0.5882650217376649
1733768852408439800,0.665439697265625,-7.386902395176887,2.069912422889471,-1.1137078227289021
1733768852418399700,0.675399658203125,-6.7353498732686035,1.4558102184534072,-2.344756368985772
1733768852428361000,0.68536083984375,-5.414588761252165,0.5449070876568556,-3.0676255298718806
1733768852438321000,0.69532080078125,-3.497203526084125,-0.09385726434886454,-2.9810803421020506
1733768852448280800,0.70528076171875,-1.6723823005840182,-0.13515373585522175,-2.660669407573342
1733768852458242000,0.715241943359375,-0.0821671188160777,-0.0012719196319580077,-2.130907282078266
1733768852468202000,0.725201904296875,1.5698299808651208,0.2756985170990228,-1.3081105970188975
1733768852478162700,0.73516259765625,2.7596628657668827,0.33874972429573535,-0.6775383192971348
1733768852488123000,0.745122802734375,2.919550937645137,0.39126024825572964,-0.5463917732566594
1733768852498082800,0.755082763671875,2.4288614701271056,0.7667272995740175,-0.5296005051925778
1733768852508043800,0.765043701171875,2.291523375970125,1.2495581625461578,-0.6866451703384518
1733768852518004000,0.77500390625,2.5735671704426406,1.4982891777426004,-0.91984412375167
1733768852527965000,0.78496484375,2.0320202068686486,1.082334048691392,-0.9143144005447625
1733768852537924900,0.7949248046875,0.5075307122036814,0.7228174306988716,-0.5552912651576102
1733768852547885000,0.804885009765625,0.5560822694048285,0.6500380256921052,-0.3228567202456295
1733768852557845800,0.814845703125,2.282652087250352,0.39377953760027884,-0.42112931681871413
1733768852567805700,0.8248056640625,2.9950936698853967,0.05935235267877578,-0.00637479572892189
1733768852577766000,0.834765869140625,2.7558722413122654,-0.27861820393800735,0.6172622759021819
1733768852587726800,0.844726806640625,1.8930247008934615,-0.5188958635658025,1.2161163500629364
1733768852597686800,0.854686767578125,1.2740236184999345,-0.5947422549277543,1.5761756966300309
1733768852607648000,0.86464794921875,1.478604818585515,-0.7660749731451273,1.6501804056480527
1733768852617608000,0.87460791015625,1.838543461382389,-1.0180161825597285,1.6191080987751483
1733768852627567900,0.88456787109375,1.8789368465691805,-1.1397791064441203,1.4798925203084945
1733768852637528800,0.89452880859375,1.554447118294239,-1.1533189714968204,1.2171449624583124
1733768852647488800,0.90448876953125,1.1713000338673591,-1.2446855880737304,0.8675482654556631
1733768852657450000,0.914449951171875,0.9862421571582555,-1.370635442253947,0.5271311924695968
1733768852667410000,0.924409912109375,0.8181412604689597,-1.4904115762352943,0.3038715953990817
1733768852677369900,0.934369873046875,0.46157355540990824,-1.546110667103529,0.30034575936049224
1733768852687331000,0.9443310546875,0.07980944977402686,-1.5775029997110366,0.38930385349094865
1733768852697291000,0.954291015625,-0.04629004200994968,-1.6211013184189795,0.45665684953480956
1733768852707251700,0.964251708984375,0.06734744308590888,-1.7454729634970425,0.4831523500114679
1733768852717212000,0.9742119140625,0.08975216711759566,-1.8894576560616492,0.4524053295701742
1733768852727171800,0.984171875,0.10226035103499889,-1.8693313983559607,0.3905275500670075
1733768852737132800,0.9941328125,-0.16569325102567672,-1.5978490376472472,0.30073709676563737
1733768852747093000,1.004093017578125,-0.5110352131932974,-1.2138976511001587,0.10674129584133625
1733768852757053000,1.014052978515625,-0.2797346407473087,-0.9869996975272893,-0.2628828746676445
1733768852767014000,1.024013916015625,0.2411456746339798,-1.0422376006245613,-0.6470099100425839
1733768852776974000,1.03397412109375,0.4757882509842515,-1.1362041705667971,-1.0401832984432577
1733768852786934800,1.043934814453125,0.6018973873794079,-1.1687030031114816,-1.4649933496013283
1733768852796894700,1.053894775390625,0.7283598672568797,-1.3827858987748622,-1.7036986453458667
1733768852806854700,1.063854736328125,0.3636825055003166,-1.5527280394166707,-1.7835092641636727
1733768852816815900,1.07381591796875,0.11055880830287933,-1.7888497484087944,-1.733694847419858
1733768852826775800,1.08377587890625,0.5074985634997486,-2.1688374920219182,-1.7111387322187424
1733768852836737000,1.093737060546875,1.4721569576203821,-2.801434553569555,-1.7797531265005468
1733768852846697000,1.103697021484375,2.89438727029413,-3.565402909824252,-1.6412755069196223
1733768852856657000,1.113656982421875,4.609594567126035,-4.330556091949344,-1.2692024819537997
1733768852866617900,1.123617919921875,5.494891547501087,-4.629406352055073,-1.1745233798280357
1733768852876577800,1.133577880859375,-3.0718127524286505,-3.217250566411018,-0.5845271503835916
1733768852886538800,1.143538818359375,-16.35508146338463,0.8165712346732616,2.0687506856337188
1733768852896499000,1.1534990234375,-15.440782844930887,6.926685515072942,3.171053463381529
1733768852906459000,1.163458984375,-11.717316448307036,12.204520119535923,-0.0876771874744445
1733768852916419800,1.173419921875,-2.946623653487861,12.754931649827956,-4.880007252776623
1733768852926380000,1.183380126953125,4.515322584496438,9.15012904202938,-8.042424405238032
1733768852936340700,1.1933408203125,9.50526291489303,2.997821633544564,-7.171197451269626
1733768852946300700,1.20330078125,9.98153193513155,-2.423161212658882,-7.227146717506646
1733768852956260900,1.2132607421875,6.172898361092805,-4.150232258024811,-9.831236159723996
1733768852966221800,1.223221923828125,0.9619573184683918,-4.061100853154063,-12.100561732411384
1733768852976181800,1.233181640625,1.0517527402058242,-4.298945732676983,-11.332231089293956
1733768852986142000,1.243141845703125,3.264825679795444,-3.2922698592990636,-8.797982076022029
1733768852996103000,1.25310302734375,4.064462146280706,-1.9671622425109148,-6.026403731533884
1733768853006062800,1.263062744140625,3.9524294660329815,-0.5516740975737572,-4.418849292430282
1733768853016023000,1.27302294921875,3.929382936966419,0.8467150285243987,-3.4730320846408604
1733768853025983000,1.28298291015625,3.1843431530654427,1.912953097939491,-2.068481513303518
1733768853035943000,1.29294287109375,2.8020190754592416,4.102299709504843,-0.44147126310169693
1733768853045904100,1.302904052734375,3.9296316510304807,5.731160556009412,1.7687223216593264
1733768853055864000,1.312864013671875,4.581532255724072,5.921274547064304,4.0218534231320024
1733768853065825000,1.322824951171875,4.137371022886038,5.223066656965017,5.050141116598248
1733768853075785200,1.33278515625,3.6160780350506303,4.580906232780218,5.513120447152852
1733768853085745200,1.3427451171875,4.071654395872354,3.5313001492142675,6.4324044528037305
1733768853095706000,1.3527060546875,2.8028660476773974,1.2392279071897268,7.916057786950469
1733768853105666000,1.362666015625,-0.6444353833794594,-1.040354271095991,7.550345236927271
1733768853115627000,1.372626953125,-0.2435902913071215,-1.7076678412377833,5.625399503377079
1733768853125587000,1.3825869140625,-0.3067733081899583,-1.7412831105917692,3.434710829553008
1733768853135547100,1.392547119140625,-1.2732381672106683,-1.1499725836783647,1.5766156954824924
1733768853145508000,1.402508056640625,-2.2502399100758135,-0.3642436465144157,0.32133794971313323
1733768853155468000,1.412468017578125,-2.990997925004363,-0.0647106648415327,-0.40129941171109673
1733768853165429000,1.422428955078125,-2.776221786379814,-0.03958265332579612,-0.6649781129315495
1733768853175389000,1.432388916015625,-2.0857484360553324,0.053066404277086254,-0.8599442201927304
1733768853185348900,1.442348876953125,-1.4672154095649719,0.4015139312446117,-1.0787424539402126
1733768853195310000,1.45231005859375,-1.0644733978301286,0.25876433343291283,-1.1072004866614937
1733768853205270000,1.46227001953125,-0.4615804966073483,-0.9673328740268945,-0.8524021342501044
1733768853215231200,1.472231201171875,-0.15715506671778856,-1.4491975223153828,-0.23944732801718635
1733768853225191200,1.482191162109375,-0.14135726667046547,-1.3891092565774916,0.4761129528939724
1733768853235151000,1.492151123046875,-0.4340133483111858,-0.5662590877652168,0.8714885275140404
1733768853245112000,1.502112060546875,-0.9743991591513156,-0.13539397435188294,0.8216779101625085
1733768853255072000,1.512072021484375,-1.558402577921748,-0.7189946575403213,0.28248456050995735
1733768853265033000,1.522032958984375,-2.1400018581598994,-0.3038601972222328,-0.2895277204871177
1733768853274993200,1.5319931640625,-2.715534385704994,0.13999240805804727,-0.6097489776626229
1733768853284953000,1.541953125,-2.9169653050661086,0.34046178891062734,-0.5987161269947886
1733768853294914000,1.5519140625,-2.402590133795142,0.7242050856649875,-0.10160683729602023
1733768853304874200,1.561874267578125,-1.7288076599001883,0.6116185709267854,0.5869921157250181
1733768853314835000,1.5718349609375,-1.2078478495419025,0.23440672176778315,0.7857076021149754
1733768853324795000,1.581794921875,-0.13291560153961182,0.19928455498218536,0.9611831192255019
1733768853334755000,1.591755126953125,0.5648083044350147,0.17791443469524382,1.3729603780701756
1733768853344716000,1.601716064453125,1.0072048656880854,0.25583003354668615,1.7607754543080925
1733768853354676000,1.611676025390625,1.007547395515442,0.25602234124839307,1.9193758244633674
1733768853364636200,1.62163623046875,0.7089829666137695,0.2900619734942913,1.9450603008180856
1733768853374597000,1.63159716796875,0.2328313987424597,0.2448392684549093,1.8883494025588035
1733768853384557000,1.64155712890625,-0.24448095653653143,0.14706921457648275,1.8268062618374823
1733768853394518000,1.65151806640625,-0.7488917831540107,0.28381635710299014,1.8469313504993914
1733768853404478000,1.66147802734375,-1.6468692352734504,0.5975917991399765,2.03698235932067
1733768853414438000,1.67143798828125,-2.3418401892781255,0.9515005141228436,2.028812935259938
1733768853424399000,1.681399169921875,-2.683446472048759,1.5330430957376957,2.0959391368106006
1733768853434359000,1.691359130859375,-3.110050420886278,2.400330956691503,2.1960876102581617
1733768853444320300,1.7013203125,-5.573624307954311,3.4990146671593187,1.9136849193453787
1733768853454280200,1.7112802734375,-10.496636005198955,4.401326495221257,1.2732082104638218
1733768853464240000,1.721240234375,-9.264475552177428,4.435252730220556,0.5943132889259606
1733768853474201000,1.731201171875,-9.716388129794597,4.428842863178253,0.4631339365944266
1733768853484161000,1.7411611328125,-10.987302384102344,4.064513876467943,0.1839239773083478
1733768853494122000,1.7511220703125,-9.462439087688923,3.010722031649947,-0.2803731578465551
1733768853504082200,1.761082275390625,-7.35619862935543,1.9418530292093752,-0.6624971097707748
1733768853514042000,1.7710419921875,-5.3164510431051255,1.002923827368021,-0.3798618522111326
1733768853524003000,1.781003173828125,-3.025597529220581,0.7578443204164504,0.08264145832955837
1733768853533963300,1.79096337890625,-1.167255142390728,0.416146267709136,0.5805246367439627
1733768853543924000,1.800924072265625,-0.07386250580204651,-0.3279068432420492,0.9101474170584231
1733768853553884000,1.8108837890625,0.5593267312187701,-0.8446510817319154,1.243092327532917
1733768853563844000,1.820843994140625,1.199355331006646,-1.4250409861803055,1.5800962310746312
1733768853573805000,1.83080517578125,1.7938918342292307,-1.596553152617812,1.8096378310240804
1733768853583765000,1.840764892578125,2.513600777518749,-1.066203582623601,1.895271310776472
1733768853593726200,1.850726318359375,3.136863024488091,-0.2867810521274805,1.5771011409118771
1733768853603686100,1.86068603515625,3.631365620553493,0.5395394231438636,0.9744409524664283
1733768853613647000,1.870647216796875,4.171316254846752,1.2413614120870828,0.3289459770314395
1733768853623607000,1.88060693359375,4.450729700815677,1.6097849746346473,-0.1545452495455742
1733768853633567000,1.89056689453125,4.1485070416674015,1.7899036413758993,-0.6221954214554279
1733768853643528000,1.90052783203125,3.396728597161174,1.4083873730212448,-1.0191851532738656
1733768853653488000,1.910488037109375,2.6537831551909443,0.4927601363122463,-1.1540127989798783
1733768853663448000,1.920447998046875,2.106185367145389,-0.3657347618550062,-0.9100209411345421
1733768853673409000,1.930408935546875,1.7802303886234758,-0.7034405300557613,-0.48268327119499443
1733768853683369200,1.940369140625,1.6263684451669453,-0.735644179046154,-0.24332243415117263
1733768853693330200,1.950330078125,1.5099407448306679,-0.6863000101625919,-0.26979418842606245
1733768853703290000,1.9602900390625,1.4920045445151626,-0.6485451567858457,-0.3325102088516578
1733768853713250000,1.97025,1.543456353202462,-0.6301105054289102,-0.4727931608214974
1733768853723211000,1.9802109375,1.751065084415674,-0.5099439108252525,-0.6567968523025512
1733768853733171000,1.9901708984375,1.8309815016955135,-0.23671616775393484,-0.7996557557076215
1733768853743132200,2.000132080078125,1.6415663065597415,-0.08453355568647385,-1.0063464952930807
1733768853753092000,2.010092041015625,1.1402362025618553,0.038107320076227184,-1.2857339300379156
1733768853763053000,2.020052978515625,0.44018852981477974,0.19837854605317115,-1.539284328214824
1733768853773013000,2.030012939453125,0.5702233152210712,-0.21537235095202922,-1.651300641849637
1733768853782973000,2.039972900390625,1.6763316227316856,-0.9604051205903291,-1.4999419133856893
1733768853792934100,2.04993408203125,3.005788666900992,-1.446884569197893,-1.1257105413421988
1733768853802894000,2.05989404296875,3.9017148855790493,-1.6902239544838666,-0.7658958171859384
1733768853812855000,2.06985498046875,4.392867002172768,-1.70347798833251,-0.7496902400553226
1733768853822815200,2.079815185546875,4.562874609266221,-1.3556851258814333,-1.0535770330235361
1733768853832775200,2.089775146484375,4.078097288401425,-1.1791045701384544,-1.4396525721177458
1733768853842736000,2.099736083984375,3.1769550886407494,-1.2334955010175703,-1.6073092321708797
1733768853852696000,2.109696044921875,2.0780220795869826,-1.5622510700434444,-1.6542627065256237
1733768853862657000,2.119656982421875,1.4296084402263163,-1.8991735789120197,-1.5128569245383143
1733768853872617000,2.129616943359375,1.0385700180277229,-2.0732056192159654,-1.2833961347401142
1733768853882577200,2.1395771484375,0.43230099143534895,-1.860095367977023,-1.0828647945672274
1733768853892538000,2.1495380859375,-0.16181436376571653,-1.5609417410105466,-0.8981047317609191
1733768853902498000,2.159498046875,-0.10456775119453668,-1.4593027367442846,-0.8337383503124117
1733768853912459000,2.169458984375,-0.020282325050234792,-1.37217799552083,-0.9171846952840685
1733768853922419000,2.1794189453125,-0.24261866979598998,-1.3705506865799426,-0.8417956923007964
1733768853932379000,2.18937890625,-0.3431047046348452,-1.369298640692234,-0.7438193021953106
1733768853942340000,2.199340087890625,-0.8047346664071082,-1.1811059730887412,-0.8821858626171946
1733768853952300000,2.209300048828125,-1.3363640470787883,-1.121568326970935,-0.8512918349206448
1733768853962261200,2.21926123046875,-2.4760092980101702,-1.0660954460740089,-1.0160676788404583
1733768853972221200,2.22922119140625,-3.6278362773835657,-1.0144108515441417,-1.4552210203886031
1733768853982181000,2.23918115234375,-5.307689059978723,-0.7169067453503608,-2.173591408550739
1733768853992142000,2.24914208984375,-6.187966166365146,-0.162473704457283,-2.8739284196332093
1733768854002102000,2.25910205078125,-6.893091288506985,1.2255910115033388,-3.284558554269373
1733768854012063000,2.26906298828125,-3.3666073074027896,2.462865446537733,-3.1483921342402694
1733768854022023200,2.279023193359375,0.39903029773533344,2.968794276502728,-2.7463991873070595
1733768854031983000,2.288983154296875,4.143004352597892,2.929500961512327,-2.099716901783645
1733768854041944000,2.298944091796875,6.369988620901108,3.558043194711208,-2.5252508833020926
1733768854051904300,2.308904296875,6.246176363271474,4.062047778615355,-3.077190353813767
1733768854061865200,2.318865234375,5.421286213064193,3.3307688090413805,-3.2761414390578865
1733768854071825200,2.3288251953125,4.912583826732635,1.8966601347863674,-3.4179970106393096
1733768854081785000,2.33878515625,4.521059666843712,0.6031921033650637,-3.58463484903872
1733768854091746000,2.34874609375,4.0601834460482,-0.022494740402698516,-3.6355735936373472
1733768854101706000,2.3587060546875,3.2176547632977366,-0.23961305823922155,-3.460973982578516
1733768854111667200,2.368667236328125,2.8146546851485965,-0.5785410617113113,-2.760930693745613
1733768854121627100,2.378627197265625,2.700784560340643,-0.7875847941637039,-1.8509204201355576
1733768854131587000,2.388587158203125,2.5882863084077834,-0.6174760647833347,-1.2347808646529912
1733768854141548000,2.398548095703125,2.4743971866384147,-0.07436462837159633,-0.8273504028409719
1733768854151508000,2.408508056640625,2.443607203838229,0.6676467476189136,-0.23349282179325817
1733768854161469000,2.418468994140625,2.4957272671759125,1.3217974693268537,0.40867403213232756
1733768854171429000,2.42842919921875,2.839382006908953,1.2789011614084242,0.8185887119755149
1733768854181389000,2.43838916015625,3.0006910515010357,0.9584037176400423,1.2581968115538358
1733768854191350000,2.44835009765625,3.375577088060975,0.6579360854655504,1.5321999229118226
1733768854201310200,2.458310302734375,3.6958699491679665,0.34893034204840656,1.4708216173633932
1733768854211271200,2.468271240234375,3.683558456866443,0.2079395706027746,1.4936705780312418
1733768854221231000,2.478231201171875,3.149825381913781,0.402138200622797,1.6182611265569924
1733768854231191000,2.48819091796875,2.315513323366642,0.6637859805375337,1.9051660973250866
1733768854241152000,2.498152099609375,1.4610155320115386,0.6646703621566296,2.270672895643115
1733768854251112000,2.50811181640625,0.4946329444468021,0.6634709232389927,2.3635218597322702
1733768854261073200,2.5180732421875,-0.498913398244977,0.7316799515902995,2.2299831578582525
1733768854271033000,2.528033203125,-1.3579858040392399,0.5949918457746506,1.9349629774346946
1733768854280994300,2.537994384765625,-1.9871400316566228,0.24993220767974852,1.6586296695634721
1733768854290954200,2.547954345703125,-2.2530700189352033,-0.3165951756328344,1.466905612963438
1733768854300914200,2.5579140625,-2.3363098815493286,-0.8532049750655889,1.2185410929918288
1733768854310875100,2.567875244140625,-2.2806869246572257,-0.9044488400906324,0.7043459544628858
1733768854320835000,2.5778349609375,-2.2360259451538322,-0.711415746718645,0.38204438388198614
1733768854330796000,2.587796142578125,-2.022304284018278,-0.43587972670495506,0.3162050072714686
1733768854340756200,2.597756103515625,-1.6548369992822407,-0.03631459144055843,0.39454789162427184
1733768854350716200,2.607716064453125,-1.285222181123495,0.1514987214565277,0.34553397760838267
1733768854360677000,2.617677001953125,-0.9556196398794651,0.2903103952974081,0.3465089601203799
1733768854370637000,2.627636962890625,-0.5781681732783094,0.19647008208334446,0.519392999432981
1733768854380598000,2.637597900390625,-0.20716042119013145,0.033467385315895076,0.7979790546670555
1733768854390558000,2.647557861328125,0.05116320100426674,-0.10471768105924129,0.9296601459756493
1733768854400518100,2.65751806640625,0.2280775187462568,-0.33563772975504397,1.0319318951874972
1733768854410479000,2.66747900390625,0.25187457391917706,-0.582631545895338,1.0373413530156015
1733768854420439000,2.67743896484375,0.1544049642920494,-0.7526315542042255,0.9627584057182073
1733768854430400300,2.687400146484375,-0.042566053050756454,-0.784177031546831,0.7490399594530462
1733768854440360200,2.697360107421875,-0.3208955031752586,-0.7351525961369275,0.37413200332224367
1733768854450321200,2.707321044921875,-0.5773778631508351,-0.3805915547251701,0.1183762040555477
1733768854460281000,2.717281005859375,-0.7219242812514305,-0.10932079094052315,-0.2872670820787549
1733768854470241000,2.727240966796875,-1.0492531054098158,0.043756724140048026,-0.6043447805315256
1733768854480202200,2.7372021484375,-1.420215173459053,0.26125088955163955,-0.7342927644371986
1733768854490162200,2.747162109375,-1.778639320039749,0.45282852341830726,-1.0220262949839234
1733768854500123100,2.757123046875,-2.2681448384702203,0.3361404185801744,-1.3201117081969975
1733768854510083000,2.7670830078125,-2.859242599415779,0.18487141422629355,-1.2750120450153946
1733768854520043000,2.77704296875,-3.210204739552736,0.2895844191104173,-1.0528341057017445
1733768854530004000,2.78700390625,-3.4663831481456753,0.3765162681102752,-0.5917553480714559
1733768854539964200,2.796964111328125,-3.644497489327192,0.4781681318581104,-0.006938567091524601
1733768854549925000,2.806925048828125,-3.8087060547530647,0.5373346065759659,0.6386261125788092
1733768854559885000,2.816885009765625,-3.9071500623703,0.460481083998084,1.212915654325485
1733768854569845200,2.82684521484375,-3.843943080089986,0.7292331429600715,1.6634106202296912
1733768854579806200,2.83680615234375,-3.6080431971549984,1.1437228756338358,2.018428319367766
1733768854589766100,2.84676611328125,-3.5383202571094032,1.4421265610158442,2.378837794546783
1733768854599727000,2.85672705078125,-3.668296882587671,1.9086714750975369,2.6238983045369384
1733768854609687000,2.86668701171875,-3.619012334936857,2.662337048524618,2.843968457916379
1733768854619647000,2.87664697265625,-3.766154030227661,3.5630765127032995,3.0509944208055733
1733768854629608200,2.886608154296875,-4.1372213852822775,4.372700120195746,3.0668612675011158
1733768854639568100,2.896568115234375,-4.806166940540075,4.415585906720161,2.583081725502014
1733768854649529000,2.906529052734375,-6.882807210379839,3.267451059862971,1.1588874192789196
1733768854659489300,2.9164892578125,-17.537258280575273,1.65657302929461,-1.7014622645959256
1733768854669449200,2.92644921875,-16.24424091553092,1.9517811335057018,-2.579850780756771
1733768854679410000,2.936409912109375,-4.675548510026932,2.3440993663817644,-1.5522117604576051
1733768854689370000,2.9463701171875,-1.4273451714694498,2.046066267877817,-1.0233370122563092
1733768854699331000,2.9563310546875,0.4394119924843311,2.602815184497833,-0.49766982792466874
1733768854709291000,2.966291015625,1.4351672433972358,2.282472639030218,0.36074491767846045
1733768854719251200,2.976251220703125,1.9397382290124892,1.3911550831913948,1.2250217602480202
1733768854729212200,2.986212158203125,2.251537987062335,0.6063023443400859,1.8234608969323336
1733768854739172000,2.996172119140625,2.7719197052717206,0.7039373736619949,1.8630455960847436
1733768854749133000,3.006133056640625,3.542695987975597,1.1071335589051245,1.5651415307879446
1733768854759093000,3.016093017578125,4.649090711212158,1.3282225339382887,0.8221718311592936
1733768854769054200,3.02605419921875,6.126309043875336,1.9501479793459175,0.12381664154380559
1733768854779014100,3.03601416015625,6.731932173779606,2.671878199329972,-0.7120519987955689
1733768854788974000,3.04597412109375,5.726442879837751,3.0367285795658825,-1.685176607966423
1733768854798935300,3.055935302734375,3.615888065436482,2.8441292014360426,-2.2779475628212094
1733768854808895200,3.065895263671875,2.2444500746279954,1.8996698379963635,-2.4077125913754105
1733768854818856000,3.07585595703125,1.5999123999178408,0.5335457356870175,-2.2076482841923832
1733768854828816100,3.085816162109375,1.5558270283453166,-0.4275754242181778,-2.235471964532882
1733768854838776000,3.095776123046875,1.9261729372575878,-0.9850222599744796,-2.353027938246727
1733768854848737000,3.105737060546875,2.5644892532348633,-1.4116121802866457,-2.425748306542635
1733768854858697200,3.115697265625,3.2269165126398205,-1.636781702631712,-2.310693648125231
1733768854868658200,3.125658203125,3.684454821184277,-1.7659838366061449,-2.0986153702825305
1733768854878618000,3.1356181640625,3.819010298885405,-1.7363158435732124,-1.9448685776382684
1733768854888578300,3.145578369140625,3.844249661821127,-1.4418506666839122,-1.6621417693376541
1733768854898539000,3.1555390625,4.006612014858424,-1.2101157944738865,-1.6398089414983987
1733768854908499000,3.1654990234375,3.9642204415917393,-1.2059376320064068,-1.743892708568275
1733768854918460200,3.175460205078125,4.019163453395665,-1.2403525273054838,-1.3884721277177332
1733768854928420000,3.185420166015625,4.183158376070857,-1.9322101715952156,-1.2145429632663727
1733768854938380000,3.195380126953125,4.502183701460063,-2.399127426120639,-0.9899641002908348
1733768854948341200,3.20534130859375,4.700936926044523,-2.7804168999820944,-0.7718686810504645
1733768854958301200,3.21530126953125,4.826491351166367,-2.989468815740943,-0.5076829801559448
1733768854968262100,3.22526220703125,4.746163430476188,-3.0840158159196376,-0.3836436357721686
1733768854978222000,3.23522216796875,4.605843105638027,-3.0671389153987167,-0.19954992792010307
1733768854988183000,3.24518310546875,3.8412852590575812,-2.882976526224613,0.17783556077275425
1733768854998143200,3.255143310546875,1.6803484571576117,-2.1204922710478304,0.9611723055705428
1733768855008103200,3.265103271484375,0.10454524710178374,-1.0868746147304773,1.5728668643429875
1733768855018064000,3.27506396484375,0.5013552384391426,-0.7047539507418871,1.6334323922038076
1733768855028023800,3.28502392578125,0.8449690616399049,-0.6548813740700483,1.7551073455438018
1733768855037984500,3.294984619140625,0.5710428149104118,-0.5058434897691011,1.984086781565845
1733768855047944700,3.30494482421875,-0.29522593212872744,-0.2442769583970308,2.168262614743411
1733768855057904600,3.314904541015625,-1.5104203450411557,-0.17257190462350844,2.254939027677476
1733768855067865600,3.324865478515625,-2.595355808402598,-0.17248890251517296,1.867191755978763
1733768855077825800,3.33482568359375,-3.7276802149266004,-0.21755670925378798,1.0119427078649401
1733768855087786800,3.344786865234375,-6.173795017671584,0.23714228421151637,0.3114861620560288
1733768855097746700,3.35474658203125,-8.694898718166352,0.8022247294127941,-0.22387687045233323
1733768855107707000,3.364706787109375,-7.834053457480668,0.5589397046625614,-0.4275236940309405
1733768855117667600,3.37466748046875,-6.259890415847301,0.10087620320022106,-0.32448326200153677
1733768855127627500,3.38462744140625,-5.005051682549714,-0.24716508105397222,-0.2772460388019681
1733768855137588700,3.394588623046875,-3.0897897231459615,-0.6028489890158176,-0.5165688819229602
1733768855147548700,3.404548583984375,-1.3996762432992458,-0.8289040620237589,-0.9806205178841948
1733768855157509600,3.414509521484375,-0.33480449380129573,-0.821152717244625,-1.5366384898811578
1733768855167469800,3.4244697265625,0.3021425796493888,-0.7945873664021491,-2.0522668760836122
1733768855177429800,3.4344296875,0.18303163157850502,-0.43841713622808454,-2.8069278902888297
1733768855187390500,3.444390380859375,-2.0505717626035214,1.2938853800505399,-4.069867220194638
1733768855197350700,3.4543505859375,-5.271954898774624,4.132710629859567,-5.014350256770849
1733768855207311600,3.4643115234375,-2.068363732142746,4.886660865446925,-5.099140417566895
1733768855217271600,3.474271484375,0.9321420259192585,3.877149476382136,-4.512489114636183
1733768855227231700,3.484231689453125,3.5312335137188433,3.1925866652756927,-4.191986410170793
1733768855237192700,3.494192626953125,5.29275686378479,3.02983239031136,-4.60354242748022
1733768855247152600,3.504152587890625,6.1292579568088055,2.658593770343065,-4.911825701841711
1733768855257113600,3.514113525390625,6.563292347908019,1.0415689075827599,-4.89062333933711
1733768855267073500,3.524073486328125,7.101552837157249,-0.9420318440318107,-4.933413848793506
1733768855277033500,3.534033447265625,7.2993638124555345,-2.1801959213823077,-5.15082968827188
1733768855286994700,3.54399462890625,7.063231582069396,-3.0075691205769775,-5.1530672380656
1733768855296954600,3.55395458984375,6.6370578413426875,-2.63558932685256,-4.896057054823637
1733768855306915800,3.563915771484375,6.134921389397978,-1.5216665461987255,-4.35018316796124
1733768855316875800,3.573875732421875,5.890438679295778,-0.854586784812808,-3.48118324239254
1733768855326836500,3.58383642578125,5.6067526705741875,0.018864859467744827,-2.6375503977924586
1733768855336796700,3.593796630859375,5.3813703822612755,1.7317004587322473,-1.7079468043096362
1733768855346756600,3.603756591796875,5.226055317386985,2.9871079318284988,-0.5915697258388624
1733768855356717600,3.613717529296875,5.187860903549194,3.631653205323219,0.9309039354916662
1733768855366677800,3.623677734375,5.5303381239354605,4.036522292214632,2.6722058238491413
1733768855376638700,3.633638671875,5.175303619793057,4.094094775739312,3.7542625169038772
1733768855386598700,3.6435986328125,4.194225713530183,3.7536341558724637,4.43711940087527
1733768855396558800,3.653558837890625,3.3453350945323703,2.764323258793354,4.850445642727613
1733768855406519600,3.66351953125,2.973755698302388,1.4754185897648333,5.440004942059517
1733768855416479500,3.6734794921875,4.535748701931536,0.24569676206707952,5.956608895295858
1733768855426440700,3.683440673828125,2.623992412561178,-0.9368991573184728,7.071590245091914
1733768855436400600,3.693400634765625,-1.2189485047489403,-0.768757344096899,7.707214545506239
1733768855446360600,3.703360595703125,-3.3304519981771707,0.01618774921298027,6.429076769685745
1733768855456321800,3.71332177734375,-3.844109376567602,0.3951853127449751,5.00714894708991
1733768855466281700,3.72328173828125,-3.6839293360054493,0.48982992807924747,4.047220796361565
1733768855476242700,3.73324267578125,-4.117332443463802,0.3434370053291321,3.3779204363167286
1733768855486202600,3.74320263671875,-5.350583614331484,0.03410509869754314,2.3227201860055326
1733768855496162600,3.75316259765625,-7.29213619928956,0.06926759749352931,1.278537881053984
1733768855506123800,3.763123779296875,-7.685462147903442,0.09238076205551624,1.1167531817741692
1733768855516083700,3.773083740234375,-7.066082879847288,0.2284615496277809,0.9746694274600595
1733768855526044700,3.783044677734375,-6.260029532057047,0.31526363476812835,0.7212838644560426
1733768855536004900,3.7930048828125,-5.309476527917385,0.11051321559548377,0.5702384397249668
1733768855545965600,3.802965576171875,-4.314920715922117,-0.3303787863135338,0.653392377621308
1733768855555925500,3.812925537109375,-3.516116608607769,-0.635670477643609,0.6123699738159776
1733768855565885700,3.8228857421875,-2.7923417310535905,-0.7197399229496717,0.478412681203708
1733768855575846700,3.8328466796875,-2.0263444993197917,-0.706395288208127,0.1319805126465857
1733768855585806600,3.842806640625,-1.3277660223424435,-0.4717378065496683,-0.05874222142379731
1733768855595767800,3.852767822265625,-0.7904455173570663,-0.17837094629108904,-0.2219949474295601
1733768855605727700,3.862727783203125,-0.40179808194823563,-0.015097031366825104,-0.2996347615469247
1733768855615687700,3.872687744140625,-0.22037768495865165,-0.3083417265504598,-0.3403533235674724
1733768855625648600,3.882648681640625,0.12361936540603637,-0.588899958640337,-0.41728579313308
1733768855635608600,3.892608642578125,0.755505136879161,-0.577788197517395,-0.48321405360344794
1733768855645569500,3.902569580078125,1.1650806478958575,-0.46684068215787405,-0.5955871447866782
1733768855655529700,3.91252978515625,0.8926116142373531,-0.45455637012422084,-0.6933557738929986
1733768855665489700,3.92248974609375,0.7240553749959916,-0.5325941340506076,-0.46687089463304726
1733768855675450600,3.93245068359375,0.39114210176877673,-0.15580080256462095,-0.4013160340523347
1733768855685410800,3.942410888671875,-0.19017207791768012,0.138536364030838,-0.4747650819489732
1733768855695371500,3.95237158203125,-0.8654384336948394,0.08557984986901283,-0.3394648868277669
1733768855705331500,3.96233154296875,-1.3690417433217168,0.06741524762511253,0.01940926854275167
1733768855715292700,3.972292724609375,-1.7251869851849972,0.2101741977870464,0.2745234089050442
1733768855725252600,3.982252685546875,-2.0020223973594606,0.3340618587404489,0.542028974937275
1733768855735212500,3.992212646484375,-2.2204877458907664,0.3534229772925377,0.9063907679386436
1733768855745173800,4.002173828125,-2.355945871520042,0.5786176340788602,1.1603269505627454
1733768855755133700,4.0121337890625,-2.460512161409855,1.3390063782811163,1.344199563010037
1733768855765094700,4.0220947265625,-2.66182968352437,2.9210236405462027,1.4460972182124852
1733768855775054600,4.0320546875,-3.0818706205844877,4.802864976385235,1.4914492487199604
1733768855785014500,4.0420146484375,-3.6878690135419365,5.96607990347445,1.6215063920885324
1733768855794975700,4.051975830078125,-4.624295292651653,6.1876891029894345,1.8381036086604
1733768855804935700,4.061935791015625,-16.405228765344617,5.99709521946311,1.6201429947808383
1733768855814896600,4.071896728515625,-21.486196981883047,5.131603009754419,0.3621826223313808
1733768855824856800,4.08185693359375,-10.453687674832343,2.521271458277106,-0.41621984440200027
1733768855834816800,4.091816650390625,-11.683374431216716,2.1595891866832972,-0.2483523911423981
1733768855844777500,4.101777587890625,-8.334673075121641,2.6997148852825164,0.19565730439573525
1733768855854737700,4.111737548828125,-3.6005215694785115,2.648216753235459,0.8067389919668435
1733768855864698600,4.12169873046875,-0.6165887605547905,2.2040701334446666,0.782688473489508
1733768855874658600,4.131658447265625,1.4555021754175423,1.850311640587449,0.5019760006859898
1733768855884618800,4.14161865234375,3.366290788799524,1.6306190883487461,0.09342501041144131
1733768855894579700,4.151579833984375,4.363358291354775,0.9119821582049131,-0.18531214373111723
1733768855904539600,4.16153955078125,5.510511141437291,0.30991058330237864,-0.5836494907662272
1733768855914500600,4.17150048828125,7.186783142936229,0.49175885031521316,-1.2166008456442505
1733768855924460500,4.18146044921875,8.474336397355794,1.340452485436201,-1.8171710030078887
1733768855934421800,4.191421875,8.516183488482236,2.387575520014763,-2.503747784285247
1733768855944381700,4.201381591796875,7.095106729757785,3.120195967325568,-3.027984424357116
1733768855954341600,4.211341552734375,5.397897738692164,3.2433576520919796,-3.3389228894025087
1733768855964302800,4.221302734375,3.5109517731904982,2.16974817712605,-3.3400977784007786
1733768855974262800,4.2312626953125,1.7376812867075204,0.40317338888943194,-2.753148369306326
1733768855984223500,4.241223388671875,1.201204319874197,-0.7159387771010398,-1.8245272109895943
1733768855994183700,4.25118359375,1.8844906813040374,-1.0353531018078326,-0.6286546075321734
1733768856004143600,4.2611435546875,2.9054288887903095,-1.0924299107700586,0.5137283978000283
1733768856014104600,4.2711044921875,3.5730616078838704,-1.1574427734285593,1.33101771761477
1733768856024065500,4.2810654296875,3.764430275174975,-1.09563484429121,2.0163570660516617
1733768856034026500,4.291026611328125,3.513457034009695,-0.937051717531681,2.7219097659558056
1733768856043986400,4.300986328125,3.178056035619974,-0.8900567421227693,3.1641660419553514
1733768856053946400,4.3109462890625,2.6412019060373306,-0.8972486994534731,3.608551731199026
1733768856063907300,4.3209072265625,2.548355572296679,-0.9797177238255739,3.7133418929725885
1733768856073867500,4.330867431640625,2.9461753251984715,-1.1639461639732123,3.328987186321616
1733768856083828500,4.340828369140625,3.4154160542353984,-1.2008856093138456,2.791031232976913
1733768856093788400,4.350788330078125,4.037466879588365,-0.878964270222187,2.0735453725643453
1733768856103749600,4.36074951171875,4.58183503806293,-0.7265706457525491,1.4164938148483632
1733768856113709600,4.37070947265625,4.972652803248167,-0.8141045522987842,1.0540565601687877
1733768856123669500,4.38066943359375,5.185436306750774,-1.1714619464308023,0.607407236842066
1733768856133630500,4.39063037109375,5.2522413135230535,-1.7986866672903299,0.13477306597456334
1733768856143590400,4.40059033203125,5.201421811389923,-2.619891406983137,-0.0648814182985574
1733768856153551600,4.410551513671875,5.169458985418081,-3.349301075553894,-0.1851945087008178
1733768856163511600,4.420511474609375,5.017206230723858,-3.7607477872699495,-0.29185689408704635
1733768856173471500,4.430471435546875,4.662921083644032,-3.9366672487556933,-0.5073576937243343
1733768856183432700,4.4404326171875,3.9490427462041375,-3.8154391624003647,-0.8309729772523045
1733768856193392600,4.450392578125,1.6973279412701725,-3.3058079707860943,-1.147846823696047
1733768856203353300,4.460353271484375,-1.859977879077196,-2.3039853826582433,-1.1671988821588455
1733768856213313500,4.4703134765625,-4.0948429637581105,-1.3032476671576498,-1.0547202117092906
1733768856223273500,4.4802734375,-5.505024818980694,-0.3876344589740038,-0.9768298934295773
1733768856233234400,4.490234375,-6.308097105133533,0.39648470490574833,-0.5973246726363897
1733768856243194600,4.500194580078125,-7.173486438989639,1.3627555026590823,0.3285654898138717
1733768856253155600,4.510155517578125,-6.526638149249553,1.5209130974829197,1.3069640573322772
1733768856263115500,4.520115478515625,-4.7449850343465805,1.3801479514867065,1.7075483065113424
1733768856273075500,4.530075439453125,-3.5643966553911564,1.0883733288556336,1.30484195061177
1733768856283036400,4.540036376953125,-3.4296795573875305,0.7146364623308181,0.5891516683790833
1733768856292996400,4.549996337890625,-3.541566691684723,0.09061842855811118,-0.2532233581796288
1733768856302957600,4.55995751953125,-2.9695436335653067,-0.790415633675456,-1.1030389830678702
1733768856312917500,4.56991748046875,-1.915311059242487,-1.3735270720422268,-1.8577330227598547
1733768856322878500,4.57987841796875,-0.9312918388307094,-1.7465572516024113,-2.455780164451897
1733768856332838700,4.589838623046875,0.18651918143332002,-2.1663713941693303,-2.873261480157077
1733768856342798600,4.599798583984375,1.8130200208082794,-2.1825217339813707,-3.0825849063336848
1733768856352759300,4.60975927734375,0.8918035857900977,0.5241705890983342,-4.0141441639289255
1733768856362719500,4.619719482421875,-4.142194497519731,5.988624328237772,-5.572208011415601
1733768856372680400,4.629680419921875,-6.286447583383321,8.89010915557742,-6.651743369299173
1733768856382640400,4.639640380859375,-4.664587263290584,10.06484150198102,-8.656647021183371
1733768856392600600,4.6496005859375,-5.76892885338962,8.250140103957056,-9.800753343176842
1733768856402561500,4.6595615234375,-2.0762989090561867,4.204553046277165,-8.503225807231663
1733768856412521500,4.669521484375,5.585251617383957,2.9735727429509162,-7.447214532798529
1733768856422482400,4.679482421875,8.320026125609875,0.30799335150420665,-5.961863162562251
1733768856432442400,4.6894423828125,8.283937159618734,-2.6029694982767104,-4.54072912069261
1733768856442403600,4.699403564453125,9.21171309928298,-3.623132045215368,-4.533693522967398
1733768856452363500,4.709363525390625,10.396627817004918,-4.725114212706685,-4.929269588595629
1733768856462323500,4.719323486328125,10.618470240753888,-5.48679124315381,-4.367478001633287
1733768856472284700,4.72928466796875,10.508256300365924,-4.742135490134358,-3.2030276875302195
1733768856482244600,4.73924462890625,10.19954924763441,-2.4482722730398176,-2.1442712060421703
1733768856492205300,4.749205322265625,9.26379984487295,0.5494862321406603,-1.383163207654655
1733768856502165500,4.75916552734375,8.067380567318201,3.1649604072034356,-0.6155290954340249
1733768856512125400,4.76912548828125,6.610172172504663,4.880238723444938,1.0720407643444836
1733768856522086400,4.77908642578125,5.354203558394312,5.315745525184274,3.2367966861411928
1733768856532046600,4.789046630859375,4.433848416380584,5.3716018524408335,4.558362100277841
1733768856542007600,4.799007568359375,3.875926656588912,5.578734198313951,5.5302960383594035
1733768856551967500,4.808967529296875,3.4671921264410015,4.846228901815414,6.406757385849953
1733768856561927700,4.818927734375,3.281056391367316,3.16457988345325,6.68289429436624
1733768856571888400,4.828888427734375,5.553839411032199,1.0528075099557637,7.063160854920745
1733768856581848300,4.838848388671875,3.4206998398572206,-0.7059779395788908,8.434516428142786
1733768856591809500,4.8488095703125,-1.190102860949561,-0.9149258104413748,8.805876628664135
1733768856601769500,4.85876953125,-3.4239112031191588,-0.20613982770442962,7.162001752901077
1733768856611729400,4.8687294921875,-3.9888369964540002,0.06693710871934891,5.250431049230694
1733768856621690600,4.878690673828125,-4.212994711408019,-0.18992460596263408,3.4475355320736765
1733768856631650600,4.888650634765625,-7.001863797914981,0.197561968973279,1.424172678913176
1733768856641611500,4.898611572265625,-7.146144843077659,-0.2742541635096073,2.2844880705058572
1733768856651571500,4.908571533203125,-7.3269614289551965,0.04721943181455135,1.324479986409098
1733768856661532400,4.918532470703125,-7.53663761409223,0.3263204508334398,0.43679494185373186
1733768856671492600,4.92849267578125,-6.6407724779516455,-0.10882862350940704,0.6604362317182123
1733768856681452500,4.93845263671875,-5.343251371747255,-0.45030631146430966,0.9990077499028295
1733768856691413500,4.94841357421875,-4.068965595179796,-0.8410276305377483,1.1776305520631372
1733768856701373700,4.958373779296875,-2.928303276160359,-1.0832353814452886,1.3098289452441036
1733768856711334400,4.96833447265625,-1.8791425982743502,-1.0208376697212458,1.4034975551530717
1733768856721294300,4.97829443359375,-1.0258680651038885,-0.7231435939133167,1.2401552511677145
1733768856731254500,4.988254638671875,-0.20645546952486038,-0.42410511775910853,1.0086920355059206
1733768856741215500,4.998215576171875,0.4640279628247022,-0.15686463240385054,0.5574793497864157
1733768856751175400,5.008175537109375,1.4242694172859192,-0.23718729239702224,0.24705044169835744
1733768856761136600,5.01813671875,2.0599685365021227,-0.35049686071276664,0.05747260334677994
1733768856771096600,5.0280966796875,2.617250537085533,-0.21765549345314503,-0.21880473655350505
1733768856781056500,5.038056396484375,2.8841613520950076,-0.19450082783699035,-0.40705877895541487
1733768856791017500,5.048017578125,2.857211970371008,-0.14266016596257686,-0.44298210605606436
1733768856800977400,5.057977294921875,2.898777321946621,-0.05586918673813343,-0.6904952698953449
1733768856810938400,5.0679384765625,2.112539266216755,-0.21412088958621023,-0.5027507844507694
1733768856820898600,5.077898681640625,2.0368688159435986,0.20258359652757643,-0.8726876741707325
1733768856830859500,5.087859619140625,1.5799930629611014,0.41734687567055223,-1.337104928573966
1733768856840819500,5.0978193359375,0.9562322188198565,0.02763327233493328,-1.3469193433627484
1733768856850779600,5.107779541015625,0.3100210579395294,-0.2146183177143335,-1.3811121203437446
1733768856860740400,5.117740234375,-0.31738245355300604,-0.2835334485083818,-1.419116272306442
1733768856870700300,5.1277001953125,-0.9036977294623851,-0.31530630486607547,-1.3658172283172607
1733768856880661500,5.13766162109375,-1.4648060103356837,-0.3549731293439865,-1.1194516270779074
1733768856890621400,5.147621337890625,-2.0912100624620913,-0.4182067073702812,-0.8318371928662062
1733768856900581400,5.157581298828125,-2.6438930448174474,-0.13759294570088385,-0.5192913656894117
1733768856910542600,5.16754248046875,-3.0948844159364697,0.3265209418416023,-0.193132096767053
1733768856920502500,5.17750244140625,-3.5835517299771307,0.7494692907810211,0.35940555883347985
1733768856930463500,5.18746337890625,-4.0205309423565865,1.133418339240551,1.1464053196508437
1733768856940423400,5.19742333984375,-4.324110569071769,1.6527309669137,1.9972363321267068
1733768856950383400,5.20738330078125,-4.477193344849348,2.4206126972198483,2.9242446484193203
1733768856960344600,5.217344482421875,-4.453445389515161,3.3361060784161087,3.6591280722260473
1733768856970304500,5.227304443359375,-4.406669609814882,4.135265575039386,3.9785079101413485
1733768856980265500,5.237265380859375,-4.311641548120975,4.916209616014361,4.104464486323296
1733768856990225700,5.2472255859375,-4.248570467180014,6.187634157931805,4.175927840295434
1733768857000185600,5.257185546875,-4.424214618855714,7.054370230221748,4.040471614362299
1733768857010146300,5.267146240234375,-4.824745384281873,6.7052586863875385,3.412628177082538
1733768857020106200,5.277106201171875,-5.942223811590671,4.763014027512074,2.098620630979538
1733768857030067200,5.287067138671875,-9.525407292777299,1.592480204090476,-0.21914638959802685
1733768857040027400,5.29702734375,-10.01687446666956,-0.8100023776769638,-1.8597787032432853
1733768857049988400,5.30698828125,-5.610756645518541,-1.2397089687049387,-2.1187898510441183
1733768857059948300,5.3169482421875,-2.307193238788843,-0.7220382630199194,-2.073288036802411
1733768857069908500,5.326908447265625,-0.30678163762688637,-0.26415713238716126,-1.7849970185033976
1733768857079869200,5.336869140625,1.0674188036322594,0.06261456934511661,-1.3679884348765015
1733768857089829000,5.3468291015625,2.245918978136778,0.13243746263384817,-0.8192891153298318
1733768857099790300,5.356790283203125,3.0197943958997726,0.15247604205608367,-0.33290289796367284
1733768857109750300,5.366750244140625,3.551526944684982,0.3294669321656227,0.07272226799204945
1733768857119710200,5.376710205078125,3.9182366890519855,0.6907207492142915,0.2109356836788356
1733768857129671400,5.38667138671875,4.6746740652799605,1.074062479430437,-0.03818476922661066
1733768857139631400,5.39663134765625,5.412353549546003,1.6960791102528572,-0.3871145267531276
1733768857149592300,5.40659228515625,5.801533484396338,2.46818634929955,-0.7223672027133404
1733768857159552300,5.41655224609375,5.306068765300512,2.795692210525274,-1.074081184130907
1733768857169512200,5.42651220703125,4.647172310370206,2.2816940558731553,-1.144346852751076
1733768857179473400,5.436473388671875,4.123340159446001,0.9149129509598016,-0.5379029079832136
1733768857189433300,5.446433349609375,3.519262213157117,-0.5247562800318002,0.35970424951910973
1733768857199394300,5.456394287109375,3.026807489532232,-1.16432318059206,0.9929230962269008
1733768857209354500,5.4663544921875,2.8064938827857375,-1.3415344354540109,1.2418731610015035
1733768857219315200,5.476315185546875,2.8769577043265104,-1.3975859930217265,1.3298426824860274
1733768857229275100,5.486275146484375,3.0527362960368394,-1.4586556710124015,1.273589903257787
1733768857239235300,5.4962353515625,3.1684920884609222,-1.4065958134293555,1.1661015884414314
1733768857249196300,5.5061962890625,3.217101513329148,-1.2952332875281571,0.9392539037510752
1733768857259156200,5.51615625,3.1781314389437436,-1.3113672607272862,0.5049928642891347
1733768857269117400,5.526117431640625,3.126343091778457,-1.200268938720226,0.15610577686056493
1733768857279077400,5.536077392578125,3.1814903939828274,-1.0535708955436944,-0.14045520326420663
1733768857289037300,5.546037353515625,3.2513410520613193,-0.9926672217696905,-0.48278877739608284
1733768857298998300,5.555998291015625,3.2750229564219713,-0.8948089050859213,-0.729541770517826
1733768857308958200,5.565958251953125,3.2584947232082486,-0.9038982204705476,-1.0057128004994242
1733768857318919400,5.57591943359375,3.2900764409080145,-0.9719435826927423,-1.2028961454186589
1733768857328879400,5.58587939453125,3.3988901591092344,-1.316466629692912,-1.235436552082747
1733768857338839300,5.59583935546875,3.356935808216035,-1.765381194537878,-1.2150312582399696
1733768857348800500,5.605800537109375,3.1696704845905304,-2.024848123282194,-1.2320903103947638
1733768857358760400,5.615760498046875,2.8065549653232096,-2.0799568470418452,-1.014569987628609
1733768857368721200,5.62572119140625,2.4326292982280253,-2.085507466906309,-0.7844139090426265
1733768857378681300,5.635681396484375,0.3918845176339149,-1.6927151867777108,-0.39576537765525277
1733768857388641300,5.645641357421875,-2.2069816369771957,-1.0099164627343415,0.24466288897469637
1733768857398602200,5.655602294921875,-1.5958789066180585,-0.5177542923152446,0.5485083635518327
1733768857408562200,5.665562255859375,-0.8045587253183126,-0.4584469478219747,0.7887539840735495
1733768857418523400,5.6755234375,-0.3312693054124713,-0.6698042179137468,1.1235614004842935
1733768857428483300,5.6854833984375,-0.2992734539538622,-0.912275003671646,1.4141782313823699
1733768857438444300,5.6954443359375,-0.79324296605587,-1.0374275699943303,1.5645331896312533
1733768857448404200,5.705404296875,-1.5731559104174375,-0.8597241477012634,1.5403532726205884
1733768857458364200,5.7153642578125,-2.3032833718687296,-0.5075444484680891,1.4497386434547603
1733768857468325400,5.725325439453125,-2.5240946990042925,-0.15765139886736868,1.2475070752352475
1733768857478285300,5.735285400390625,-3.336175344260037,0.29224983892738815,0.9758191089518368
1733768857488246300,5.745246337890625,-3.924112303087115,0.7107049681007862,0.5710745252229273
1733768857498206500,5.75520654296875,-4.226851387324929,0.8607049754321575,0.45020358174219727
1733768857508166400,5.76516650390625,-3.9635952954307196,0.9293933117330073,0.40552415326666086
1733768857518127000,5.775127197265625,-3.707904670354724,1.0112608630806208,0.14210406644977627
1733768857528087300,5.78508740234375,-3.2613810922995206,1.0376251383930444,-0.42433815933000296
1733768857538048300,5.79504833984375,-3.369485785448551,0.7815420068681239,-1.0263337829194963
1733768857548008200,5.80500830078125,-2.7666347506061193,0.2315413954645395,-1.3831138155549765
1733768857557968400,5.814968505859375,-2.1093974610596895,-0.1980623197108507,-1.3922956315286457
1733768857567929300,5.824929443359375,-0.8662380596399307,-0.5109820217013359,-1.3407961843073368
1733768857577889300,5.83488916015625,1.100370348380506,-0.9409405416637658,-1.4492024907514451
1733768857587850200,5.844850341796875,2.524998369845748,-1.2830413299530743,-1.7454460754901169
1733768857597810200,5.85481005859375,2.677451323287189,-1.109803654897213,-2.396068330810964
1733768857607771400,5.864771484375,0.36319121485203504,0.24083704707622527,-3.5477141083985564
1733768857617731300,5.8747314453125,-4.098209225320816,3.0895944928348062,-4.820430443692207
1733768857627691300,5.884691162109375,-9.002374767798186,6.091047176358104,-5.378864536920189
1733768857637652500,5.894652587890625,-4.635903605119884,5.692786109429598,-5.767154829454421
1733768857647612400,5.9046123046875,-1.0801377076908945,3.9512393794655796,-5.2621828618228434
1733768857657573000,5.914572998046875,4.255931351336836,3.2276977261453865,-4.1139653051182625
1733768857667533300,5.924533203125,8.219248122087121,2.3277385986894368,-2.761162164413929
1733768857677493200,5.9344931640625,7.899035925000906,-0.4645458492189645,-1.8781255301862954
1733768857687454200,5.9444541015625,7.45608815960586,-3.638118601945042,-0.875687440508604
1733768857697414400,5.954414306640625,8.61748639266193,-4.618027464428544,-0.03470335685163736
1733768857707375400,5.964375244140625,8.897368917447327,-4.445663649597764,0.4827589667797088
1733768857717335300,5.974335205078125,8.33014419952035,-4.3977106428116555,0.4287079719120636
1733768857727295500,5.98429541015625,8.375356967687607,-3.3185043707519766,0.295571311500296
1733768857737256200,5.994256103515625,8.119614612424373,-0.9592723171681166,0.38789858980290587
1733768857747216100,6.004216064453125,7.157825343999266,0.9767050980061293,0.3598758066937327
1733768857757177300,6.01417724609375,5.992966156834363,2.4956816744685173,0.4068718780811876
1733768857767137300,6.02413720703125,4.947310856720805,3.7959482799887656,0.9326729179255664
1733768857777098500,6.034098388671875,4.074276561069488,4.6919735751271245,1.2820324451714753
1733768857787058400,6.044058349609375,3.305724968677759,4.5943502362430095,0.9684696229718625
1733768857797018400,6.054018310546875,2.0035241802245376,3.5747032376110552,0.39311186747178434
1733768857806979300,6.063979248046875,0.9628111588187516,1.5652467447280882,0.12753076669611035
1733768857816939300,6.073939208984375,0.27446108425855636,0.6789736127972602,0.1596788130417466
1733768857826900200,6.083900146484375,-0.3186281427651644,0.5874684645324945,0.3208747526481747
1733768857836860400,6.0938603515625,-0.4489364844158292,0.3104267161309719,0.7513665757697076
1733768857846820400,6.1038203125,-0.48211657722294327,0.15252631093859673,1.2372281116746364
1733768857856781300,6.11378125,-0.6073894089244306,0.4295610450774431,1.5435798334516584
1733768857866741500,6.123741455078125,-0.6635720455259084,0.7084265017747878,1.6864970429152248
1733768857876702200,6.1337021484375,-0.6692740565598011,0.7556932798624039,1.7011287948578595
1733768857886662100,6.143662109375,-0.4820189620673656,0.6623147389411926,1.561489145760238
1733768857896622300,6.153622314453125,-0.06234817349389195,0.28054654165208337,1.4107377355396746
1733768857906583300,6.163583251953125,0.43792920658066864,-0.29242461097240446,1.3677008501067758
1733768857916543200,6.173543212890625,0.9323176747471094,-0.542729743617773,1.2209414321318268
1733768857926504400,6.18350439453125,1.3386753927610813,-0.4379477651506662,0.7794528525691479
1733768857936464400,6.19346435546875,1.7355460282444952,-0.24798224265575408,0.3799718153916299
1733768857946425000,6.203425048828125,1.9921762722581624,-0.03798807761073112,0.1739225885801017
1733768857956385300,6.21338525390625,1.8262579803049563,0.1763479160308838,-0.20539690038263797
1733768857966345200,6.22334521484375,1.5097732793092726,0.21671850486397742,-0.5273590098761022
1733768857976306200,6.23330615234375,1.109642911377549,-0.0007709843724966049,-0.6175473764538765
1733768857986266400,6.243266357421875,0.5855730061747133,-0.2073123786151409,-0.6286364142883568
1733768857996227300,6.253227294921875,0.054338908430933947,-0.32221418455839157,-0.6681257633075117
1733768858006187300,6.263187255859375,-0.37766616879776116,-0.31710838585197926,-0.7001288482245057
1733768858016147500,6.2731474609375,-0.7153719369985163,-0.18396072912216185,-0.6395609822761267
1733768858026108000,6.28310791015625,-0.9511896946080028,-0.07253273676931858,-0.494991621691361
1733768858036067800,6.29306787109375,-1.0913093823075293,-0.04444879805743694,-0.20969386692419648
1733768858046028800,6.30302880859375,-1.1367249065052718,0.049698389148712156,0.04270655749998987
1733768858055989000,6.312989013671875,-1.1369113689880816,0.14858078818321227,0.2894222873512655
1733768858065949000,6.322948974609375,-1.2670277682632207,0.13710428540110586,0.3075822134200483
1733768858075910000,6.332909912109375,-1.433822258529067,0.11306640720963478,0.48177287835180754
1733768858085870000,6.3428701171875,-1.5276678324401378,0.15186638572514055,0.7399025671429932
1733768858095831000,6.3528310546875,-1.5058832861334084,0.12255845817625521,0.9429211940869688
1733768858105791000,6.362791015625,-1.2839537686228752,0.06073942312300205,1.07796387078315
1733768858115751000,6.3727509765625,-0.8282038047999143,0.14529168350994587,1.1060622033465652
1733768858125712000,6.3827119140625,-0.346115284627676,0.19708324554562567,0.9993836705431342
1733768858135671800,6.392671875,0.10106266568303107,0.15334873323738574,0.7041616108719259
1733768858145633000,6.402633056640625,0.5838350764662027,0.1274210957765579,0.27860950917489824
1733768858155593000,6.412593017578125,1.0801040976822376,0.12144903562963008,-0.31020364796482025
1733768858165553000,6.422552978515625,1.4753338340908289,0.19156769699454307,-0.9037617346093058
1733768858175513900,6.432513916015625,1.7891607140541075,0.22179916912913322,-1.1480695996012538
1733768858185473800,6.442473876953125,1.9372253694087265,0.16652210306525228,-0.9320587315499782
1733768858195434800,6.452434814453125,1.8619177610985933,0.16100655451416968,-0.26403788992166516
1733768858205395000,6.46239501953125,1.5959908425599336,0.5303419712096452,0.6926393692519516
1733768858215356000,6.47235595703125,1.370788586989045,1.492763692319393,1.7381943507961928
1733768858225315800,6.48231591796875,1.3578962260596454,2.848597286760807,2.607643335306644
1733768858235276000,6.492276123046875,1.3594208052784205,4.032697765490412,3.286528100776672
1733768858245237000,6.502237060546875,1.2400894924551247,4.226120150440931,3.578860941812396
1733768858255197000,6.512197021484375,1.1948292318843305,3.4311499222010373,3.574826279468834
1733768858265158000,6.522157958984375,1.9170598026059567,1.7318150250226259,3.2098999113872644
1733768858275117800,6.532117919921875,3.3341917692273855,0.8452917177230119,2.119378172326088
1733768858285077800,6.542077880859375,4.653846381306648,0.6443839454531669,0.35581864025741816
1733768858295039000,6.5520390625,5.702450009831786,0.5830658456593751,-1.4453420159310102
1733768858304999000,6.5619990234375,5.907560494488477,0.7089075632899999,-3.203321409779787
1733768858314960100,6.571960205078125,4.864231006973982,0.18139292446076868,-4.473843449899554
1733768858324920000,6.581920166015625,3.1660072859078645,-0.7596838108032942,-5.253030418074131
1733768858334880000,6.5918798828125,1.2970878293536603,-1.1040092894047497,-6.059457275351882
1733768858344841000,6.601841064453125,-0.8732458925753831,-0.26733868503272534,-7.2621478882610795
1733768858354801000,6.61180078125,-3.0611411362886427,0.24417525158822534,-7.8226371604531995
1733768858364761900,6.621761962890625,-7.88131088321805,-0.8711930516988039,-6.7392655854076144
1733768858374722000,6.63172216796875,-8.115377997767924,-0.7188128712326288,-4.604157929030061
1733768858384682000,6.641681884765625,0.9289309549182653,0.13876783469915388,-4.310203624272346
1733768858394643000,6.651642822265625,2.988815904790163,-0.7583908483833074,-3.38675723824501
1733768858404603000,6.661602783203125,3.717797703337669,-0.6460428185760975,-2.3503740627370773
1733768858414563800,6.671563720703125,4.162015634799003,-0.09642916066348552,-1.4079083573326467
1733768858424523800,6.681523681640625,4.094351088587939,-0.18343992011845112,-0.22527634372040628
1733768858434485000,6.691485107421875,3.9789439634710546,-0.1322276192754507,0.8246722696729004
1733768858444445000,6.70144482421875,3.713657827053964,0.23539047210812566,1.7433536332555115
1733768858454404900,6.71140478515625,3.50641588332653,0.18723229813873768,2.6585838334709404
1733768858464366000,6.721365966796875,3.11911957026571,-0.03903261822760105,3.32767376563549
1733768858474326000,6.731325927734375,2.795008319914341,-0.2463297992736101,3.783604346722364
1733768858484287000,6.741286865234375,2.691130304549634,-0.6138245565384626,3.732240654709935
1733768858494247000,6.751246826171875,2.733969621583819,-0.9116758687347173,3.559859888744354
1733768858504206800,6.761206787109375,3.012212562468648,-1.3086995028227566,3.4784421269908545
1733768858514168000,6.77116796875,3.410223454028368,-1.5570435645282268,3.1265655023574825
1733768858524128000,6.7811279296875,3.7302497731536626,-1.469852187809348,2.5683812922373415
1733768858534089000,6.7910888671875,3.783137313732505,-1.1546826610654592,1.9379700502961872
1733768858544049200,6.801049072265625,3.3648964118316766,-0.8121008112609386,1.3558021763898431
1733768858554009000,6.811009033203125,2.6391262688070536,-0.6378565895110369,0.7372400699354708
1733768858563969800,6.8209697265625,1.7937014262236655,-0.5933674594432116,0.14628376328721643
1733768858573930000,6.830929931640625,0.8944495702542364,-0.526265515550971,-0.4231551235578954
1733768858583891000,6.840890869140625,-0.3452044533930719,-0.3218815916031599,-1.1725487918194382
1733768858593851000,6.850850830078125,-1.7149160588003693,-0.0016834230422973632,-2.0198123210720715
1733768858603811000,6.86081103515625,-5.1163820597469805,0.48022857151925563,-3.229503898784518
1733768858613772000,6.87077197265625,-8.76843507902026,0.5727648163974285,-4.46225968735069
1733768858623732000,6.88073193359375,-3.373327263307571,0.0807838477641344,-3.86533687351346
1733768858633693000,6.89069287109375,0.022037644284963607,0.08219488360583782,-3.544878884972632
1733768858643652900,6.90065283203125,0.6265519361644983,-0.17473405109345913,-2.9594036400839685
1733768858653614000,6.910614013671875,0.830817202168703,-0.5920084460496902,-2.1328154537871478
1733768858663574000,6.920573974609375,0.6075855160184204,-0.6186439395189285,-1.7475700819067657
1733768858673534000,6.930533935546875,-0.13224157473556697,-0.39525428632795806,-1.495627703448385
1733768858683495200,6.9404951171875,-0.7781125438760965,-0.15326456208527087,-1.1091950214795767
1733768858693455000,6.950455078125,-1.0010666551940142,0.0028998130947351453,-0.6480557658337056
1733768858703415800,6.960415771484375,-0.7909497405521572,-0.010135025045275688,-0.17451470925435422
1733768858713376000,6.9703759765625,-0.3894507146157324,-0.031850597769021986,0.21846637144461273
1733768858723336000,6.9803359375,-0.036411037552356716,-0.13733341798186302,0.5414794512957334
1733768858733297000,6.990296875,0.11849310843348503,-0.21763503518700597,0.7468199453160166
1733768858743257000,7.000257080078125,0.12369184612035751,-0.21354572004675865,0.8782830099597573
1733768858753218000,7.010218017578125,0.06534151009097695,-0.16205927843749524,1.0046661409907043
1733768858763178000,7.020177978515625,-0.07858283058851957,-0.11292086125910282,1.106948265466094
1733768858773138000,7.030137939453125,-0.30058336750864983,-0.1984633017271757,1.1452563688114286
1733768858783099000,7.040098876953125,-0.5937092586182058,-0.345421457144618,1.1294063271202146
1733768858793058800,7.050058837890625,-0.843208481708169,-0.32204467321038244,1.111797166801989
1733768858803020000,7.06002001953125,-0.5542004011809826,-0.3242044815927744,1.2867793474376201
1733768858812980000,7.06997998046875,0.1755669947862625,-0.32996903646886344,1.5402493738546967
1733768858822940000,7.07993994140625,0.6813211988367139,-0.4095405858337879,1.811290858928114
1733768858832901000,7.089901123046875,0.8358686403393745,-0.5982663374006748,2.1454995787933466
1733768858842861000,7.099861083984375,0.673537559223175,-0.8095236542493105,2.4955367130398747
1733768858852821800,7.10982177734375,0.2796842257343232,-0.9995715943306684,2.729122766074538
1733768858862782000,7.119781982421875,-0.12641396456062792,-1.3505354880332947,2.848856229957938
1733768858872743000,7.129742919921875,-0.465001045640558,-1.5341495956748723,2.9344126989513635
1733768858882702800,7.139702880859375,-0.6665266575478017,-1.6484908451259135,2.992249386370182
1733768858892663000,7.1496630859375,-0.8423292877208441,-1.7256226001232862,3.0636703625053165
1733768858902624000,7.1596240234375,-1.2291374519385396,-1.6811363926649092,3.2184149340152737
1733768858912584000,7.169583984375,-2.5219512572348117,-1.196264963775873,3.5559500218242404
1733768858922545000,7.179544921875,-6.247762755680084,-0.06459785211682319,3.988087639391422
1733768858932504800,7.1895048828125,-9.31456615551412,1.888091043883562,3.416234092620015
1733768858942464800,7.19946484375,-6.834469588190316,3.837589619410038,1.2300837928779422
1733768858952426000,7.209426025390625,-3.4151790306091305,4.664413368028402,-1.3672213960267603
1733768858962386000,7.219385986328125,-1.5166630388230085,5.020946586295962,-2.9423928840503093
1733768858972347100,7.22934716796875,-1.10294604408741,4.181051174658537,-3.6565725425243376
1733768858982307000,7.23930712890625,-0.8182710243284702,1.5806863059222698,-3.414605906896293
1733768858992267000,7.24926708984375,-0.05653671073615551,-1.138274547100067,-3.143096658180654
1733768859002228000,7.25922802734375,0.8199159419912845,-2.5773510728955267,-3.320555165801942
1733768859012188000,7.26918798828125,1.3190484628796577,-2.9163644165635105,-3.2874022532626985
1733768859022149600,7.279149658203125,1.2561509849399328,-2.7060744834423063,-3.219798497328162
1733768859032109600,7.289109619140625,0.8345330078214407,-1.8879449134111403,-3.3289652667507528
1733768859042069500,7.299069580078125,0.36105749075897037,-0.7703630257278681,-3.316623963832855
1733768859052030500,7.309030517578125,0.16874219026751816,0.049288054782152174,-2.9804049270585176
1733768859061990400,7.318990478515625,0.32669330273382363,0.4379577020227909,-2.470261694268882
1733768859071951600,7.32895166015625,0.7001351318348199,0.6975187387913465,-2.0353584113806487
1733768859081911600,7.33891162109375,1.06933143232055,0.8913239855796098,-1.8607687371939419
1733768859091871500,7.34887158203125,1.4655693959236145,1.002323523387313,-1.5163123256891966
1733768859101832700,7.358832763671875,1.6055881074666976,0.7107680964648723,-1.018168450511992
1733768859111792600,7.368792724609375,1.6344757637768983,0.5180015450745821,-0.39092392897345124
1733768859121753300,7.37875341796875,1.4895733718454838,0.4954471834391355,0.14270258033219724
1733768859131713500,7.388713623046875,1.5978683268696068,0.6776029089659452,0.7735113336909561
1733768859141673500,7.398673583984375,1.9803052172005176,0.927797566974163,1.5401272087797522
1733768859151634400,7.408634521484375,2.3341771073043347,1.0393822111934423,2.3435209819719196
1733768859161594600,7.4185947265625,2.6409604984968897,0.8680793035924435,3.11487740265131
1733768859171555600,7.4285556640625,2.702554492622614,0.3454255487978458,4.03488446187973
1733768859181515500,7.438515625,2.280950544029474,-0.1197533376276493,4.959154439249635
1733768859191476500,7.4484765625,1.4506746091306209,-0.5992652853101491,5.385944266048074
1733768859201436400,7.4584365234375,0.47894024874176827,-0.9528162728965281,5.149882762810588
1733768859211396400,7.468396240234375,-0.21088205379545688,-1.0003788190603256,4.4563709215730425
1733768859221357600,7.478357666015625,-0.45705227859318254,-0.628635756701231,3.607449030654132
1733768859231317500,7.4883173828125,-0.45472062077522274,-0.23240181168615817,2.8313913004159925
1733768859241278700,7.49827880859375,-0.5088777428984642,0.12109306179881095,2.058306448508799
1733768859251238700,7.50823876953125,-0.6013759938538075,0.4650397702157497,1.4292568503096699
1733768859261198600,7.518198486328125,-0.7678080805480479,0.6086170510232448,0.902849295939505
1733768859271159600,7.52815966796875,-0.9616074821174144,0.7153606849521398,0.40485538715962316
1733768859281119500,7.538119384765625,-1.1027543209075927,0.5755062240600586,0.013584891504514961
1733768859291080400,7.54808056640625,-1.181785187524557,0.31858956432044505,-0.2062593258982524
1733768859301040600,7.55804052734375,-1.2674796036839484,0.07474982829689979,-0.3568883153155446
1733768859311000600,7.56800048828125,-1.3716928423523902,-0.13105039218962192,-0.461976875513792
1733768859320961500,7.57796142578125,-1.64362996109128,-0.16838555884957312,-0.6922045580312609
1733768859330921700,7.587921630859375,-2.0821640016973015,-0.23935119243264197,-0.7795061171263455
1733768859340882400,7.59788232421875,-2.449595630598068,-0.28710195464491844,-0.7037032726451754
1733768859350842400,7.60784228515625,-2.6903648731350898,-0.282930806440115,-0.6666106825694441
1733768859360802600,7.617802490234375,-2.8561960713267323,-0.32349662558436393,-0.5967477495312691
1733768859370763500,7.627763427734375,-3.100646632725,-0.3402420086801052,-0.46756461251825093
1733768859380723500,7.637723388671875,-3.3158360283255575,-0.3849900819450617,-0.35244799478054045
1733768859390684700,7.6476845703125,-3.380572996652126,-0.2649643571168184,-0.2667568117578514
1733768859400644600,7.65764453125,-3.16545608176589,-0.3033808892726898,-0.1493789528235793
1733768859410604500,7.6676044921875,-2.6723043157875535,-0.2813590270787477,0.02519406248927116
1733768859420565500,7.6775654296875,-2.0946669249176977,-0.14623568636178969,0.08527529569817706
1733768859430525400,7.687525390625,-1.5066799894690512,-0.02316460248827934,0.10404255827665328
1733768859440486700,7.697486572265625,-0.9495090480446815,0.13518939169049263,0.12483692450225352
1733768859450446600,7.707446533203125,-0.3388006507653743,0.2204664592206478,0.1122358198706992
1733768859460406500,7.717406494140625,0.21849424583222715,0.18814765941798686,0.12077479876303113
1733768859470367700,7.72736767578125,0.6271393806636333,0.13561024745106695,0.17857903608381748
1733768859480327700,7.73732763671875,0.927916809439659,0.11405600276887416,0.36592151659876104
1733768859490288400,7.747288330078125,1.0497661694984883,0.037387189108133316,0.5940773612782358
1733768859500248600,7.75724853515625,0.9881740020036697,-0.11168225937485694,0.846212924221158
1733768859510209500,7.76720947265625,0.8056535348176955,-0.17756372156143188,1.1371434972435235
1733768859520169500,7.77716943359375,0.47547217077240345,-0.18001228375732897,1.4125886241033672
1733768859530129700,7.787129638671875,0.13717325898408889,-0.08595043674707412,1.6689236845627426
1733768859540090600,7.797090576171875,-0.2822514458738267,0.07620528780221938,1.9426716521158813
1733768859550050600,7.807050537109375,-0.9351226491652429,0.3360141618520021,2.1296830009803176
1733768859560011500,7.817011474609375,-1.7377506986819207,0.7140987021923064,2.2133865355834366
1733768859569971500,7.826971435546875,-2.5313901167094706,1.266803311857581,2.233093983355164
1733768859579931400,7.836931396484375,-3.2645746276438232,2.1057342623770237,2.2042335073128343
1733768859589892600,7.846892578125,-3.875013048875332,3.3198721519738434,2.1351570484772324
1733768859599852500,7.8568525390625,-4.481668444436789,4.368584501570463,2.077909266862273
1733768859609813500,7.8668134765625,-5.255354477107525,4.885845457410812,1.7839578847140072
1733768859619773700,7.876773681640625,-14.473759182983637,4.143362956777215,1.3983832808792591
1733768859629733600,7.886733642578125,-19.522516736268997,2.2279858465611935,0.7391509450580924
1733768859639694300,7.8966943359375,-9.766762226247787,0.7644868271708488,-0.9103478350013494
1733768859649654500,7.906654541015625,-12.110702018153667,1.3523001596182584,-2.0358409342005848
1733768859659615500,7.916615478515625,-10.031039770144224,2.404541267862916,-2.1785560452207924
1733768859669575400,7.926575439453125,-6.077021573615074,3.2119512909591195,-2.1765414905279874
1733768859679535600,7.93653564453125,-3.0027988374352454,3.0786031432211396,-2.266630049993098
1733768859689496600,7.94649658203125,-0.990577556014061,2.2361890267610547,-2.3319614770814776
1733768859699456500,7.95645654296875,0.6070160455673933,1.2854752791017292,-2.4876179027393457
1733768859709417500,7.96641748046875,2.5875544870018956,0.7626601962655782,-2.7505539688989518
1733768859719377400,7.97637744140625,4.568438380873203,0.4796382044106722,-2.822690107566118
1733768859729337300,7.98633740234375,6.614340982621908,0.9042828358739614,-3.176265645071864
1733768859739298600,7.996298583984375,7.789664865177869,1.2400234414815903,-3.2645933323442935
1733768859749258500,8.006258544921875,8.58106132658422,1.3464409121960401,-2.9459663586229086
1733768859759219700,8.0162197265625,8.60379689000547,1.4889812511712313,-2.6611253346472976
1733768859769179600,8.0261796875,7.1040329635351895,1.4269652322411537,-2.378650016889721
1733768859779139600,8.0361396484375,4.62601670961678,1.0653758996278047,-1.8807647926487028
1733768859789100500,8.0461005859375,2.7417349948883056,0.6496832209050655,-1.2196468622766434
1733768859799060500,8.056060546875,1.693669711023569,0.09679214875698089,-0.4663840244315564
1733768859809021400,8.066021484375,1.1945353635042906,-0.44215807632207865,0.3627398178227246
1733768859818981600,8.075981689453124,1.2316671165466309,-0.6988309904336929,1.0120815318137406
1733768859828941600,8.085941650390625,1.7360389263279734,-0.7026210303664207,1.4485080787464975
1733768859838902500,8.095902587890626,2.290699200105667,-0.8551029176414012,1.5916554437041281
1733768859848862700,8.10586279296875,2.616715407295525,-1.1229553974151611,1.6741852583527563
1733768859858823400,8.115823486328125,2.5363497849434613,-1.3405828338176011,1.6945662214718757
1733768859868783400,8.125783447265626,2.32445913862735,-1.3050012328267098,1.4859952210977672
1733768859878743600,8.13574365234375,2.0977204672694203,-1.1062883402526378,1.141072361125052
1733768859888704500,8.14570458984375,1.9702508561760186,-0.7598661816328763,0.7339572488725185
1733768859898664400,8.15566455078125,2.1286334919273853,-0.5215151061534882,0.30777664001360533
1733768859908625700,8.165625732421875,2.2430451762661336,-0.3532739242106676,-0.046839565651491284
1733768859918585600,8.175585693359375,2.374531037263572,-0.34619244151711465,-0.3374015245571732
1733768859928545500,8.185545654296876,2.4815967427536845,-0.6174637898236512,-0.540161646695435
1733768859938506500,8.195506591796875,2.6373525371327995,-1.1319687249541281,-0.6400894631296395
1733768859948466400,8.205466552734375,2.8863758132740855,-1.4600918412953614,-0.598026245034486
1733768859958427600,8.215427734375,3.270771436457336,-1.7175760717898607,-0.49984527226760983
1733768859968387600,8.2253876953125,3.2011978417545555,-2.014984316393733,-0.3906565832741558
1733768859978347500,8.235347412109375,2.2875147248506544,-2.0116841058045623,0.004650310023874044
1733768859988308700,8.245308837890626,1.3693088698253035,-1.8292583311647175,0.35618740050457415
1733768859998268700,8.2552685546875,1.284530399467051,-1.723894168895483,0.37116665071062743
1733768860008229400,8.2652294921875,1.3545549528077243,-1.7015817993223665,0.06795761087350546
1733768860018189600,8.275189453125,1.2501204726040362,-1.7049211728781462,-0.23889278114065526
1733768860028150300,8.285150390625,0.8443439154788851,-1.6552198611199855,-0.42222171516530216
1733768860038110200,8.295110107421875,0.07931991269141435,-1.560939402922988,-0.48807701999731357
1733768860048070100,8.305070068359376,-1.0671651211321354,-1.2256886266589164,-0.39555531510114667
1733768860058031400,8.31503125,-2.295802076202631,-0.8917121081143617,-0.22871435534507034
1733768860067991300,8.3249912109375,-2.9178716062560675,-0.7241098085969686,-0.03397394659854471
1733768860077952500,8.334952392578124,-2.9717145478636025,-0.5168669880867004,0.1399115979067981
1733768860087912400,8.344912353515625,-3.20398718021214,-0.09313888694643974,0.3239068138204515
1733768860097872400,8.354872314453125,-4.039414798785746,0.5205184963315725,0.7943220665294677
1733768860107833300,8.364833251953126,-4.157423046311735,0.8295569729745388,1.3905394355110823
1733768860117793300,8.374793212890625,-3.4241926504090427,0.7864695263981819,1.5997683152720332
1733768860127754200,8.384754150390625,-2.9515412361457942,0.631662411046028,1.2088044926796109
1733768860137714400,8.39471435546875,-3.026725656467676,0.2869160766839981,0.6674984251894056
1733768860147674400,8.40467431640625,-3.291367649762332,-0.08188800961375237,0.19945618522204459
1733768860157635300,8.41463525390625,-3.1195950788229703,-0.5733025765359402,-0.25575813735425473
1733768860167595300,8.42459521484375,-2.7230864085197446,-0.9765607210993766,-0.7094955923110247
1733768860177556200,8.43455615234375,-2.463307345086336,-1.2305243762522935,-1.1319780773043633
1733768860187516200,8.44451611328125,-2.110043650008738,-1.3828548723578453,-1.6085349745735524
1733768860197476400,8.454476318359376,-1.244848377420008,-1.6894786890745161,-2.0894790008857846
1733768860207437300,8.464437255859375,0.06594020663648843,-2.0860662698328496,-2.368061256727576
1733768860217397200,8.474397216796875,1.3013815810248255,-2.377293779975176,-2.496961485145986
1733768860227358500,8.4843583984375,2.2189900546789167,-2.354226792642474,-2.5959979056984186
1733768860237318400,8.494318359375,2.732247035574913,-1.5855021817713975,-2.7999697417140004
1733768860247278300,8.5042783203125,2.339254264438152,0.75292147706151,-3.499595681917667
1733768860257239300,8.5142392578125,0.505187363947928,3.900993877828121,-4.551615840888023
1733768860267199200,8.52419921875,-2.2311747057303783,5.72672520391047,-4.981287360602617
1733768860277160400,8.534160400390626,-3.825417827840149,5.503657037758827,-4.228516982449591
1733768860287120400,8.544120361328124,-2.7143396229624748,3.564352523988485,-2.8580066278800365
1733768860297080300,8.554080322265625,0.5269342085927724,2.392638648623228,-2.7463787290409205
1733768860307041300,8.564041259765625,2.8367075270026922,2.616840202718973,-3.654101183974743
1733768860317001200,8.574001220703124,3.2491222069680687,1.8120611126482487,-3.5584970759585497
1733768860326962200,8.583962158203125,3.727816408526897,0.5008756382286549,-3.1647946952477097
1733768860336922400,8.59392236328125,4.444112036241591,-1.014703112488985,-3.06993965203315
1733768860346882300,8.60388232421875,4.824287119120359,-2.2472575332641602,-2.9736089833080768
1733768860356843300,8.61384326171875,4.7646346144512295,-2.835676430389285,-2.6664105815738437
1733768860366803500,8.623803466796875,4.76814788326919,-2.7075293584257363,-2.3037363763332364
1733768860376764400,8.633764404296874,5.0174967381030315,-1.861636167678237,-1.9198817281588911
1733768860386724400,8.643724365234375,5.142783744460344,-0.6636386810213327,-1.3113215218894183
1733768860396684300,8.653684326171875,4.578649393764138,0.4897311438798904,-0.5190408249944448
1733768860406645200,8.663645263671874,3.7863042533308264,1.6984359025120734,0.2926895455189049
1733768860416605200,8.673605224609375,3.285588189578056,2.8345477186203003,1.1808414769336582
1733768860426566400,8.68356640625,3.0959166815936565,3.0190684197127817,1.6970241360180078
1733768860436526300,8.6935263671875,2.9404645463362336,2.438454058858752,2.2374352274298666
1733768860446486300,8.703486328125,2.682444893790781,1.6340163295716046,2.7420833699345586
1733768860456447500,8.713447509765626,2.1950037605442105,0.732193746331334,3.0940310139775273
1733768860466407400,8.723407470703124,1.7260614299319683,0.06960603566765784,3.4910981949463484
1733768860476368100,8.7333681640625,1.6785313247330487,-0.45351825924813743,3.9872026732504366
1733768860486328300,8.743328369140626,0.911431100193411,-0.9098492378294467,4.280515465234219
1733768860496288300,8.753288330078124,-0.7042611257236451,-0.6097212128728627,4.283678605440259
1733768860506249200,8.763249267578125,-2.028068838894367,-0.236290635818243,3.730918466195464
1733768860516209400,8.77320947265625,-2.7974925379455087,0.27023440647423264,2.8344606248587367
1733768860526170400,8.78317041015625,-3.02227978297472,0.6304980434417724,2.133620340429246
1733768860536130300,8.79313037109375,-3.1101334229946134,0.4917874918878078,1.5870269071206449
1733768860546090200,8.80309033203125,-3.2657273048102855,0.16514730758070945,1.0139921146754174
1733768860556051200,8.81305126953125,-3.2056419616818426,-0.02308569203317165,0.5215186132848263
1733768860566011100,8.82301123046875,-2.965553687146306,-0.11264029075205326,0.33122911953255535
1733768860575972400,8.832972412109376,-2.6737182742387056,-0.2875549591094255,0.2644198749765754
1733768860585932300,8.842932373046875,-2.3808231231451034,-0.3421937272697687,0.10011427891701459
1733768860595892200,8.852892333984375,-1.9314871180176734,-0.32123803300261494,-0.018117036775127052
1733768860605853400,8.862853515625,-1.443169348067045,-0.21232406929731368,-0.13788593729808926
1733768860615813400,8.8728134765625,-0.9628045829474925,-0.18881401437222955,-0.272125407852605
1733768860625774300,8.8827744140625,-0.44855102876219893,-0.25564298654198647,-0.23879567744173108
1733768860635734300,8.892734375,0.08013561298847198,-0.4179395808666944,-0.33187545461207624
1733768860645694200,8.902694091796874,0.5510743781149388,-0.5066039527475834,-0.48023982356563205
1733768860655655400,8.912655517578125,0.8606552910715342,-0.46221945209801196,-0.6099951344434171
1733768860665615400,8.922615478515626,0.9021423167139291,-0.3894558291822672,-0.7426432441532611
1733768860675576300,8.932576416015625,0.6858072582095861,-0.3583434825599193,-0.7795439649187028
1733768860685536500,8.94253662109375,0.3110497799327597,-0.33357202939689157,-0.8044182208690792
1733768860695496400,8.952496337890626,-0.14473582145916297,-0.30841479178667064,-0.784920031933859
1733768860705457200,8.96245703125,-0.5747714800447226,-0.3171598237782717,-0.47438320649191734
1733768860715417300,8.972417236328125,-0.967552069735527,-0.404290410220623,-0.21705694303810597
1733768860725378300,8.98237841796875,-1.282249302792549,-0.5413000030755997,0.025088702418655157
1733768860735338200,8.992338134765625,-1.5146762489199637,-0.5765425813704729,0.24593846186846494
1733768860745298400,9.00229833984375,-1.6377216138303279,-0.46490182304978367,0.4039737454868853
1733768860755259400,9.01225927734375,-1.6851438747406005,-0.39796179172098634,0.6393913247976452
1733768860765219300,9.02221923828125,-1.707121897792816,-0.37001813826262947,0.83942289875485
1733768860775180300,9.03218017578125,-1.7774118240714072,-0.3456225326746702,1.0390703687652945
1733768860785140200,9.04214013671875,-1.9024317039251326,-0.39101182645261284,1.207527823807299
1733768860795100200,9.05210009765625,-2.037084504520893,-0.39239422072172164,1.3114213290020822
1733768860805061400,9.062061279296875,-2.0834733307302,-0.4004115229606628,1.3735127512559293
1733768860815021300,9.072021240234376,-1.9672832385420798,-0.32992695089280605,1.5651533673562108
1733768860824982500,9.081982421875,-1.6461504194796084,-0.42195699981451035,1.650970094721019
1733768860834942500,9.0919423828125,-1.1162661289095879,-0.5225339278072119,1.6911159348875284
1733768860844902400,9.10190234375,-0.42743634454105045,-0.48464521891772744,1.686532406489551
1733768860854863400,9.11186328125,0.30325225792434063,-0.23069793037772177,1.6399290607467292
1733768860864823300,9.1218232421875,0.9898293679952621,0.2967424741715193,1.5427484971940517
1733768860874784300,9.1317841796875,1.5860615692198277,0.604248918941617,1.4845906149968504
1733768860884744400,9.141744384765625,1.9267361240983008,0.7330255209803581,1.533954365363717
1733768860894704400,9.151704345703125,1.8969839599132536,0.8264858949661255,1.7432029727384446
1733768860904665300,9.161665283203124,1.5651310093939304,0.8024620453000069,2.0725521237432956
1733768860914625300,9.171625244140625,0.9862895034313202,0.8810422455400228,2.5022268583282825
1733768860924586200,9.181586181640625,0.19948438840322194,1.2764859169602394,2.909442800606787
1733768860934546200,9.191546142578124,-0.5908545998394489,1.6738135024309158,3.381496541237831
1733768860944506400,9.20150634765625,-1.2135469379663466,2.0464199036210773,3.8385838911443946
1733768860954467300,9.21146728515625,-1.6100993012808262,2.32624046908617,4.2186096286803485
1733768860964427300,9.22142724609375,-2.0307810204625127,2.598312027859688,4.594380923642218
1733768860974388500,9.231388427734375,-2.344609800121933,3.003746931940317,4.731375611189008
1733768860984348400,9.241348388671875,-3.0023358960986135,3.151460874161124,4.266747344383597
1733768860994308400,9.251308349609374,-4.317873720508814,3.0910990521788597,2.7027979459896683
1733768861004269300,9.261269287109375,-9.889505977863072,3.3340099829196927,-0.9898926424898207
1733768861014229200,9.271229248046875,-26.39741068930626,4.143648787981271,-6.685911011838913
1733768861024190700,9.281190673828124,-10.997795721065998,2.3335329641819,-5.196543391698598
1733768861034150700,9.291150634765625,-4.050931925839185,2.5167028351873157,-5.032228443288803
1733768861044110600,9.301110595703125,-1.9520622885346413,2.387372106397152,-4.880263273364305
1733768861054071600,9.311071533203124,0.5732499695658684,1.2980132736355066,-4.2863565924778575
1733768861064031500,9.321031494140625,1.2868424758017063,0.8656295723527669,-4.173496229234337
1733768861073992400,9.330992431640626,0.9002712621450424,0.4187058890640735,-3.8769770424246786
1733768861083952600,9.34095263671875,1.0233271484494209,0.3335235140800476,-3.7834710757315158
1733768861093912600,9.35091259765625,1.8304314665973185,0.05319149196147918,-3.609772797426581
1733768861103873500,9.36087353515625,2.380096562436223,-0.23194880722165107,-3.2502664085671302
1733768861113833700,9.370833740234374,2.5652643292605877,-0.07443418647646903,-2.8290321700692176
1733768861123794400,9.38079443359375,3.0962580423772335,0.6134773505359887,-2.2618413544118403
1733768861133754400,9.39075439453125,3.456799911764264,1.1219219627141952,-1.4338102758303284
1733768861143714600,9.400714599609374,3.287414235961437,1.4047417099952697,-0.4194603606931865
1733768861153675500,9.410675537109375,2.782697119873762,1.1283885283797979,0.47035745810717344
1733768861163635500,9.420635498046876,2.4547499446213243,0.41570787629187106,1.048963109487295
1733768861173596700,9.4305966796875,2.573333653947711,-0.11187281351089477,1.53268975225538
1733768861183556600,9.440556640625,2.665973359200358,-0.5144610959887504,1.8364346525348723
1733768861193516500,9.4505166015625,2.608911747807264,-0.7412766319751739,2.0315389992229638
1733768861203477500,9.4604775390625,2.6022142959952355,-0.9472060317993164,2.0113490286312996
1733768861213437400,9.4704375,2.3995704937130213,-1.161007187911868,1.9040047984607518
1733768861223398700,9.480398681640626,2.0235971003077924,-1.0059101497024296,1.6637892442837356
1733768861233358600,9.490358642578125,1.701703526005894,-0.7190934417396784,1.3964336081162094
1733768861243318500,9.500318603515625,1.424524853351712,-0.576497573184967,0.7412979670241475
1733768861253279700,9.51027978515625,1.1417946840502322,-0.5349380668282508,0.037664033288136126
1733768861263239700,9.52023974609375,0.9401853393822908,-0.5262514870256185,-0.4486012611120939
1733768861273200400,9.530200439453125,0.714130412504822,-0.46976855230331416,-0.8364016512375324
1733768861283160600,9.54016064453125,-0.16262334206104279,-0.3360784592598676,-1.250871437101811
1733768861293120500,9.55012060546875,-0.6694231096416712,-0.24352584776878355,-1.4370079028278588
1733768861303081500,9.56008154296875,-0.13816446197852492,-0.5757587375164032,-1.3294123282447456
1733768861313041700,9.570041748046876,0.9481402439095079,-0.9802548994421958,-1.1680074951279908
1733768861323002600,9.580002685546875,2.0734321214482185,-1.2910247299224138,-1.0301389473561198
1733768861332962600,9.589962646484375,2.960169656020403,-1.5115414580255746,-0.9706281161800027
1733768861342922800,9.5999228515625,3.478340127921104,-1.5657961953043937,-0.9873020414747297
1733768861352883500,9.609883544921875,3.5589901201725005,-1.5079764590203761,-0.9992987687386572
1733768861362843400,9.619843505859375,3.2898616291135547,-1.5070096598148346,-0.7820651539593935
1733768861372804600,9.6298046875,2.7527283903285857,-1.4649965644717216,-0.4867222809201106
1733768861382764500,9.6397646484375,2.054925573898852,-1.2871926044136286,-0.27391685784664005
1733768861392724500,9.649724365234375,1.4811287841051817,-1.147155772691965,-0.06654606357514858
1733768861402685700,9.659685791015624,1.180739185602963,-0.9970511359423399,0.21135129700871183
1733768861412645600,9.669645751953125,1.030740347315371,-0.8191577440351248,0.5676125482007861
1733768861422606600,9.679606689453125,0.9208490630105137,-0.6497235529154539,0.9820501122958958
1733768861432566500,9.68956640625,0.5445005526825786,-0.6154565416544675,1.4422021104700862
1733768861442526500,9.6995263671875,-0.10551058500260115,-0.7688929531753063,1.9127501227132975
1733768861452487700,9.70948779296875,-0.6006304361835122,-1.0450438902169465,2.0873544099472463
1733768861462447600,9.719447509765626,-0.7156596678987145,-1.4160066158533096,1.8421825485371053
1733768861472408600,9.72940869140625,-0.9369625779435038,-1.4700877501308918,1.3792507103860376
1733768861482368800,9.73936865234375,-2.0197581066668033,-0.9614210196346044,0.9137861388869583
1733768861492328700,9.74932861328125,-2.8747932197690007,-0.48627369690239425,0.7537614350169897
1733768861502289400,9.759289306640625,-3.3648893975690006,0.006473579928278923,0.5568677206940948
1733768861512249600,9.76924951171875,-3.440493212346732,0.16973931154608726,0.44981750503405926
1733768861522210600,9.77921044921875,-2.7619647129684686,0.20344050561785695,0.3184615540266037
1733768861532170500,9.78917041015625,-2.1754268072843552,-0.11270225007236004,0.2902672868080437
1733768861542130700,9.799130615234375,-1.8482988394603133,-0.5276975941807032,0.21010686817187815
1733768861552091600,9.809091552734374,-1.5684437872037291,-1.027215388059616,-0.08924724980276078
1733768861562051600,9.819051513671875,-0.9908078576385975,-1.5678104577362537,-0.6520832677841186
1733768861572012500,9.829012451171875,-0.10485650500804185,-2.10687875623703,-1.4079513196915387
1733768861581972500,9.838972412109374,0.7740145339727401,-2.5868460464715954,-2.1146134421423075
1733768861591932400,9.848932373046875,0.6321577933475375,-2.5774206310003995,-2.7390900333374737
1733768861601893600,9.8588935546875,-0.9155226072907447,-1.28041974927783,-3.409271852391958
1733768861611853600,9.868853515625,-3.0381904688119885,1.8329846582114695,-4.651672544398903
1733768861621814500,9.878814453125,-4.1664138697579505,5.0130754145294425,-6.221085176634788
1733768861631774700,9.888774658203126,-4.836817807130515,6.877141439703107,-7.224466100120544
1733768861641734700,9.898734619140624,-2.397851122574508,6.828698603573441,-6.557022766119242
1733768861651695600,9.908695556640625,3.0021286830887197,5.122091669565439,-4.631764021097124
1733768861661655600,9.918655517578125,5.15661119428277,3.2542356044590472,-3.7642327067762613
1733768861671616500,9.928616455078124,5.053072493875026,0.18313187708258627,-3.259619927845895
1733768861681576400,9.938576416015625,5.996689561271667,-2.474306878006458,-3.308756883719563
1733768861691536600,9.94853662109375,6.722520786833763,-3.8375545480966564,-4.008539475789666
1733768861701497600,9.95849755859375,6.909229937881231,-4.048409713885188,-4.523335502821207
1733768861711457500,9.96845751953125,6.91268095511794,-3.1414655498474833,-4.375968474341929
1733768861721418500,9.97841845703125,6.718005939757823,-1.8212001123934982,-3.7796626233592625
1733768861731378400,9.98837841796875,6.347707815510034,-0.7577087113380432,-3.1702588058725
1733768861741338400,9.99833837890625,5.977116261273622,0.13028525303602217,-2.520934189146757
1733768861751299600,10.008299560546876,5.5092859835565084,1.1832570136427878,-1.7431304920241235
1733768861761259500,10.018259521484374,4.939223996376991,2.233958491230011,-0.7833719987742602
1733768861771220700,10.028220703125,4.335074446156621,2.783209745571017,0.17803806107491255
1733768861781180700,10.0381806640625,3.997712961348891,3.1655653873592615,1.4741834950119257
1733768861791140600,10.048140625,3.789300804798305,3.3683062202751635,2.8841844407096504
1733768861801101600,10.0581015625,3.3146383429735895,3.1243951725810764,3.9685847742810845
1733768861811061500,10.0680615234375,3.300599296227097,2.6830717935174704,4.697693121817708
1733768861821022500,10.0780224609375,4.249403995394706,2.192394893220067,5.507805389609932
1733768861830982700,10.087982666015625,2.282726321530342,0.6431698934882879,7.13678138692677
1733768861840942600,10.097942626953126,-0.5919838961303234,-0.43296062438786026,7.685515923917293
1733768861850903600,10.107903564453125,-1.9403128140300512,-0.46415831120610235,6.667014588189125
1733768861860863700,10.11786376953125,-2.5893653358161446,-0.32088848891258237,5.348239097031951
1733768861870824400,10.127824462890626,-2.85265679128468,-0.17269231613278388,4.2037227329328655
1733768861880784400,10.137784423828125,-2.920259670436382,0.023576690420508382,3.19140680784136
1733768861890744600,10.14774462890625,-3.8174423189163207,0.470212788939476,1.7587533008307217
1733768861900705500,10.15770556640625,-5.551083390322328,0.7781944500058889,0.8662060570664704
1733768861910665500,10.16766552734375,-5.949917288702726,0.5844803886324167,1.1799082877367735
1733768861920626700,10.177626708984375,-5.745890507629514,0.35148470270633697,1.2017229369208215
1733768861930586600,10.187586669921876,-5.613254892075061,0.17437632369697093,0.9684293640267103
1733768861940546600,10.197546630859375,-5.275977578419447,0.059280456486344335,0.8511597329735755
1733768861950507500,10.207507568359375,-4.6395162426590915,-0.6311164676010609,1.1059330970741807
1733768861960467500,10.217467529296876,-3.655671209770441,-0.9999468573838471,1.274766838082671
1733768861970428700,10.2274287109375,-2.56233119841814,-0.8902350212991237,1.3523732248544693
1733768861980388600,10.237388671875,-1.5927929233014582,-0.8423720308840275,1.5295517464905977
1733768861990348500,10.2473486328125,-0.6836018571197986,-0.7623568294048308,1.448146405827254
1733768862000309800,10.257309814453125,0.17783493971824646,-0.4286404231011867,0.9919979442059993
1733768862010269700,10.267269775390625,0.8362772211402654,-0.03721007897555828,0.6716453157357871
1733768862020230700,10.277230712890624,1.3291495856553315,-0.05799158571958542,0.5677361015152186
1733768862030190600,10.287190673828125,1.6338526634424924,-0.2900017677396536,0.4191566285062581
1733768862040150500,10.297150634765625,2.137307796770334,-0.3888917655587196,0.020437150285765527
1733768862050111500,10.307111572265624,2.397366261667013,-0.6174339792072773,-0.07067468781247735
1733768862060071400,10.317071533203125,2.693464008194208,-0.8027233265846967,-0.27955051635205747
1733768862070032600,10.32703271484375,2.3031308116555214,-0.6777046157747507,-0.8098490137461573
1733768862079992600,10.33699267578125,1.472704070109129,-0.5547188720971346,-0.926347514296323
1733768862089952500,10.346952392578125,0.7452689164817333,-0.6611106238484382,-0.7829638563647866
1733768862099913500,10.35691357421875,-0.11892802925202994,-0.5919722056925296,-0.809302047387883
1733768862109873400,10.366873291015626,-1.0076993712067603,-0.23351883301734924,-0.8125470937237143
1733768862119834600,10.376834716796875,-1.750889727848768,0.10126023408174514,-0.5748543360225856
1733768862129794600,10.386794677734375,-2.452684244263172,0.23844635254740715,-0.2877195750866085
1733768862139754500,10.39675439453125,-3.0939936045765877,0.19065818093419074,0.14209712525233625
1733768862149715700,10.4067158203125,-3.4300843387961386,0.22726678688526153,0.6427193732418119
1733768862159675600,10.416675537109375,-3.643732934695482,0.43387657018899917,1.3433017373874783
1733768862169636600,10.42663671875,-3.6044495565772054,0.7445902865678071,1.9973082283191381
1733768862179596500,10.436596435546875,-3.4532127009272573,0.9152817842721939,2.5953116769999265
1733768862189556500,10.446556396484375,-3.139891724659502,0.7280132457762957,2.9790567273199557
1733768862199517400,10.456517333984374,-2.8408956263422964,0.718700643029809,3.178542942354083
1733768862209477600,10.4664775390625,-2.804209863501787,0.867585967117548,3.3892619145423173
1733768862219438600,10.4764384765625,-2.986760725826025,1.3935966311246155,3.5175510253250595
1733768862229398500,10.4863984375,-3.2820833963274954,2.4246003055512904,3.547814061641693
1733768862239358700,10.496358642578125,-3.8041093746125694,3.714168406924605,3.466260690809786
1733768862249319700,10.506319580078125,-5.0501919700026505,4.838997196996211,3.0630045920729634
1733768862259279600,10.516279541015624,-14.139686218327283,5.589307030254602,1.0640646708987653
1733768862269240600,10.526240478515625,-25.73325821354389,6.325725700804591,-1.6878589789181946
1733768862279200500,10.536200439453125,-11.387888094586133,5.663157863885164,-1.5186375537663697
1733768862289160400,10.546160400390624,-5.408381138783693,4.515259748393297,-1.2411556603819132
1733768862299121700,10.55612158203125,-2.530874568402767,4.126849628871679,-1.4199948087066412
1733768862309081600,10.56608154296875,-0.7664601730704307,3.0765514713883397,-1.6825012512773274
1733768862319042600,10.57604248046875,0.14770985056757927,1.4754828871726988,-2.078823166836798
1733768862329002500,10.58600244140625,0.8753694606006145,1.0136544802188874,-2.387942892022431
1733768862338962400,10.59596240234375,2.105270736518502,1.2009721185535192,-2.708978972712159
1733768862348923400,10.60592333984375,3.0859979296475646,1.4723960270732641,-2.9076623469308016
1733768862358883600,10.615883544921875,3.873995980787277,2.0410212594479322,-2.865094832575321
1733768862368844500,10.625844482421876,4.5219127765417095,2.7737258779108522,-2.6419366500526666
1733768862378804500,10.635804443359374,5.24598225312829,2.7635820850372315,-2.107257964812964
1733768862388764700,10.6457646484375,5.570144649145007,2.3587071529269217,-1.4613783739745616
1733768862398725600,10.6557255859375,5.167488562127947,1.838798897448182,-0.7740369650002569
1733768862408685600,10.665685546875,4.3837627814799545,1.1757885774582624,-0.0430848162278533
1733768862418645500,10.6756455078125,3.4419887116014953,0.44597968043684955,0.7762087560813874
1733768862428606500,10.6856064453125,2.69884979288578,-0.21300153016746043,1.4509895202986896
1733768862438566400,10.69556640625,2.3285808947324753,-0.7323468910664319,1.7664625600337982
1733768862448527600,10.705527587890625,2.2809156188465654,-0.9332979179561137,2.106279182908684
1733768862458487600,10.715487548828126,2.599870363217592,-1.1891542549878358,2.291886510194093
1733768862468447500,10.725447509765624,3.062935033968091,-1.339040865072608,2.311016596469283
1733768862478408400,10.735408447265625,3.368829367366433,-1.2964946857661008,2.568676183530688
1733768862488368400,10.745368408203126,3.392747710831463,-1.2520038021326065,2.6994047964200374
1733768862498329600,10.75532958984375,3.1917835321992634,-1.1460638858020304,2.537663205629587
1733768862508289500,10.76528955078125,2.772141239067912,-1.117908635419607,2.0429699092976747
1733768862518249500,10.77524951171875,2.388385667353868,-1.1007406429976225,1.3344140820547938
1733768862528210700,10.785210693359375,2.2540298038780686,-1.0823287879943848,0.4269089231334626
1733768862538170600,10.795170654296875,2.3049805311754343,-1.0717243918716908,-0.44066849535144864
1733768862548131600,10.805131591796876,2.301202473941445,-1.2030196987330912,-1.338960785573721
1733768862558091500,10.815091552734375,2.033322229377925,-1.285994334539771,-2.2299264592349526
1733768862568051500,10.825051513671875,1.5108610745459794,-1.2139058344066143,-2.951991318000853
1733768862578012400,10.835012451171876,1.538326004576683,-1.372623985722661,-3.247219880478084
1733768862587972600,10.84497265625,2.419792905269563,-1.9118185409516095,-3.0377725356608627
1733768862597933600,10.85493359375,3.3342548975914714,-2.553650463834405,-2.363381136087328
1733768862607893500,10.8648935546875,3.7877763717100024,-2.6235470068812368,-1.8307155442357061
1733768862617853700,10.874853759765625,3.893608151490986,-2.092549202111363,-1.7649951178297398
1733768862627814700,10.884814697265625,3.3534488428831097,-1.974957426431775,-1.3166368716932833
1733768862637774600,10.894774658203126,2.3954127895116804,-1.874944562062621,-0.6863279210828245
1733768862647735600,10.904735595703125,1.5348442999407648,-1.7435054628163575,-0.07113974804095924
1733768862657695500,10.914695556640625,0.9300839243456721,-1.494375219169259,0.4415990541998297
1733768862667655400,10.924655517578126,0.26507775436341763,-1.1993623452693223,0.979693173906207
1733768862677616600,10.93461669921875,-0.9788961783096194,-0.6029319911241531,1.6362101863540708
1733768862687576600,10.94457666015625,-2.174116309207678,-0.0568026681959629,2.033478442852944
1733768862697537500,10.95453759765625,-1.9392305717512963,-0.04941723411977291,2.2446625483348965
1733768862707497500,10.96449755859375,-1.7875825049519538,-0.09161737646758555,2.352542785078287
1733768862717457400,10.97445751953125,-3.0570471449732777,0.2323825224637985,2.757621715328097
1733768862727418600,10.984418701171874,-3.3705589676380154,0.4771534018576145,3.0493358399435877
1733768862737378600,10.994378662109375,-2.4481796263203024,0.29681846201717854,2.7312162312224504
1733768862747339500,11.004339599609375,-1.5852300868317484,0.009202712631225586,1.7441913992539047
1733768862757299700,11.0142998046875,-0.6445514109745621,-0.38159284072220323,0.6151237295035272
1733768862767259600,11.024259765625,0.03504091824293137,-0.7301245388418436,-0.48261137500256296
1733768862777220600,11.034220703125,0.483790063393116,-1.1976724924862383,-1.4820648959115146
1733768862787180500,11.0441806640625,0.6131605396717786,-1.5320535001784563,-2.3776173128411173
1733768862797141500,11.0541416015625,-1.284780282574892,-1.0233037675738335,-3.37456060449481
1733768862807101400,11.064101318359375,-5.733460065123438,0.6790472625553607,-4.076388438656926
1733768862817061600,11.0740615234375,-5.211987629067898,2.5822470282435415,-4.343801065708696
1733768862827022600,11.084022705078125,-0.2703402049362659,3.45813086810708,-4.361110804688931
1733768862836982500,11.093982421875,2.856173859494924,3.6914778516888616,-4.189714958107471
1733768862846943700,11.10394384765625,4.290175273983181,3.7190912502795457,-5.0346027712047094
1733768862856903700,11.113903564453125,5.819917282348871,3.4960049639493227,-5.705843743923306
1733768862866863600,11.123863525390625,6.501973663592338,1.8149737852245569,-6.094264969360828
1733768862876824600,11.133824462890624,5.7411026888310905,0.23807810375690458,-6.507039714810252
1733768862886784500,11.143784423828125,5.24191631886363,-0.6054758303880691,-7.0534081071913235
1733768862896745500,11.153745361328125,5.67929768230319,-1.0763310088843108,-7.449356805524229
1733768862906705700,11.16370556640625,6.058717270639538,-0.6020932022124529,-6.975814579901098
1733768862916665600,11.17366552734375,5.55924857659936,0.04860767130255699,-5.6144759583026165
1733768862926626600,11.18362646484375,4.483399213752151,0.04430149854123592,-4.255536799061298
1733768862936586500,11.19358642578125,3.8997280956760045,-0.30259003115594385,-3.106005237148702
1733768862946547500,11.20354736328125,3.5607992154210804,-0.1064987192571163,-1.9739213613823055
1733768862956507400,11.21350732421875,3.2042326794058082,0.48155952786207196,-0.799645526574552
1733768862966467600,11.223467529296874,3.1707997808814046,1.2802280260980128,0.7514582726411521
1733768862976428500,11.233428466796875,3.1170667293891308,2.1488608719199895,2.067347833098471
1733768862986388500,11.243388427734375,3.2706811278253793,3.126964146286249,3.6017195470914243
1733768862996349700,11.253349609375,3.4004026094987987,3.5906980946004388,5.049387667882442
1733768863006309600,11.2633095703125,3.558170328222215,3.7844764533817767,6.269518660414218
1733768863016269600,11.27326953125,4.30743532860279,3.161860687622428,7.062826508399843
1733768863026230800,11.283230712890624,2.91804491699636,1.4525491708308458,8.056925808799265
1733768863036190700,11.293190673828125,0.23137758320495486,0.2281225269317627,8.399263328453898
1733768863046152000,11.30315185546875,-1.3321394151210784,-0.8550929807692765,7.281517774641514
1733768863056111900,11.31311181640625,-2.4421846236892044,-1.134537114137411,5.581255241224169
1733768863066071800,11.32307177734375,-3.488372277113795,-1.3002350413382053,3.864482302510738
1733768863076032800,11.33303271484375,-3.5001007088303564,-1.5818991888433693,3.503231408071518
1733768863085992700,11.34299267578125,-3.5858161677777765,-1.278333006131649,2.8173426090583202
1733768863095952600,11.35295263671875,-4.133610209047794,-0.13765548954308032,1.6594715272150933
1733768863105913900,11.362913818359376,-4.495464330077171,0.6525438710331917,1.0189205840535462
1733768863115873800,11.372873779296874,-4.303117465403676,0.40811026076972484,1.1297362897269427
1733768863125834800,11.382834716796875,-3.5766146241903303,0.0408124873816967,1.2902299262829124
1733768863135795000,11.392794921875,-2.6213351760506627,-0.12911737830042838,1.241345922257006
1733768863145755000,11.4027548828125,-1.7687731750637292,-0.4863368252664804,1.0747821720071136
1733768863155715600,11.412715576171875,-0.9806173030138016,-0.5811684876054525,0.9186975840650499
1733768863165675800,11.42267578125,-0.2818126160651445,-0.44354806937575336,0.5910606438055634
1733768863175636700,11.43263671875,0.4609410661926493,-0.13437223008871077,0.36382469044998283
1733768863185596700,11.4425966796875,0.9037889148771763,-0.0563321280747652,0.23384908788502215
1733768863195556900,11.452556884765626,1.2502800470799207,-0.17806582586467265,0.03486746137216687
1733768863205517800,11.462517822265625,1.3994319131493567,-0.4176853138446808,-0.06031272214353084
1733768863215477800,11.472477783203125,1.6821821023255585,-0.4777928688049316,-0.019515724591910838
1733768863225438700,11.482438720703126,1.8778660024672746,-0.5294032290548086,-0.2683264539610594
1733768863235398700,11.492398681640625,1.750229802635312,-0.30891981869935986,-0.642457069043815
1733768863245358600,11.502358642578125,1.5387310782462358,-0.07612929995656013,-0.9052501465361564
1733768863255319800,11.51231982421875,1.2944780852466822,-0.2584370011746883,-0.9882246362123638
1733768863265279700,11.52227978515625,0.8458879300504922,-0.3668073595225811,-1.0384022602453826
1733768863275241000,11.532240966796875,0.3680336864471435,-0.3469306926637888,-1.1945076717797667
1733768863285201000,11.542200927734376,-0.06792261262536048,-0.21560732875168323,-1.3703420122653245
1733768863295160800,11.552160888671875,-0.463580803579092,-0.05432020373046398,-1.5026552639976143
1733768863305121800,11.562121826171875,-0.8510533499896525,0.022070377510786054,-1.4921198414579033
1733768863315081700,11.572081787109376,-1.2052093177318572,0.0926484730809927,-1.2676581751212477
1733768863325042700,11.582042724609375,-1.612979971283674,0.1826473084360361,-0.84956844519414
1733768863335003000,11.5920029296875,-2.059145529681444,0.20106325509250164,-0.22917905024737117
1733768863344962800,11.601962890625,-2.4803882437467575,0.0796118813753128,0.4526140038847923
1733768863354923800,11.611923828125,-2.7996146446660157,0.09516542433798313,1.1395188480727374
1733768863364884000,11.621884033203125,-3.1067116318523884,0.37732992258071896,1.7294810291171072
1733768863374844700,11.6318447265625,-3.643182607336342,0.6165449214130639,2.3071515916042027
1733768863384804600,11.6418046875,-4.311752607280016,0.8251397410541772,2.7193063054591415
1733768863394764800,11.651764892578125,-5.119205300474166,1.122394256401062,2.9465315912902352
1733768863404725800,11.661725830078124,-6.787433111727237,1.7578829477369784,3.2837042755275965
1733768863414685700,11.671685791015625,-14.904305147445202,3.73547656789124,4.284605657157302
1733768863424647000,11.68164697265625,-12.89431557059884,6.281475055667758,3.110322808086872
1733768863434606800,11.69160693359375,-8.71727889227867,6.76193451333344,2.132570100723952
1733768863444566800,11.70156689453125,-10.160692570495605,5.074690451443195,2.545044840313494
1733768863454527700,11.71152783203125,-9.771503867816925,3.651527534094453,2.6025305223375557
1733768863464487700,11.72148779296875,-8.224406527763605,2.7745494692534205,2.7550822599783538
1733768863474447600,11.731447509765625,-5.979343289673328,2.7731846106410023,2.9535142897844313
1733768863484408800,11.741408935546875,-3.281315334564447,3.8593963775485753,2.960503418019414
1733768863494368800,11.75136865234375,-1.2413514752149581,4.064667605724931,2.562572021436691
1733768863504330000,11.761330078125,-0.012924345236551015,3.0779215906977653,1.8598174278184771
1733768863514290000,11.7712900390625,1.0535516063213348,1.7758873909831046,1.3048043950803576
1733768863524249900,11.781249755859376,2.3667238706439733,0.5514174924641847,0.8914426435232162
1733768863534210800,11.7912109375,3.9351375549703835,0.04961187990903854,0.6920046515449881
1733768863544170800,11.801170654296875,5.279729624429345,0.4906137719333172,0.4964775494001806
1733768863554131700,11.811131591796874,6.030932607135176,1.5202975959330796,0.17979878713712094
1733768863564092000,11.821091796875,6.663394059604406,2.9443267747223376,-0.021467881572991607
1733768863574051800,11.8310517578125,6.821046042993665,4.310964671772719,0.02916121255457401
1733768863584012800,11.8410126953125,6.426926898175478,4.658174181377888,0.19723522123694417
1733768863593973000,11.850972900390625,5.615967658165097,3.8313960254669186,0.379008377186954
1733768863603933700,11.86093359375,4.7665848717361685,2.0041776756972074,0.8984642857883125
1733768863613893600,11.8708935546875,4.093073031476139,0.3795692259401083,1.6129080750912428
1733768863623853600,11.880853515625,3.7569957412600514,-0.4236427609443664,2.085755011926591
1733768863633814800,11.890814697265625,3.634152620923519,-0.5464554861426353,2.1749127202823755
1733768863643774700,11.900774658203124,3.467003618131578,-0.36132746680676936,2.0975256753496825
1733768863653736000,11.91073583984375,3.054760495340824,-0.2855383585900068,2.0325231879547236
1733768863663696000,11.92069580078125,2.363576512528956,-0.5714835444152355,2.0328663023039697
1733768863673655800,11.93065576171875,1.6022703612208364,-1.0241162530004977,1.8428876280665396
1733768863683616800,11.94061669921875,-0.7458984465569257,-0.6673638390243053,0.8696759251341223
1733768863693576700,11.95057666015625,-1.9455559753805398,-0.5738987888634205,0.2779179467141628
1733768863703537700,11.96053759765625,-1.014309436996281,-0.4053419651001692,-0.2558887597302906
1733768863713497900,11.970497802734375,0.7382695591136813,0.16657295646965503,-1.2400447765305638
1733768863723457800,11.980457763671875,2.4718238290190695,0.5228565838903189,-2.162564403101802
1733768863733418800,11.990418701171874,3.6563545158594843,0.36330958053469653,-2.8589401093378664
1733768863743379000,12.00037890625,4.348795512995124,-0.0036678748577833173,-3.39913185891062
1733768863753339600,12.010339599609376,4.471340234906971,-0.44666357104778287,-3.4663907469302413
1733768863763299600,12.020299560546874,4.279898502379655,-1.0903700556308031,-2.790059757596254
1733768863773259800,12.030259765625,3.6640719583690164,-1.423855575788021,-1.7490689421623944
1733768863783220700,12.040220703125,2.6323338321879506,-1.3735796790122985,-0.6605804624944925
1733768863793180700,12.0501806640625,2.0609382583171127,-1.1861702707409858,0.2105515066668391
1733768863803142000,12.060141845703125,2.0838421640425917,-1.0796417408674954,0.7266662150815129
1733768863813101800,12.070101806640626,2.2491899626314638,-1.020038628298044,1.127207794162631
1733768863823061800,12.080061767578124,2.333064469887316,-0.7741121491283178,1.474535084928572
1733768863833022700,12.090022705078125,2.3147493532568215,-0.34314649794995783,1.6341691820457578
1733768863842982700,12.099982666015626,2.2836241471529006,-0.15359715504050253,1.3820140376195311
1733768863852944000,12.10994384765625,2.1598025371730327,-0.015163666862249374,1.0256161361694336
1733768863862903800,12.11990380859375,1.7638690364092586,-0.27226971169412134,0.5117597280755639
1733768863872863700,12.12986376953125,2.4614088179886338,-0.40569501632153987,-0.1454255390226841
1733768863882825000,12.139824951171875,3.384752328163385,-1.1886731934726238,-0.3741758424639702
1733768863892785000,12.149784912109375,4.259559478706121,-1.7792594977647065,-0.6523176610618829
1733768863902744800,12.159744873046876,5.181558004012704,-1.9117676875472067,-0.8856514929011463
1733768863912705800,12.169705810546875,4.996578453236818,-1.8867659327596424,-0.8067252557024359
1733768863922665700,12.179665771484375,3.990659535706043,-1.5886790582418442,-0.4181140606507659
1733768863932626700,12.189626708984376,3.3984891770929098,-0.9730290398418903,-0.20580255857408045
1733768863942587000,12.1995869140625,2.5865941175371407,-1.2915192354410887,0.6284533858716488
1733768863952546800,12.209546875,1.698477403566241,-1.1999819384723902,1.3589952733427286
1733768863962507800,12.2195078125,1.730738920223713,-0.339591435816884,1.6452628229901194
1733768863972468000,12.229468017578125,1.3158937982410193,-1.172208380883932,1.6004741254538297
1733768863982428700,12.2394287109375,-0.05738134486675262,-1.1309843900918959,0.40277850782033053
1733768863992388600,12.249388671875,-0.02956862431168556,-0.3330646643966436,-0.7491355287820101
1733768864002348800,12.259348876953124,1.6319366006880998,-0.2503717681407928,-0.7970788909569382
1733768864012309800,12.269309814453125,1.4235872802406548,-0.036349662753939624,-0.5640560247629881
1733768864022269700,12.279269775390626,0.6446902349233627,0.17933716097474098,-0.5666133080303669
1733768864032231200,12.289231201171875,1.5170248578727243,-0.03144961575269699,-0.8418398237034678
1733768864042191400,12.29919140625,2.6870138091415163,-0.9703343939304351,-1.5149465902939439
1733768864052151300,12.3091513671875,-4.673509989936649,-1.5607850891441106,-2.72131384588927
1733768864062112000,12.319112060546875,-12.643726360315084,1.7565829710543155,-4.098877626101673
1733768864072072200,12.329072265625,-4.2278044502660626,7.97754306000471,-7.530469154590368
1733768864082033200,12.339033203125,-13.09165132960081,9.153615130579471,-8.25875069591403
1733768864091993000,12.3489931640625,-9.779685420706867,4.60397263559103,-8.201330772602558
1733768864101953300,12.358953369140625,-2.911136160521209,0.23029636383950708,-6.938395826610923
1733768864111914200,12.368914306640624,4.211166034676134,-0.23481939422190187,-5.374304681658744
1733768864121874200,12.378874267578125,7.442394565296173,-0.6260322962045669,-3.88435107832402
1733768864131835100,12.388835205078125,7.978599875581264,-2.2466870398998258,-2.09771257622391
1733768864141795000,12.398795166015624,5.4337271769642825,-1.6989187175929545,0.8344660800650715
1733768864151755000,12.408755126953125,-1.459188170453906,1.3133300852328538,3.2441867963925004
1733768864161716200,12.41871630859375,0.82517188975811,3.2592776902794838,1.5710954707562923
1733768864171676200,12.42867626953125,4.050700747431814,1.251241585588455,0.4926488214248791
1733768864181636000,12.438635986328125,4.363804281556606,-0.2577192082941532,2.5758447599858045
1733768864191597300,12.448597412109375,3.57053559653759,-0.4397299723923206,4.623056106245517
1733768864201557200,12.45855712890625,3.301362974075973,-1.0287953507274388,5.0554766324073075
1733768864211518200,12.468518310546875,4.203649667696655,-0.10570552305281161,3.713998895576596
1733768864221478100,12.47847802734375,2.9025790523171424,0.9841296950489282,1.751100740250945
1733768864231438000,12.48843798828125,1.7068015797972678,1.3695382946670054,0.5115604061111807
1733768864241399300,12.4983994140625,1.1414186903446912,1.152622221404314,0.05555003778636455
1733768864251359200,12.508359130859375,0.8762854064017533,0.7743219924867153,0.1324213882818818
1733768864261320200,12.5183203125,0.6818903770267963,0.6800643306434154,0.3687070556640625
1733768864271280400,12.5282802734375,0.6558548952773213,0.7151409047216176,0.21687665456775573
1733768864281240300,12.538240234375,0.5873118126660585,0.597969400280714,-0.18753624952137468
1733768864291201000,12.548200927734374,0.5030266787827015,0.449768551325798,-0.5347875524416565
1733768864301161200,12.5581611328125,0.11998597733974456,0.31651977230906486,-0.4359522074192762
1733768864311122200,12.5681220703125,0.2835501073822379,0.26046587665379045,-0.03948061772342771
1733768864321082000,12.57808203125,0.5352972555294633,0.25537352195084095,0.44680856900904325
