time,seconds_elapsed,z,y,x
1733768661898396000,0.02839599609375,-0.1929369395211339,-0.2114952172577381,0.19785338966790586
1733768661908356000,0.038356201171875,-0.27822818170711394,-0.22703531621694564,0.2310238195975311
1733768661918317000,0.048317138671875,-0.477340741123259,-0.28687399110794065,0.09008275077883153
1733768661928277000,0.058277099609375,-0.7773829874925315,-0.3770382461577654,-0.08530101466132327
1733768661938237200,0.0682373046875,-1.0532757119894027,-0.4900280809998512,-0.33680706579536196
1733768661948198100,0.0781982421875,-1.0410852157190442,-0.5588607942074537,-0.5695613076483831
1733768661958158000,0.088157958984375,-0.8815886273764073,-0.5506716425329446,-0.5029316939756274
1733768661968119000,0.098119140625,-0.656956865169853,-0.4860083239644766,-0.022718594020139423
1733768661978079000,0.108078857421875,-0.44064299558401104,-0.3628863866865635,0.5399924276083707
1733768661988039000,0.118038818359375,-0.2271976671718061,-0.20599077462255955,1.0022484123244881
1733768661998000000,0.128000244140625,0.05473053809702396,-0.082796941152215,1.288297350785136
1733768662007960000,0.1379599609375,0.17066066417470574,-0.05703063173294067,1.266066522015631
1733768662017920000,0.147919921875,0.0760264241039753,-0.11614333043694496,0.7435948457896709
1733768662027881200,0.157881103515625,-0.01958615947961807,-0.245984931358695,-0.23074118499755858
1733768662037841200,0.167841064453125,-0.00708674339056015,-0.32473756555616856,-1.271766194961965
1733768662047801900,0.1778017578125,0.002404430793225765,-0.31475919237732886,-1.9656933390021323
1733768662057762000,0.187761962890625,-0.06457330219745636,-0.21059154641628264,-2.239465564213693
1733768662067722000,0.197721923828125,0.20352935294508934,-0.031104747837781905,-2.1909537545010447
1733768662077683000,0.207682861328125,0.6129074416935444,0.1927168670296669,-1.6590455568879843
1733768662087643100,0.21764306640625,0.5444103901810944,0.23676877472400665,-0.7471595525339245
1733768662097603000,0.22760302734375,0.2761592664785683,0.3313175284683704,-0.05949232740504667
1733768662107564000,0.23756396484375,0.17272110383585093,0.2944663459330797,0.3178255942106247
1733768662117524200,0.247524169921875,0.32243951774686574,0.10815642333626746,0.5573854974905028
1733768662127485000,0.25748486328125,0.6329122649766504,-0.07301672089397906,0.7305962480068207
1733768662137444900,0.26744482421875,0.5797751335509121,-0.1171393557369709,1.0952908531591297
1733768662147405000,0.277405029296875,-0.017346856120228765,-0.08192424997091292,1.2058297877177595
1733768662157366000,0.287365966796875,-0.1094650217168033,-0.10338087949752807,1.2767188489332795
1733768662167326000,0.297325927734375,0.16639248533621429,0.01320844114124775,0.829621854904294
1733768662177287200,0.307287109375,0.4836773967988789,-0.11836918979287146,0.03535102537171915
1733768662187247000,0.3172470703125,1.3457596519336104,-0.5600935508728027,-0.5213713503012434
1733768662197207000,0.32720703125,1.5507532322123645,-0.9503373155623673,-0.6275985226079821
1733768662207168000,0.33716796875,0.6296142463445663,-0.5848924765646457,-0.9120242437809705
1733768662217128000,0.3471279296875,0.03331146410182118,0.1689145511597395,-1.215534312391281
1733768662227088000,0.357087890625,-1.0364571175269781,0.44269525193870063,-1.1582383077204226
1733768662237049000,0.367049072265625,-2.5185014090418814,0.3585375438272953,-0.9247890328079461
1733768662247009000,0.377009033203125,-3.656672495767474,0.1514507906615734,-0.7210103812769055
1733768662256970200,0.38697021484375,-3.865981601157784,-0.3126350398302078,-0.7650333551377058
1733768662266930200,0.39693017578125,-3.4189135409623383,-0.5939110648006201,-0.3743669811218977
1733768662276890000,0.40689013671875,-2.8864631992965935,-0.49591187834143635,0.3161264256099239
1733768662286851000,0.41685107421875,-2.0679143809400498,-0.39828795493543145,0.5784303313458338
1733768662296811000,0.42681103515625,-1.311673550197482,-0.5809948846042156,0.7315785370424389
1733768662306771000,0.43677099609375,-0.8109573403142392,-0.8446510817319154,0.9050646339014172
1733768662316732200,0.446732177734375,-0.6064439447678626,-0.7251508420825005,1.1456312665384263
1733768662326692000,0.456692138671875,-0.5472964670114219,-0.3847182792663574,1.3834922934785485
1733768662336653000,0.466653076171875,-0.48338498972356314,-0.08312310436666011,1.4580238028496504
1733768662346613200,0.47661328125,-0.36175124517679214,0.07450900527834892,1.4908970216646789
1733768662356573200,0.4865732421875,-0.235184720402956,0.04046937303245068,1.520757614660263
1733768662366534000,0.496533935546875,-0.1275782590996474,-0.13792086248099802,1.5867764394909143
1733768662376494000,0.506494140625,-0.03266542128324509,-0.3358803063392639,1.7625290199771522
1733768662386454000,0.5164541015625,0.09964476170912384,-0.3970534447044134,1.973419695470482
1733768662396415000,0.5264150390625,0.22858780635595322,-0.2818681456446647,2.2032295909672976
1733768662406375200,0.536375244140625,0.3365554291218519,-0.09593290157914161,2.33069861753881
1733768662416336100,0.546336181640625,0.25932211344614625,0.17339315787851808,2.3017168532043693
1733768662426296000,0.556296142578125,-0.03739069623947144,0.4114186546653509,2.0795088110134006
1733768662436256300,0.56625634765625,-0.37897717833109196,0.5131278015583753,1.820811843728274
1733768662446217000,0.576217041015625,-0.7596271121799946,0.3113596130669117,1.5186545049011706
1733768662456177000,0.586177001953125,-1.2111965023826807,0.06893266645073891,1.2657559947617352
1733768662466137000,0.59613720703125,-1.6873457686990498,-0.2134557036757469,1.2186533211946486
1733768662476098000,0.60609814453125,-2.1438860061168667,-0.437090271538496,1.3192472003221511
1733768662486058000,0.61605810546875,-2.4576123483151195,-0.5442389791369437,1.5160399384886025
1733768662496019200,0.626019287109375,-2.641081494528055,-0.3745452602982521,1.9161353812374173
1733768662505979100,0.635979248046875,-2.891684148815274,0.05042962603271007,2.5333961958348747
1733768662515939000,0.64593896484375,-3.488972581094503,0.5716016178369522,3.1835695383444427
1733768662525900000,0.655900146484375,-4.060383644795418,1.3357576056182383,3.6452538606524465
1733768662535860000,0.66585986328125,-4.199543109160661,2.3628724559128282,3.980252707982063
1733768662545820000,0.67581982421875,-4.534373029664159,3.467391448405385,4.397100986480712
1733768662555781000,0.685781005859375,-5.06865760101974,4.482257642501592,4.649129874178767
1733768662565741000,0.695740966796875,-5.491802349314093,4.882562197956442,4.26825248824954
1733768662575702300,0.705702392578125,-5.957796643775701,3.8965298841565845,3.2034967663466927
1733768662585662200,0.715662109375,-5.588212220755219,2.043753899282217,1.8910680138677358
1733768662595622100,0.7256220703125,-4.592935693269967,0.4673176520198583,1.0537985668197274
1733768662605583000,0.7355830078125,-3.6726451409250496,-0.9213082049548625,0.3822650408953428
1733768662615543000,0.74554296875,-2.1715758309446276,-1.6500082639515399,0.1199586509414017
1733768662625504000,0.75550390625,-0.5807293655358254,-1.2530448356181383,0.007858750676363706
1733768662635464200,0.765464111328125,1.5548500000067054,-0.11388941403031348,0.15303141091652214
1733768662645424000,0.775424072265625,3.5751673479914663,1.141590539780259,0.15776158124357462
1733768662655385000,0.785385009765625,5.049829566431045,2.327579024213552,-0.2432636897012591
1733768662665345300,0.79534521484375,6.186749776312708,3.217450472897291,-0.8234265073955058
1733768662675305200,0.80530517578125,6.700287912237644,2.7836639190793036,-0.8199838195957243
1733768662685266000,0.815265869140625,6.367939287155866,1.3764929361104965,-0.5598972976483404
1733768662695226000,0.82522607421875,5.03842554436326,0.25173136605620383,-0.6301894158840179
1733768662705187000,0.83518701171875,3.6060154907196758,-0.6816513075739145,-0.7397156662687658
1733768662715147000,0.84514697265625,2.191619524933398,-1.3950947607278823,-0.8098683029685169
1733768662725107200,0.855107177734375,0.6537845187440514,-1.974268859645724,-0.7797601649526507
1733768662735068200,0.865068115234375,-4.736398115526139,-1.9906582689106462,-0.05480743925813585
1733768662745028000,0.875028076171875,-7.98761671025157,-1.0097060348540543,-0.2535460142627358
1733768662754988300,0.88498828125,-4.439483207397163,-0.7051683767616749,-1.2154387430623173
1733768662764949000,0.894948974609375,-5.129620311504602,-0.7638350852638482,0.055685939125716684
1733768662774909000,0.904908935546875,-2.979712560880184,-0.6399789884924888,0.48637481918931
1733768662784870100,0.9148701171875,-0.9488084985598921,-0.9804945534169673,0.8510080495432019
1733768662794830000,0.924830078125,0.07835106765925884,-1.1246855822086335,1.4526543847709894
1733768662804790000,0.9347900390625,0.9659165774881839,-0.7686813562512397,1.717541877259314
1733768662814751200,0.944751220703125,1.4835738391697406,-0.45526890230774875,1.4275471237823367
1733768662824711200,0.954711181640625,2.137865430653095,-0.4757727611541748,0.7391825823053717
1733768662834671400,0.96467138671875,2.7304996073856946,-0.7108557747483253,0.09318036973429843
1733768662844631300,0.97463134765625,3.063033818167448,-0.8326601996868849,-0.4373898390069604
1733768662854591500,0.984591552734375,3.034678076776862,-1.1335820053696632,-0.7796262363746762
1733768662864552200,0.99455224609375,2.722484643234312,-1.5563924071431159,-0.7704501194894313
1733768662874512100,1.00451220703125,2.649298703253269,-2.0578502291738987,-0.3700383042678237
1733768662884472300,1.014472412109375,2.8118267682462927,-2.4951550202459094,0.37068887713104487
1733768662894433300,1.024433349609375,2.491008714221418,-2.652236510270834,1.405567054903507
1733768662904393200,1.034393310546875,2.079082402294874,-2.7196657864212987,2.4224799523964524
1733768662914354400,1.0443544921875,1.7804586444213986,-2.76929169485569,3.1629221793740987
1733768662924314400,1.054314453125,1.2388929761469363,-2.640156780898571,3.5419062989026306
1733768662934274300,1.0642744140625,0.656329234790802,-2.1792776374936103,3.1276831082105634
1733768662944235300,1.0742353515625,0.036271336820721624,-1.483744519561529,2.2722142798662186
1733768662954195200,1.0841953125,-0.3657292088970542,-0.7759978167444467,1.6218705492258072
1733768662964156400,1.094156494140625,-0.7617413278549909,-0.26487492526769635,1.0673077444732189
1733768662974116400,1.104116455078125,-0.9638181439042091,-0.12833821062147616,0.6413380018860101
1733768662984076300,1.114076171875,-0.9768719790056347,-0.1808393822312355,0.36390484301410614
1733768662994037500,1.12403759765625,-0.7172714870095253,-0.3417085741013288,0.28163784402012826
1733768663003997400,1.13399755859375,-0.39745004280656576,-0.4727046057552099,-0.1486640094872564
1733768663013957400,1.143957275390625,0.20321224981993435,-0.9921487508535385,-0.9023700610551982
1733768663023918300,1.15391845703125,1.3096382449775934,-1.8239713306725025,-1.1792740814864635
1733768663033878300,1.163878173828125,1.8325813381075857,-2.417183891814947,-1.4133993559643625
1733768663043839200,1.173839111328125,1.5818556419625878,-2.16090728354454,-1.7734455507889388
1733768663053799400,1.18379931640625,1.1432044047176837,0.47265842852592466,-2.689322378344834
1733768663063759400,1.19375927734375,0.9877283040627837,4.569501041668653,-3.9233191068828104
1733768663073720300,1.20372021484375,1.747637448054552,6.937139104548097,-4.900857733103632
1733768663083680500,1.213680419921875,1.7948121639445422,8.35338069820106,-6.465079226437211
1733768663093641200,1.22364111328125,1.0665696394570172,8.647473534646629,-7.870918668541312
1733768663103601200,1.23360107421875,1.347422032187879,6.745131262570619,-7.769352144989371
1733768663113561300,1.243561279296875,1.2480714311197398,3.1435715822160244,-6.240616391056776
1733768663123522300,1.253522216796875,1.0717094865635037,0.05909983922243118,-4.431257815365493
1733768663133482200,1.263482177734375,1.4335527939379213,-1.3825649495005607,-3.1621684383973476
1733768663143442400,1.2734423828125,1.7948790917009114,-2.1526059036672116,-1.8764502904504536
1733768663153403400,1.2834033203125,2.4218457461461425,-2.3711428561300036,-0.7051043716147541
1733768663163363300,1.29336328125,3.156832045805454,-1.7129717928647994,0.17533318603038786
1733768663173324300,1.30332421875,3.81155939835757,-0.4436193810462951,0.8250798275604844
1733768663183284200,1.3132841796875,4.474731630910933,0.4803600889444351,1.5273042598247528
1733768663193244200,1.323244140625,5.253384053817391,0.7190694763422012,2.2326833567276596
1733768663203205400,1.333205322265625,5.476467417538165,0.4662450543522835,2.590388541384041
1733768663213165300,1.343165283203125,5.052877263563871,0.3922223712861538,2.865063268393278
1733768663223126300,1.353126220703125,4.883784140966832,0.4490554346203804,3.047337651863694
1733768663233086500,1.36308642578125,4.8717359757766125,0.2833049004495144,3.1326471603587267
1733768663243046400,1.37304638671875,4.759955808985233,0.047317631492018696,3.2013115312620997
1733768663253007000,1.383007080078125,4.455990397822856,0.036896190720796584,3.0173209915235635
1733768663262967300,1.39296728515625,3.779046245026588,0.18770868347883224,2.5532661406919357
1733768663272927200,1.40292724609375,3.046850745129585,0.3675789284169674,1.881108345389366
1733768663282888200,1.41288818359375,2.4361855294048786,0.5290940169751643,1.124699318473041
1733768663292848400,1.422848388671875,1.8817045577168463,0.549520134410262,0.6084116281116381
1733768663302809300,1.432809326171875,1.058100428732112,0.43154374332726,0.31218440998587754
1733768663312769300,1.442769287109375,-0.2681674640070647,0.09738076229989528,-0.2721518940007314
1733768663322729500,1.4527294921875,-1.5067739513628184,0.4399970988959074,-1.1415665013175458
1733768663332690200,1.462690185546875,-2.2303408852547406,0.7123276008665561,-1.8164961724862456
1733768663342650000,1.472650146484375,-2.752825713223219,0.28370179081261154,-2.1061732383161784
1733768663352611300,1.482611328125,-3.498730589520931,-0.08075871332287787,-2.2841338502407074
1733768663362571300,1.4925712890625,-4.362030842143297,-0.17817045528292655,-2.5342151110023257
1733768663372531200,1.50253125,-4.942554602104425,0.11898176873326301,-2.4219231952965257
1733768663382492400,1.512492431640625,-5.538958652764559,0.3885995046138763,-1.6881947867438196
1733768663392452400,1.522452392578125,-8.265861989223957,-0.18575988749861716,0.12640081281810997
1733768663402413300,1.532413330078125,-7.405700619149208,-0.45336569903492924,1.0525751625046134
1733768663412373200,1.542373291015625,-3.097579061847925,-0.023622867649793624,-0.056456010182760655
1733768663422333200,1.552333251953125,-2.02067814412117,-0.3958165963858366,-0.11006338946875184
1733768663432294400,1.56229443359375,-1.6157412526905535,-0.5215156906753778,0.04864687080178409
1733768663442254300,1.57225439453125,-1.172396596932411,-0.2774807243406772,-0.22384850287437438
1733768663452214300,1.58221435546875,-0.6986193935096263,-0.19408347920775412,-0.6870861921042204
1733768663462175500,1.592175537109375,-0.2926876458227634,0.07467208688557148,-1.4041151025295258
1733768663472135400,1.602135498046875,0.1543044265270233,0.47807460835576054,-2.180223393911123
1733768663482096000,1.61209619140625,0.8732739496260881,0.3498965567320585,-2.3447519850715994
1733768663492056300,1.622056396484375,1.573807652324438,-0.06125614047348499,-1.8259166195213794
1733768663502016300,1.632016357421875,2.003515996918082,-0.16027707119584084,-1.0926838855311274
1733768663511977200,1.641977294921875,2.1297943524003027,0.03218786689937114,-0.46046292728688565
1733768663521937400,1.6519375,1.866888096857071,0.058172787505388256,0.14278905303925274
1733768663531898400,1.6618984375,1.3492436946570872,-0.05297931051552295,0.7881156131047755
1733768663541858300,1.6718583984375,0.8590566237032413,-0.05300912113189697,1.2516843609198927
1733768663551818500,1.681818603515625,0.5091021993041038,0.014351765957474708,1.7581880681633948
1733768663561779200,1.691779296875,0.21881460036039352,0.12086977443695068,2.2796131579458714
1733768663571739100,1.7017392578125,0.11701545536266639,0.46320437148213384,2.8593054355189205
1733768663581700400,1.711700439453125,0.15425063224686308,0.8370756780415773,3.4629496665656565
1733768663591660300,1.721660400390625,0.1901893213134259,1.2418705306529998,4.117453731755912
1733768663601620200,1.7316201171875,0.2591583011865616,1.4717372709035872,4.7673725149825215
1733768663611581400,1.74158154296875,0.20368125557117162,1.3206687575578688,5.158648837590217
1733768663621541400,1.751541259765625,-0.08442600365877151,0.8929448647797107,5.2105555504381655
1733768663631502300,1.76150244140625,-0.58376551836133,0.3044441345900297,4.92749498013854
1733768663641462300,1.771462158203125,-1.3699217410266398,-0.01987725138068199,4.2133822494208815
1733768663651422200,1.781422119140625,-2.2758276480577884,0.3654512687385082,3.262738644388318
1733768663661383400,1.791383544921875,-3.1501465766921637,1.6695745496869085,2.3035998904719945
1733768663671343400,1.80134326171875,-4.10659360730648,3.214292885649204,1.426919639533758
1733768663681304300,1.81130419921875,-6.949351520389318,4.154969223418831,0.5020094645641744
1733768663691264500,1.821264404296875,-20.888883415162564,4.0880975811511275,-1.353618402609974
1733768663701224400,1.831224365234375,-11.747282547503708,4.495797507554292,-1.1453007924750447
1733768663711185200,1.84118505859375,-5.961742166531086,4.446768395969271,-0.6019758594430983
1733768663721145300,1.851145263671875,-5.900462060660123,4.160172052758932,-0.4399100051343441
1733768663731106300,1.861106201171875,-4.285110099548101,2.79769536704123,-0.20975188072174786
1733768663741066200,1.871066162109375,-2.09815067538023,0.6602993074655532,-0.7246013915061951
1733768663751026400,1.8810263671875,0.018532851034402845,-0.48492871203422544,-1.2656512192130087
1733768663760987400,1.8909873046875,1.5743103411495685,-0.7177928805351257,-1.7579662421062587
1733768663770947300,1.900947265625,1.5568004034221172,-0.7814461452782153,-2.17717043608129
1733768663780908300,1.910908203125,1.110156121596694,-0.5316618216365575,-2.2397398511104285
1733768663790868200,1.9208681640625,1.0462182677585632,-0.251188345220685,-1.633238769327849
1733768663800828200,1.930828125,1.871581807631254,-0.34700083529055115,-0.6622025107383728
1733768663810789400,1.940789306640625,3.361833224868774,-0.2565127551138401,-0.028217063572257756
1733768663820749300,1.950749267578125,5.0060599828094245,0.2472971830010414,0.10107435612082481
1733768663830709200,1.960709228515625,6.026108547979593,0.8698831381440162,-0.04938698511198163
1733768663840671200,1.970671142578125,6.210255739584565,1.1191279480814933,-0.008720920463651418
1733768663850631200,1.980631103515625,5.809480059486627,1.142789978697896,0.017544424518942833
1733768663860592400,1.99059228515625,4.887199210107326,0.8301642912179231,0.06308525559678674
1733768663870552300,2.00055224609375,3.8254151974916457,0.07970832748711108,0.37265681620314717
1733768663880512300,2.01051220703125,2.8418203399717807,-0.6560229453206062,0.992953345234692
1733768663890473500,2.020473388671875,2.248925904867798,-1.0720248361229896,1.6834959614031015
1733768663900433400,2.030433349609375,2.1266391032397745,-1.30334060613811,2.2478853097736833
1733768663910394000,2.04039404296875,2.136727951055765,-1.4421201312750578,2.6535890939235687
1733768663920354300,2.050354248046875,2.0525404323279854,-1.4355577040195464,2.960924273779988
1733768663930314200,2.060314208984375,1.888233813355118,-1.2957774774074553,3.1127240240097045
1733768663940275200,2.070275146484375,1.758286560101807,-1.1838362748354672,3.136703157751262
1733768663950235400,2.0802353515625,1.6242051296532154,-1.109894840312004,3.100332452209294
1733768663960196400,2.0901962890625,1.4947382072627544,-1.1181360144346952,2.927449874201417
1733768663970156300,2.10015625,1.4607798235595226,-1.0683645600497722,2.466124156072736
1733768663980116500,2.110116455078125,1.510365984505415,-0.8553203597843646,1.8513436139836907
1733768663990077200,2.1200771484375,1.64183898602128,-0.6101303781956434,1.2495400423675775
1733768664000037000,2.130037109375,1.8166057703405618,-0.4357470402359962,0.7195999299570918
1733768664009998300,2.139998291015625,2.0434674835562703,-0.2580336810708046,0.2769584540322423
1733768664019958300,2.149958251953125,2.3229437656283376,-0.14533143099844456,-0.15697861417233944
1733768664029918200,2.159918212890625,2.6374703182935715,-0.17288520835638047,-0.5232978979170322
1733768664039879400,2.16987939453125,2.8631948441728947,-0.2576139943540096,-0.8094959625247865
1733768664049839400,2.17983935546875,2.9674717957273122,-0.38602760829925536,-1.0511549935083835
1733768664059800300,2.18980029296875,2.8985367911890147,-0.5258300467431545,-1.252657297605276
1733768664069760300,2.19976025390625,2.8224796796858307,-0.6213637198716402,-1.3513526496350765
1733768664079720200,2.20972021484375,2.741141120648384,-0.610317425200343,-1.2987015481606126
1733768664089681400,2.219681396484375,2.3967034138441083,-0.5103659356296062,-1.3157330547213553
1733768664099641300,2.229641357421875,1.676047545093298,-0.1453682558774948,-1.4043050721436738
1733768664109602300,2.239602294921875,0.9761752289131284,0.34726387014091015,-1.4758015977330505
1733768664119562500,2.2495625,-0.2695217281602323,0.8882868098407983,-1.4538982473522424
1733768664129522400,2.2595224609375,-5.918300499689579,1.3999731804192066,-0.7502431246977299
1733768664139483100,2.269483154296875,-6.667485712832212,1.4007283827006816,-0.3802716020558029
1733768664149443300,2.279443359375,-3.088130850023031,0.3371083868294954,-0.4651984313761815
1733768664159404300,2.289404296875,-1.888053634482622,-0.6944032371193171,-0.5776294998243451
1733768664169364200,2.2993642578125,-1.4965432108581065,-1.164110414624214,-0.8670505450665951
1733768664179324400,2.309324462890625,-1.8253847046017646,-1.2065221538960933,-1.0428151082515715
1733768664189285400,2.319285400390625,-1.8539701630949974,-1.40627081925869,-0.9863429871842264
1733768664199245300,2.329245361328125,-1.528420696634054,-1.7138047365576028,-0.8427800271630287
1733768664209206300,2.339206298828125,-1.3681165913008153,-1.715057951489091,-0.8686809958126396
1733768664219166200,2.349166259765625,-1.4119298679336905,-1.3748551057755947,-1.0630166962157934
1733768664229126100,2.359126220703125,-1.7200936075687407,-1.0007178417563438,-1.1942167990744113
1733768664239087400,2.36908740234375,-1.7400120677426456,-0.9178326377987861,-1.1401521044749765
1733768664249047300,2.37904736328125,-1.3032999818667768,-0.9274526990592479,-1.1324106965679674
1733768664259008300,2.38900830078125,-1.161065055578947,-0.7591577411025762,-1.3323887137070298
1733768664268968400,2.398968505859375,-1.3217267421782015,-0.48277124173939223,-1.7386019086837767
1733768664278928400,2.408928466796875,-1.3617764284938574,-0.36232466115057466,-2.1877575888082386
1733768664288889000,2.41888916015625,-2.2321330293685198,-0.47496787451207634,-2.6151678855925797
1733768664298849300,2.428849365234375,-3.0024574766516685,-0.14612053554952142,-3.1141502574205395
1733768664308810200,2.438810302734375,-1.544954190544784,1.249615445691347,-3.550745146657526
1733768664318770200,2.448770263671875,1.4265961066678166,3.1263837160497903,-3.2489088564783333
1733768664328730400,2.45873046875,3.219601513451338,4.569177216541767,-3.0371888905540105
1733768664338691300,2.46869140625,3.6809801308110353,5.416371553015709,-3.1662916558071967
1733768664348651300,2.4786513671875,3.4724493163168426,4.842370472821593,-2.749960971441865
1733768664358612200,2.4886123046875,3.5992204237520693,2.2476579307585953,-2.1470009232670066
1733768664368572200,2.498572265625,4.280279610651731,-0.6600076310425996,-1.9028499293372034
1733768664378532000,2.508531982421875,4.678070429719984,-1.9186784898489713,-2.0055486717894673
1733768664388493300,2.518493408203125,4.883343703722954,-2.0200036058604716,-2.000899676939845
1733768664398453200,2.528453369140625,5.2825207164525985,-1.3023293832689522,-1.6312153006762264
1733768664408414500,2.53841455078125,5.407219109266996,-0.44969665513336654,-0.8722392728161066
1733768664418374400,2.54837451171875,5.551705906134844,0.5389209989845752,0.05603877115137875
1733768664428334300,2.558334228515625,5.448591568619013,1.4922867224574088,0.708295568871498
1733768664438295300,2.56829541015625,5.416510669225454,2.0665058293163776,1.3441487096056342
1733768664448255200,2.578255126953125,5.372641132360696,1.8859481866359709,1.9743217588767408
1733768664458216200,2.58821630859375,5.365292523163557,1.3444541222929953,2.5776588236704465
1733768664468176400,2.59817626953125,5.581332398113608,0.6223042155921459,3.0321108566373587
1733768664478136300,2.60813623046875,5.556204386597871,-0.04995908591151237,3.3617566525012252
1733768664488097300,2.61809716796875,5.222952090674639,-0.3844505682408809,3.594248480558395
1733768664498057500,2.628057373046875,4.325217653530836,-0.16276421183645726,3.7701363778620958
1733768664508018200,2.63801806640625,3.1978128754913806,0.35171968050599095,3.858485107922554
1733768664517978000,2.64797802734375,2.187567765324563,0.8896201042711734,3.872688989841938
1733768664527938300,2.657938232421875,0.9684114630438386,0.912148162421584,3.8021883434221144
1733768664537899300,2.667899169921875,-0.9279488850783556,-0.017949498188495634,3.3137428554385897
1733768664547859200,2.677859130859375,-2.187548622232675,-0.32541268833875653,2.3426403997451066
1733768664557820400,2.6878203125,-2.854628383618593,0.4079804969102144,1.2567451514407992
1733768664567780400,2.6977802734375,-4.1381484369993204,0.7272732410639524,0.29730332292467354
1733768664577740300,2.707740234375,-10.547663597124814,0.0009293898046016692,-0.9656639909666032
1733768664587701200,2.717701171875,-17.78318183713555,-1.358052439534664,-2.7447841533258557
1733768664597661200,2.7276611328125,-4.246372664874792,-1.1079448752880097,-1.902625180670619
1733768664607622400,2.737622314453125,-1.396650757998228,0.23502163879573343,-1.254401510924101
1733768664617582300,2.747582275390625,-0.3764028708636761,0.2919698529422283,-0.6003872750774025
1733768664627542300,2.757542236328125,0.6918342634141444,-0.27849720790684224,0.06957425228990614
1733768664637503500,2.76750341796875,0.9558908580362796,-0.6343424439102411,0.1027438237030059
1733768664647463400,2.77746337890625,1.0500812998622655,-0.5529454326838255,-0.28926640266980974
1733768664657424100,2.787424072265625,1.3199550563305615,0.016229250267148016,-0.8069853679433464
1733768664667384300,2.79738427734375,1.7005881121098994,0.4699935932308435,-1.1985782091543078
1733768664677344300,2.80734423828125,1.8011323068767784,0.18139058637320996,-1.1807996836185455
1733768664687305200,2.81730517578125,1.5875971082240343,-0.16694763500094412,-1.091638175870478
1733768664697265400,2.827265380859375,1.1469932756066321,-0.4602519514173269,-1.146490002259612
1733768664707226400,2.837226318359375,0.661103609585762,-0.5195733244359493,-1.2931211176797748
1733768664717186300,2.847186279296875,0.15838672740459442,-0.38058687855005263,-1.3658879554659127
1733768664727146500,2.857146484375,-0.2777671400666237,-0.23251228632330892,-1.2774220287665723
1733768664737107200,2.867107177734375,-0.4300058662354946,-0.1838017391681671,-0.9046741002138704
1733768664747067100,2.877067138671875,-0.3211807498574257,-0.08530278649330139,-0.3570201250016689
1733768664757028400,2.8870283203125,-0.18147945196675136,-0.0006534954726696014,0.08119878524057567
1733768664766988300,2.89698828125,-0.11959375401861033,0.025832944914698598,0.4404326407689601
1733768664776948200,2.9069482421875,-0.11759469828903675,0.06275134746730328,0.8032263807360083
1733768664786909400,2.916909423828125,-0.18354454953670502,0.11133096171915531,1.1355793166667223
1733768664796869400,2.926869384765625,-0.4104968636453151,0.20493454356789587,1.4157029567316173
1733768664806830000,2.936830078125,-0.8622633107900619,0.259151871445775,1.6675760693460702
1733768664816790300,2.946790283203125,-1.4305214634180068,0.2580418643772602,1.904859223333001
1733768664826750200,2.956750244140625,-1.9638111785173415,0.2096346840828657,2.114761618441343
1733768664836709600,2.966709716796875,-2.409427286338806,0.04809913725852966,2.311724890869111
1733768664846669600,2.976669677734375,-2.8499580537199973,-0.31434593540132044,2.431322307282686
1733768664856630500,2.986630615234375,-3.2963305328667163,-0.5858171901941299,2.4241945012293753
1733768664866590700,2.9965908203125,-3.645232817864418,-0.49150750590264797,2.2827084936127067
1733768664876550700,3.006550537109375,-3.696117786449194,-0.042758945274353026,2.18182352258414
1733768664886511600,3.01651171875,-3.5058220090866086,0.6206313139438628,2.23781136726588
1733768664896471800,3.026471923828125,-3.0995699434041977,1.609533630222082,2.3219275743231176
1733768664906432500,3.0364326171875,-2.7603905955195427,2.492604751241207,2.3998225687779486
1733768664916392400,3.046392333984375,-2.5697242312788964,3.12920052703619,2.4812416457057
1733768664926352600,3.0563525390625,-2.450610360598564,3.279740048071742,2.592627260221541
1733768664936313600,3.066313720703125,-2.447273909652233,2.6901509381234643,2.258242160876095
1733768664946273500,3.0762734375,-3.618238427954912,1.6815069795429705,1.135841255538538
1733768664956234800,3.08623486328125,-6.148795016449689,1.2119172909379006,-0.84963150049299
1733768664966194700,3.096194580078125,-6.576687251532078,1.2911924877047538,-2.4616730218827723
1733768664976154600,3.106154541015625,-4.246504766821861,1.720298190230131,-2.9855305995091794
1733768664986115600,3.116115478515625,-2.8334920720875263,2.490577629327774,-3.6624008102864023
1733768664996075500,3.126075439453125,-3.382326562321186,2.9450913293540477,-3.866577228963375
1733768665006036700,3.13603662109375,-3.391461470413208,3.2324031273573635,-2.515777537035942
1733768665015996700,3.14599658203125,-1.8525135345458983,3.0336639312982556,-1.1302017152816057
1733768665025956600,3.15595654296875,-0.9718833769381046,1.7433786215662954,-0.45625499073565
1733768665035917800,3.165917724609375,-0.4900678284883499,0.637294863975048,0.412684729078412
1733768665045877800,3.175877685546875,0.2385878799099475,0.12880465908944605,1.2565583966970444
1733768665055838500,3.18583837890625,1.2446405798882245,-0.14325871637761592,1.6280869395226238
1733768665065798700,3.195798583984375,2.5095161385536193,-0.15124328539073467,1.2666928372204302
1733768665075759600,3.205759521484375,3.733904788529873,0.2068587896287441,0.5522162416264415
1733768665085719600,3.215719482421875,4.6052726122736924,0.7399743172049522,-0.1707731846384704
1733768665095679700,3.2256796875,5.165054028457403,1.2727426387786864,-0.5617085848540068
1733768665105640700,3.235640625,5.158369436126947,1.3988333627343177,-0.5118766324535012
1733768665115600600,3.2456005859375,4.58649660013318,0.8179998061716556,-0.04876724577844142
1733768665125561600,3.2555615234375,3.9765605754658577,0.06751520086824894,0.4876802026994526
1733768665135521500,3.265521484375,3.6726270207464693,-0.21954817533195017,0.7911031775481998
1733768665145481500,3.2754814453125,3.651045595796406,-0.6324234585464,1.0554005951888858
1733768665155442700,3.285442626953125,3.5979184012427923,-1.1884943297743797,1.3481665669448673
1733768665165402600,3.295402587890625,3.387824575215578,-1.49694711548388,1.539190074060112
1733768665175363800,3.30536376953125,3.1243560096144676,-1.4338842178493738,1.6627346206642686
1733768665185323800,3.31532373046875,2.855004815715551,-1.3493991774797438,1.7733140333637594
1733768665195283700,3.32528369140625,2.7218893076896666,-1.3660411002010107,1.6237869042411446
1733768665205244700,3.33524462890625,2.6537846164956687,-1.245160219848156,1.3624742014996707
1733768665215204600,3.34520458984375,2.5468691331312057,-1.0670306810975074,1.104960744910687
1733768665225165600,3.35516552734375,2.6455639006391167,-0.8863444436013698,0.7621567037228495
1733768665235125500,3.36512548828125,2.9481591924920676,-0.7301689625054597,0.4076640513721853
1733768665245085700,3.375085693359375,3.155660663938522,-0.7411877846479415,0.00007452654093503952
1733768665255046700,3.385046630859375,3.1895281544879075,-0.6501958466023207,-0.20162052364908156
1733768665265006600,3.395006591796875,3.118057201731205,-0.640687429022789,-0.13659633587896822
1733768665274967600,3.404967529296875,2.980035216963291,-0.8336743451654911,0.07044628588408232
1733768665284927500,3.414927490234375,2.7975837233603,-1.1026911925435066,0.1666591734483838
1733768665294887400,3.424887451171875,2.536689392161369,-1.1927765371382235,0.3139020640913397
1733768665304848600,3.4348486328125,0.8238602226376533,-1.017196682870388,0.8957230973213911
1733768665314808600,3.44480859375,-0.9522875728473067,-0.632061639496684,1.334956226107478
1733768665324769800,3.454769775390625,-0.3179381146743893,-0.4162888910502195,1.0795111732903868
1733768665334729700,3.464729736328125,-0.17408406275212765,-0.5326408958017825,0.7052300438210368
1733768665344689700,3.474689697265625,-0.25027941368222234,-0.8717290582716465,0.34400662191063164
1733768665354650600,3.484650634765625,-0.17734189550429583,-0.8944944323092698,-0.10819185997582971
1733768665364610600,3.494610595703125,-0.1422906019978225,-0.7908972797125577,-0.5187681090002879
1733768665374571500,3.504571533203125,-0.19679200751408935,-0.6585860738068818,-0.7443409879818558
1733768665384531700,3.51453173828125,-0.6374839568063616,-0.345520241343975,-0.7911652099337428
1733768665394491600,3.52449169921875,-1.628357280896604,0.04365735541880131,-0.6276352744217961
1733768665404452600,3.53445263671875,-2.250513904711604,0.05986205576658248,-0.41934798635989423
1733768665414412800,3.544412841796875,-2.6376620414733885,-0.05284954665601253,-0.1340294080004096
1733768665424373500,3.55437353515625,-2.920160301715135,-0.1316840139180422,0.3472972244212404
1733768665434333400,3.56433349609375,-3.2653578869760036,-0.14090017055273055,1.0492176687702537
1733768665444293600,3.574293701171875,-2.85856864567697,-0.2758861486256122,1.398985338425636
1733768665454254600,3.584254638671875,-1.6962629423871636,-0.269373990252614,1.3054492688551544
1733768665464214500,3.594214599609375,-1.4709205476932228,0.18143734812438486,1.096776415541768
1733768665474175700,3.60417578125,-2.044468185031414,0.7167150221705436,0.7128001868143677
1733768665484135700,3.6141357421875,-2.589650582498312,0.9087865770339966,0.02789367683678865
1733768665494095600,3.624095703125,-2.463326049786806,0.6691407855689525,-0.7814061055287719
1733768665504056600,3.634056640625,-1.8989327558934688,0.22505027987957,-1.4240668804511427
1733768665514016500,3.6440166015625,-1.3811093438647686,-0.16978198164403438,-1.8395421170309185
1733768665523977700,3.653977783203125,-1.062286701440811,-0.4154956948459148,-1.9840353436395526
1733768665533937700,3.663937744140625,-0.85544077129364,-0.5642927561283111,-1.8211439982920885
1733768665543897600,3.673897705078125,-0.496546669113636,-0.9134896401584148,-1.4715549000740051
1733768665553858800,3.68385888671875,-0.06396583782359958,-1.2945797920554876,-1.2694751614153383
1733768665563818800,3.69381884765625,0.54261430054456,-1.5258219123125076,-1.3507745574861765
1733768665573779500,3.703779541015625,0.9872329217612743,-1.5560101298272608,-1.4479399234697221
1733768665583739600,3.71373974609375,1.038549267500639,-1.2697867115825414,-1.5219488702714443
1733768665593699600,3.723699462890625,0.706527682416141,-0.6924784065365791,-1.5523399168819187
1733768665603660500,3.73366064453125,-1.2052572485268116,0.38752164624929425,-1.4499483406826852
1733768665613620700,3.743620849609375,-3.408501744802296,2.028942114597559,-1.311505500154197
1733768665623581700,3.753581787109375,-0.5788590416193008,2.8374750042438506,-1.671741080071032
1733768665633541600,3.763541748046875,1.1618519681729376,2.4088889416784047,-1.3798235418379305
1733768665643501800,3.773501708984375,1.5617280690826474,1.1954787818342447,-1.4497615859389303
1733768665653462500,3.783462646484375,1.760509058456868,-0.27609949911534787,-1.7459446726620196
1733768665663422500,3.79342236328125,1.9524201620616017,-1.7614245658665895,-1.6116303102403877
1733768665673383700,3.8033837890625,2.362763150319457,-2.638195125436783,-1.2783470346570014
1733768665683343600,3.813343505859375,3.089246117788553,-2.269233218228817,-1.205368307685852
1733768665693304800,3.823304931640625,3.961754343739152,-0.613316607016325,-1.6129478225797413
1733768665703264800,3.8332646484375,4.106004116980731,1.7553291716009378,-1.8778394067212938
1733768665713224700,3.843224609375,3.649417994594574,3.1472616689056157,-1.6345140499606727
1733768665723185700,3.853185546875,3.6485154927968977,3.5105648196995256,-1.3233075816288589
1733768665733145600,3.8631455078125,3.6210558234632013,3.656985214978456,-1.1025646435543894
1733768665743106600,3.8731064453125,3.234166629898548,2.537729841125011,-0.74421210090518
1733768665753066800,3.883066650390625,2.748716524338722,0.731125240316987,-0.12312369084358214
1733768665763026700,3.893026611328125,2.4216309343516826,-0.7078969249427318,0.43013738366067406
1733768665772987600,3.902987548828125,2.2294348763257266,-1.565444897648692,0.8287681606844067
1733768665782947800,3.91294775390625,2.199421430855989,-1.6022048947691916,1.2421578231617807
1733768665792908500,3.922908447265625,2.358825080218166,-1.005889106914401,1.6811431146666407
1733768665802868500,3.932868408203125,2.4752853676497937,-0.1577379081070423,1.9222569328576324
1733768665812828700,3.94282861328125,2.3935773907780646,0.9215081114411353,1.8732725371971726
1733768665822789600,3.95278955078125,2.2476697673268613,1.8820429958909748,1.8120307175099848
1733768665832749600,3.96274951171875,2.1704688926160336,2.3859914656937122,1.7503721337154508
1733768665842711600,3.972711669921875,2.0507523798674345,2.315720244115591,1.7486261668309568
1733768665852671500,3.98267138671875,1.8336667952567338,1.7075386619001627,1.6934136904358863
1733768665862631700,3.992631591796875,1.5352894133597612,0.9883154563009738,1.463753870934248
1733768665872592400,4.00259228515625,1.164886659693718,-0.6135264503747224,1.3989400379791854
1733768665882552300,4.01255224609375,-0.050943493838980794,-2.6176363215327263,1.4372051789656282
1733768665892513500,4.022513427734375,-0.8535697897899895,-2.73312849458456,0.9536100536227226
1733768665902473500,4.032473388671875,-1.4822329459547996,-1.6265023006796835,-0.04035769281890243
1733768665912433400,4.042433349609375,-2.47547825987339,-0.6063467680037021,-0.9669728085428476
1733768665922394600,4.05239453125,-3.301429901832342,0.08441489774286746,-1.7429644878074526
1733768665932354600,4.0623544921875,-4.0265567785173655,0.6851128462046384,-2.5122064005509017
1733768665942315300,4.072315185546875,-4.53071567620039,0.6508902586072683,-2.8260297733828423
1733768665952275500,4.082275390625,-4.529806160140037,-0.010720131456851958,-2.572764621888101
1733768665962235400,4.0922353515625,-4.973682730817795,-1.90622291290164,-1.5481331128418445
1733768665972196400,4.1021962890625,-4.417872556352615,-1.3272773620426654,-0.27885581208616494
1733768665982156500,4.112156494140625,-3.3937598104834557,0.1588666198760271,0.5389724369108677
1733768665992117500,4.122117431640625,-2.5289701960861684,0.49978550490438933,1.2612190819844602
1733768666002077400,4.132077392578125,-1.5653449444055556,0.2444774494051933,1.732862780509889
1733768666012037600,4.14203759765625,-0.6993278340399265,-0.09330722925066948,1.8173147953927515
1733768666021998300,4.151998291015625,0.08008066793084144,-0.009939210212230681,1.3388704769417643
1733768666031958300,4.161958251953125,0.4395440944314003,-0.16869184831976888,0.7687929268669337
1733768666041919500,4.17191943359375,0.5591916335970163,-0.799455264699459,0.6408703843742609
1733768666051879400,4.18187939453125,0.7286918756902218,-1.001916696152091,0.8039829712569713
1733768666061839400,4.19183935546875,0.8999754940688609,-0.4845511108934879,1.0405135533109307
1733768666071800600,4.201800537109375,0.9204407744705676,0.1352776544958353,1.0844046444203703
1733768666081760500,4.211760498046875,0.9043243369281292,0.4412064746856689,0.9605123803570866
1733768666091721500,4.221721435546875,0.9511351879417895,0.41423546565175057,0.9385910559281706
1733768666101681400,4.231681396484375,0.9581728314936161,0.1883896514803171,1.1161253321994096
1733768666111641300,4.241641357421875,0.8261842816710472,0.0812280844002962,1.308892979568243
1733768666121602600,4.2516025390625,0.5567956418385729,0.03863923499584198,1.4410261985585093
1733768666131562500,4.2615625,0.20871289306282995,0.033389643904566765,1.6176760201454161
1733768666141523500,4.2715234375,-0.23166246456094086,-0.010800795477628708,1.7858593344211577
1733768666151483600,4.281483642578125,-0.8086299202799797,-0.0712853670567274,1.8676713561892508
1733768666161443600,4.291443603515625,-1.450609142678976,-0.3523620700627565,1.796446194887161
1733768666171404300,4.301404296875,-2.1511386075936256,-0.4538952758669853,1.4673331907257436
1733768666181364500,4.311364501953125,-2.9579508109271524,-0.38733109211325645,0.9609282676815986
1733768666191325400,4.321325439453125,-4.100264404284954,0.06418284157514571,0.6473726058751345
1733768666201285400,4.331285400390625,-5.429130496823787,1.1743804642260074,0.6903688670367002
1733768666211246600,4.34124658203125,-9.837296482676267,2.4699808315008878,1.1418200376871972
1733768666221206500,4.35120654296875,-14.030804987847803,4.079166671198606,1.0522829015597701
1733768666231166500,4.36116650390625,-7.004425172835588,5.536719933927059,0.16150748977363108
1733768666241127400,4.37112744140625,-5.92572042055726,6.142846921700238,0.17461385877989233
1733768666251087400,4.38108740234375,-6.925370925343036,6.470581330984831,0.11054828690886497
1733768666261048600,4.391048583984375,-6.529598168098926,5.959630288943648,-0.07266074706315993
1733768666271008500,4.401008544921875,-4.859885671246052,4.191685965919494,-0.48209473071731623
1733768666280968400,4.410968505859375,-3.3641385792016982,1.947664930358529,-1.267767480714619
1733768666290929700,4.4209296875,-2.227759052067995,1.2285638898342848,-2.0429034199327227
1733768666300889600,4.4308896484375,-0.799835788449645,0.8418401159644127,-2.238505194748938
1733768666310850300,4.440850341796875,0.3983604721823707,0.21785773802697658,-2.1199024884611366
1733768666320810500,4.450810546875,1.287892861637473,-0.43625265167057514,-2.023442055876553
1733768666330770400,4.4607705078125,1.704059587612748,-0.6030307753235101,-1.7887360589012502
1733768666340731400,4.4707314453125,1.9930010326445102,-0.46720367025136944,-1.1237801578015088
1733768666350691600,4.480691650390625,2.443279287058115,-0.4536836789429188,-0.1073687800899148
1733768666360652500,4.490652587890625,2.7567162909209726,-0.8699088571071624,0.6762984022386371
1733768666370612500,4.500612548828125,3.5299773761779067,-0.7233990299791098,1.4656275558516383
1733768666380572700,4.51057275390625,4.68903518358767,0.19045184470713136,2.2763930268555876
1733768666390533400,4.520533447265625,5.460498279511929,1.221603403171897,2.9068986690819263
1733768666400493300,4.530493408203125,5.4798716730237,1.5280109467893839,3.2695383875310418
1733768666410454500,4.54045458984375,5.135695832026005,1.3906038790494202,3.5567619227290153
1733768666420414500,4.55041455078125,4.807270810128748,0.671885115841031,3.748033267125487
1733768666430374400,4.56037451171875,4.38033134572655,-0.4081540999114513,3.7209377549290656
1733768666440335600,4.570335693359375,4.049328582295775,-1.1247598164886234,3.462883323331177
1733768666450295600,4.580295654296875,3.6781004837214946,-1.2718243548899888,3.0831302652567625
1733768666460256300,4.59025634765625,3.268323751044273,-1.1257663631826638,2.698152166010439
1733768666470216400,4.600216552734375,2.891704314820468,-0.9765367557018995,2.3082008083961902
1733768666480176400,4.61017626953125,2.6587849090009925,-0.9454758470058441,1.9612761070817708
1733768666490137300,4.620137451171875,2.605816119879484,-0.9483552018344402,1.734930380564183
1733768666500097500,4.63009765625,2.5737299597889183,-0.906637290045619,1.5406575162641702
1733768666510058500,4.64005859375,2.561688224339485,-0.8249848427534103,1.3547063439771532
1733768666520018400,4.650018310546875,2.5593285094708205,-0.7059305933058262,1.2399445310264825
1733768666529978600,4.659978515625,2.5873998809620735,-0.5332061284691095,1.1387537089191377
1733768666539939300,4.669939208984375,2.6083552829682826,-0.2293020921051502,0.9217258458450436
1733768666549899300,4.679899169921875,2.4016870474755763,-0.06438450162708759,0.666336834064126
1733768666559860500,4.689860595703125,2.095205854099989,0.15091653765439986,0.49482759023606776
1733768666569820400,4.6998203125,1.7610428730726242,0.4398872087806463,0.34363486598879095
1733768666579780400,4.7097802734375,1.559502940379083,0.5037228443533182,0.26155089541152116
1733768666589741600,4.719741455078125,1.4367361001491545,0.5332178189069032,0.1954220343351364
1733768666599701500,4.729701416015625,1.2850696209102868,0.5124596930384636,0.11001666425019502
1733768666609662500,4.739662353515625,1.0378893422871827,0.5255938998997212,0.08412322131991386
1733768666619622400,4.749622314453125,-0.7156406709372997,0.5497773240417242,0.34249504830390215
1733768666629583400,4.759583251953125,-2.4764643483012914,0.6967302187621593,0.31333003635704515
1733768666639543600,4.76954345703125,-1.8096886844284832,0.5948720187872648,-0.07262465283647179
1733768666649503500,4.77950341796875,-1.2948311364680527,0.27674539580345153,-0.20229951888918876
1733768666659464400,4.78946435546875,-1.2727758103959261,0.2186585330158472,-0.3912248116161674
1733768666669424600,4.799424560546875,-0.9660286595605313,0.4344295278966427,-0.6082548666473477
1733768666679385300,4.80938525390625,-0.2200263142377138,0.7804273236244916,-0.8035511557109654
1733768666689345300,4.81934521484375,0.589133913526684,1.1231371837228536,-1.0339267953317612
1733768666699305500,4.829305419921875,0.9247951702877879,1.3883189829826355,-1.2660726594954728
1733768666709266400,4.839266357421875,0.5585669258274137,1.2884089944660664,-1.3417217747196555
1733768666719226400,4.849226318359375,0.06176818164885044,0.7811363486766815,-1.2529815611235797
1733768666729187600,4.8591875,-0.42197132060080766,0.6051525897830724,-1.2279673852458595
1733768666739147500,4.8691474609375,-0.5873104974918067,0.2818710682541132,-1.5160361390963195
1733768666749107500,4.879107421875,-0.03302373320162296,0.20519816294014454,-2.0332789747580886
1733768666759068400,4.889068359375,0.568026681959629,0.28671675471961494,-2.5541625050097703
1733768666769028400,4.8990283203125,1.3854725075103342,0.13776304157078265,-2.8111171586722135
1733768666778989600,4.908989501953125,2.005133368986845,-0.12586977468132973,-2.5548797133684156
1733768666788949500,4.918949462890625,2.2520865608558056,-0.41935412383973597,-2.0966130905494094
1733768666798909400,4.928909423828125,2.1012007106006143,-1.1725193465292454,-1.3080718724437057
1733768666808870700,4.93887060546875,1.670874672500044,-1.9453344415843485,-0.3288294379796833
1733768666818830600,4.94883056640625,1.3377517020449041,-2.113945041361451,0.6315265827719122
1733768666828791300,4.958791259765625,0.6566983603641391,-1.8417466413378714,1.5679063193261622
1733768666838751700,4.968751708984375,-0.07828925446942449,-1.3049573936849832,2.2633687101095914
1733768666848711700,4.978711669921875,-0.5249025566346943,-0.9535387419521808,2.52752087406069
1733768666858673000,4.9886728515625,-0.43519758965969085,-0.7547855173677206,2.263186631540954
1733768666868632800,4.9986328125,-0.21586349546983838,-0.6335059930860996,1.8602359454914927
1733768666878593800,5.00859375,0.4194371259480715,-1.0014917487382888,1.4857748563453554
1733768666888554000,5.018553955078125,1.2427474596180021,-1.642803447139263,1.244258156441897
1733768666898514000,5.028513916015625,1.5594022564835845,-2.257916289922595,1.395910168763995
1733768666908474600,5.038474609375,1.4712861661352217,-2.503051910975575,1.5483786120355127
1733768666918434800,5.048434814453125,-0.006591068828105926,-1.80575470598042,1.4030468887761234
1733768666928395800,5.058395751953125,0.6970686569362878,-1.3189894261687993,0.6357318524420261
1733768666938355700,5.068355712890625,3.304074863383174,-1.525906667986512,-0.24967311835214495
1733768666948316000,5.07831591796875,2.9896950257122517,-1.3402759598255156,-0.6053412442229688
1733768666958276900,5.08827685546875,2.5090362460821867,-1.62798231010437,-0.32356326107978817
1733768666968236800,5.09823681640625,2.761467284840345,-1.892171591195464,-0.14360460720583795
1733768666978197800,5.10819775390625,3.7451790467381474,-0.754113317194581,-0.08191957379579544
1733768666988157700,5.11815771484375,5.430987522867322,2.625036368656158,-0.26994682170450685
1733768666998117600,5.12811767578125,6.1768497290670865,5.395262714013457,-0.29276275688558817
1733768667008078800,5.138078857421875,5.24290357633531,6.112299223223328,0.2619055540680885
1733768667018038800,5.148038818359375,4.061039478355646,5.266163455891609,0.7827243485204876
1733768667028000000,5.158,3.083257691028714,3.1861364662230014,1.0685235500037669
1733768667037960000,5.1679599609375,2.1338054877378045,0.8929542171299457,1.1585174169227481
1733768667047919900,5.177919921875,1.1565778271622955,0.08914894052743912,0.7237431672416627
1733768667057880800,5.187880859375,0.37294907714799047,0.7014911495536565,-0.10830832596234977
1733768667067840800,5.1978408203125,-0.16084924506060777,0.9119961867302656,-0.7728771274406463
1733768667077801700,5.2078017578125,-0.44841319119408724,0.42331542868614197,-1.1303194964423775
1733768667087762000,5.217761962890625,-0.46171325614154335,-0.06431669708788394,-1.1903989943519233
1733768667097721900,5.227721923828125,-0.13804083559885622,-0.3858341315537691,-1.0700826890792696
1733768667107682800,5.237682861328125,0.14930311110839248,-0.3347375660449266,-0.8436850131787359
1733768667117642800,5.247642822265625,0.15476860997267067,-0.09949205536544323,-0.5114392639495432
1733768667127603700,5.257603759765625,0.16374050952270627,-0.18682371733784675,-0.04775127366892993
1733768667137563600,5.267563720703125,0.2481862407952547,-0.08420096273124217,0.4929594582766294
1733768667147523800,5.27752392578125,0.2945480328671634,0.33334640394747256,1.0668808973632753
1733768667157484800,5.28748486328125,0.384901819139719,0.7192839958757161,1.5371291960075497
1733768667167444700,5.29744482421875,0.4574737188756466,0.8570558052748442,1.8720956023722886
1733768667177406000,5.307406005859375,0.5516911217737943,0.5160381360471248,2.0397917176529763
1733768667187366000,5.317365966796875,0.5528472330063581,0.008683657193183899,2.0017912189520892
1733768667197326800,5.327326904296875,0.45487310792319474,-0.41641280969083305,1.7343984656445681
1733768667207286800,5.337286865234375,0.35671843864135444,-0.5883540151953697,1.4358729074485599
1733768667217246700,5.347246826171875,0.4603471554201096,-0.3918593831926584,1.2212608733445405
1733768667227208000,5.3572080078125,0.6115794079601764,-0.0809977827757597,1.0052171990022063
1733768667237167900,5.36716796875,0.7792869214177132,-0.05757072995901107,0.70624521221295
1733768667247128800,5.37712890625,0.9325239379089325,0.20911913577616215,0.1242399815224111
1733768667257089000,5.387089111328125,0.8781874406307936,0.46491702061891554,-0.5006847918316721
1733768667267049000,5.397049072265625,0.9828787451397627,0.7545259896486998,-0.9789207282289862
1733768667277009700,5.407009765625,1.028140028623864,0.9241676860392093,-1.3422997207380831
1733768667286969900,5.416969970703125,1.0065747510910033,0.693200291070342,-1.6539160850450396
1733768667296930800,5.426930908203125,0.8088964622616768,0.7142401564896106,-1.975714674539864
1733768667306890800,5.436890869140625,0.5507552291631699,0.970439023348689,-2.2124279196843504
1733768667316851000,5.446850830078125,0.42678222801387306,1.0671744734823703,-2.102783011355996
1733768667326812000,5.45681201171875,0.6320709187816829,1.0356050307422875,-1.4790518317006527
1733768667336771800,5.466771728515625,1.0039280359745024,0.9294225378274917,-0.648378568047285
1733768667346732800,5.47673291015625,1.2745441352427005,0.7531675607770681,-0.10926146196871996
1733768667356692700,5.486692626953125,1.4673732304751872,0.8215420088231563,0.3059054393142462
1733768667366652700,5.496652587890625,1.4461001408219336,0.5418552988708019,0.9831459447085856
1733768667376614000,5.50661376953125,0.910031608659029,-0.027043489748239516,1.5715277246937154
1733768667386573800,5.51657373046875,0.2047322624614462,-0.36096214062571524,1.8517178541235624
1733768667396534800,5.52653466796875,-0.08797757692681625,-1.0972820269763468,2.076248494043201
1733768667406495000,5.536494873046875,-0.48010523740053174,-2.1302742448717353,2.1868356516577303
1733768667416455000,5.546454833984375,-1.3350865744888782,-2.8958383458852768,2.1456793192744255
1733768667426415600,5.55641552734375,-2.3497873488903043,-2.459549453857541,1.8625091511204839
1733768667436375800,5.566375732421875,-1.406882229155302,-1.3242787647485732,1.6801342298850417
1733768667446336800,5.576336669921875,-0.48810617302656173,-0.513980618995428,1.9296420746728777
1733768667456296700,5.586296630859375,0.11897007829546928,-0.0346995574593544,2.0761708987623453
1733768667466257000,5.5962568359375,0.7387035666167736,0.5127122064948082,1.7243953964158891
1733768667476217900,5.6062177734375,1.3093746256053447,0.8985831629276275,1.1692394480757415
1733768667486177800,5.616177734375,1.8172832312107086,0.9064028967678547,0.6155122173644602
1733768667496138800,5.626138671875,2.105729586201906,0.7612433152049779,0.11158902813345194
1733768667506098700,5.6360986328125,1.9371382756471633,0.5210299529850483,-0.3495734622575342
1733768667516058600,5.64605859375,1.3639151940882206,0.6144850662738084,-0.6480906910166144
1733768667526019800,5.656019775390625,0.6068406890004873,1.7447884883642195,-0.6140504742488264
1733768667535979800,5.665979736328125,-0.2711194456804544,3.0370903986155984,-0.05522460522428155
1733768667545941000,5.67594091796875,-0.8404746728301048,3.215693984618783,0.794659408725053
1733768667555901000,5.68590087890625,-1.2896961116671561,2.301115380179882,1.5279450419463216
1733768667565860900,5.69586083984375,-3.205827255120873,0.8613912041306495,1.4916753125607967
1733768667575821800,5.70582177734375,-9.3732211735785,-0.5757295114219189,0.8035818431101739
1733768667585781800,5.71578173828125,-6.180738553199172,-0.9157166685581207,0.5727288683012127
1733768667595742700,5.72574267578125,-0.0443242948949337,-0.4323281717032194,0.5948918925315141
1733768667605703000,5.735702880859375,1.326439157652855,-0.14543956754803658,0.3905558993786573
1733768667615662800,5.745662841796875,0.9230174200255423,-0.30780805806517597,0.2290523551277816
1733768667625623800,5.755623779296875,-0.07952420309185981,-0.2643547007858753,-0.1417667242541909
1733768667635584000,5.765583984375,-1.6268272948503493,0.05141220732927322,-0.5262950339064002
1733768667645544700,5.775544677734375,-3.0145483119398353,0.5088777428984642,0.038122956036776304
1733768667655504600,5.785504638671875,-3.330395299553871,1.014869116705656,0.9168218533210456
1733768667665464800,5.79546484375,-2.9442507868766783,1.170244971856475,1.579600994903594
1733768667675425800,5.80542578125,-2.0738971086114644,1.1145827058672904,1.9505656202360986
1733768667685385700,5.8153857421875,-0.7297695879243313,0.7446785493731498,2.3212914683766663
1733768667695347000,5.825346923828125,0.5170554233308882,0.30525311288535595,2.5719039134055373
1733768667705307000,5.835306884765625,1.460375480542332,0.17566168733239174,2.160998030567914
1733768667715266800,5.845266845703125,2.1278398573316633,-0.023917466682195663,1.5010839230276642
1733768667725227800,5.855227783203125,1.9994623376131058,-0.2708428937613964,1.0099237692579626
1733768667735187700,5.865187744140625,1.3523930985987185,-0.4032546374320984,0.6239931915923953
1733768667745149000,5.87514892578125,1.003571916013211,-0.44530864930748937,0.31685660304799673
1733768667755108900,5.88510888671875,0.856892869798094,-0.3352998761028051,0.002778670933097601
1733768667765069800,5.89506982421875,0.8836505283422768,-0.27099662301838395,-0.08257263087704778
1733768667775030000,5.905030029296875,0.9840335411980747,-0.3861608792901039,0.11566080761700868
1733768667784990000,5.914989990234375,0.9940164444215596,-0.6672241382926702,0.3123969932906329
1733768667794950700,5.92495068359375,1.0437272546604275,-0.8332014669567346,0.41758009990453715
1733768667804910800,5.934910888671875,1.1757844858050346,-0.8821323788642883,0.4126607636809349
1733768667814871800,5.944871826171875,1.144532584581524,-0.9522989710241556,0.3768513452835381
1733768667824831700,5.954831787109375,0.9757061500966548,-0.9858154561787843,0.2735170814067125
1733768667834792000,5.9647919921875,0.7448458687640727,-0.863352275070548,0.09096658440865575
1733768667844752600,5.974752685546875,0.6838441414430737,-0.6014128187328577,-0.1878130937013775
1733768667854712600,5.984712646484375,0.6148376791037619,-0.34214345838725563,-0.4175594955079257
1733768667864673500,5.994673583984375,0.44210663839578623,-0.20897358982563016,-0.5781383261293173
1733768667874633500,6.004633544921875,0.17119257909432053,-0.2500724929332733,-0.6958196797885
1733768667884593400,6.014593505859375,-0.08875964894890785,-0.3690180213093757,-0.7380842656746506
1733768667894554600,6.0245546875,-0.24423195021152494,-0.4035188413262367,-0.7681272294998168
1733768667904514600,6.0345146484375,-0.20191008118018508,-0.5766454572230577,-0.773583668274805
1733768667914475500,6.0444755859375,-0.2119885537326336,-0.9288035291463136,-0.7603022349625825
1733768667924435700,6.054435791015625,-0.231558200468868,-1.2146376558125018,-0.8053375276710838
1733768667934395600,6.064395751953125,-0.17873378825411199,-1.289834058833122,-0.9091749187644571
1733768667944356400,6.0743564453125,-0.18657763362228869,-1.1629255887538195,-1.0408367939159273
1733768667954316500,6.084316650390625,-0.1135223342835903,-0.8619418237507342,-1.2260089446544646
1733768667964277500,6.094277587890625,0.11596928904429077,-0.5889636715263128,-1.4082041254088282
1733768667974237400,6.104237548828125,0.45485622985363006,-0.3514215743422508,-1.5441034189343452
1733768667984197600,6.11419775390625,0.2852420059919357,-0.7272878541111946,-1.337949854965508
1733768667994158600,6.12415869140625,0.05303133296370506,-1.2039409052312373,-1.1145654624715446
1733768668004118500,6.134118408203125,0.4746329434692859,-0.31783728464841843,-1.422583656156063
1733768668014079500,6.14407958984375,0.5110876740328967,0.07404489489793777,-1.5191253372833131
1733768668024039400,6.154039306640625,0.32558278420865533,0.07101356437802314,-1.4576789349347352
1733768668033999400,6.163999267578125,0.24874621276557443,-0.6367115111291408,-1.3669994238391519
1733768668043960600,6.173960693359375,0.020009937849640846,-1.9744915624856947,-0.9906585122957825
1733768668053920500,6.18392041015625,0.11279051287770271,-2.978520720747113,-0.8989517039790749
1733768668063881700,6.1938818359375,0.08842749438509344,-3.410007180929184,-0.9100313894633203
1733768668073841700,6.203841552734375,0.34456630162000657,-3.238853326410055,-1.2014438277184962
1733768668083801600,6.213801513671875,0.10501432591825723,-2.9022417831867933,-1.697256337338686
1733768668093762600,6.223762451171875,-0.9297722280479968,-2.724641236746311,-2.155068786649406
1733768668103722500,6.233722412109375,-4.270068013238906,-1.7290736173599957,-2.3661542540624736
1733768668113683500,6.243683349609375,-7.783298252755403,0.990239702361822,-2.559355397477746
1733768668123643600,6.2536435546875,-5.29486348067522,3.6406326305925845,-2.798147494722903
1733768668133603600,6.263603515625,-1.0267429482422767,5.617736421403288,-3.260854438076913
1733768668143564500,6.273564453125,1.3256278412699698,6.752581578576565,-3.653962944547832
1733768668153524700,6.283524658203125,2.6922189765691757,5.8728410632848735,-3.1831840461581944
1733768668163485400,6.2934853515625,3.9525755965054032,3.071967650729418,-2.3715794939815997
1733768668173445400,6.3034453125,4.143948063188791,-0.2836947765499353,-1.6346797619163989
1733768668183405600,6.313405517578125,3.8638732307016848,-1.715088931149244,-0.9807280699118971
1733768668193366500,6.323366455078125,4.042434146606922,-1.674904220277071,-0.41490408562831577
1733768668203326500,6.333326416015625,4.249188891339302,-1.3810603901565075,0.219972319028154
1733768668213287700,6.34328759765625,4.303690296855569,-1.0397925455600023,1.0182684768203645
1733768668223247600,6.35324755859375,4.171405394434928,-0.5971183364093303,2.0085060602903364
1733768668233208300,6.363208251953125,3.936958340656757,-0.04082476234138012,2.997918371917307
1733768668243168500,6.37316845703125,3.7117806350052356,0.5595499455153942,3.648207449761033
1733768668253128400,6.38312841796875,3.1960335908591744,0.96245503885746,3.9500758886441587
1733768668263089400,6.39308935546875,2.3945921207785603,1.1238438706874847,4.367995888027549
1733768668273049600,6.403049560546875,1.714057834535837,1.0229916328847408,4.4858442688167095
1733768668283010600,6.413010498046875,1.0999773304749279,0.7400731014043093,3.8870463087573643
1733768668292970500,6.422970458984375,0.6150392660904676,0.3003296850085258,2.8166131257399916
1733768668302930700,6.4329306640625,0.2877274661321193,-0.12786357884705066,1.7720172715514897
1733768668312891400,6.442891357421875,0.151442680420354,-0.17663140914738176,0.870268118873611
1733768668322851300,6.452851318359375,0.1678595622140914,0.139660984146595,0.22023886100985107
1733768668332812500,6.4628125,0.29076581091471015,0.5032347685754299,-0.3247762901313603
1733768668342772500,6.4727724609375,0.43725393766760823,0.7133247952103614,-0.8223454341605305
1733768668352732400,6.482732421875,0.37399818434212356,0.5908627831459045,-1.1547503925394267
1733768668362693600,6.492693603515625,0.1568365753531456,0.1636813266813755,-1.3320324476152658
1733768668372653600,6.502653564453125,0.029374581310618667,-0.4196124825149774,-1.1443380118574946
1733768668382614500,6.512614501953125,-0.25123684227121995,-0.875051480692625,-0.7273061204202472
1733768668392574500,6.522574462890625,-0.60028936766088,-0.8438093702107667,-0.3582002746969461
1733768668402534400,6.532534423828125,-0.713808779335022,-0.6489467233240604,0.038520869313180446
1733768668412495600,6.54249560546875,-0.76271280323565,-0.5241045381247997,0.3049211044520139
1733768668422455600,6.55245556640625,-0.7908838357090949,-0.46910804256796834,0.1985159086972475
1733768668432416500,6.56241650390625,-0.9919020826160907,-0.2490086630940437,-0.028357275760546325
1733768668442376700,6.572376708984375,-1.3029460538625717,-0.04635258585214615,-0.42368338521569965
1733768668452336600,6.582336669921875,-1.57697459192276,0.09490648114085197,-0.9883964856479316
1733768668462297300,6.59229736328125,-1.6850269703626632,0.17576339414119718,-1.4870163808390497
1733768668472257500,6.602257568359375,-1.7260452094495295,0.1259095221698284,-1.796386865915358
1733768668482218500,6.612218505859375,-1.8323802625775336,-0.005364741903543472,-1.9594906849697231
1733768668492178400,6.622178466796875,-1.9570693030416964,-0.11945873859524726,-1.8907175929948687
1733768668502138600,6.632138671875,-1.9063316339731216,-0.2417600071400404,-1.4715487625941632
1733768668512099600,6.642099609375,-1.5802432383298872,-0.4173614887177944,-0.9199090787466615
1733768668522059500,6.6520595703125,-1.178172842246294,-0.594034398919344,-0.30681203276515007
1733768668532020500,6.6620205078125,-0.8496130880534648,-0.584507861161232,0.30026787181869147
1733768668541980400,6.67198046875,-0.4122212397525087,-0.5378893178492784,0.7572779917705804
1733768668551940400,6.6819404296875,0.14417816931009292,-0.4487871390730142,0.9750985395923256
1733768668561901600,6.691901611328125,0.5691279211997986,-0.338133053702116,1.0884376262634992
1733768668571861500,6.701861572265625,0.9384604152858257,-0.38109541259408,1.2352654332995414
1733768668581822700,6.71182275390625,1.5792647486865519,-0.373456296017766,1.3351026488408446
1733768668591782700,6.72178271484375,1.6868436643958091,-0.07229308279454708,1.2347165672451257
1733768668601742600,6.73174267578125,1.4686311215817927,0.12568974193930627,1.0737569206126034
1733768668611703600,6.74170361328125,0.9759176739554851,0.28863574008345605,0.9940695628482847
1733768668621663500,6.75166357421875,0.2987549830377102,0.6556091038227081,1.0333142894566059
1733768668631624400,6.76162451171875,-0.3755903854370117,1.239136137253046,1.22291243994385
1733768668641584600,6.771584716796875,-1.0048166553772986,1.9752648849457501,1.4452821024373173
1733768668651545600,6.781545654296875,-1.4170646004736422,2.6017420023083684,1.7036793561235068
1733768668661505500,6.791505615234375,-1.8629495883643625,3.179952809152007,1.907764881646633
1733768668671465700,6.8014658203125,-2.846974361734092,3.448772672653198,1.8365768374845384
1733768668681426400,6.811426513671875,-4.136307193046808,3.2326322599381205,1.3703227230429649
1733768668691386400,6.821386474609375,-7.396606627589464,3.1077181785464285,0.21229089768007398
1733768668701347600,6.83134765625,-28.19544210755825,3.899330328530073,-2.441265024626255
1733768668711307500,6.8413076171875,-14.108804757851361,3.005415741935372,-3.7226682319834827
1733768668721267500,6.851267333984375,1.056568908315897,3.262745658650994,-4.226892888379097
1733768668731228700,6.861228759765625,2.640491127419472,2.4270500367909666,-5.750269745627046
1733768668741188600,6.871188720703125,1.0552432126700877,0.0910007058739662,-5.891349364399909
1733768668751149600,6.881149658203125,-2.331992164480686,-0.6225275029540062,-5.4540510030686855
1733768668761109500,6.891109619140625,-2.3536212279647586,0.06897007585167884,-4.956473237341642
1733768668771069400,6.9010693359375,0.21736268451903015,0.8438152154296636,-4.378489809513092
1733768668781030400,6.911030517578125,2.0599393104076382,1.7757658104300498,-3.42471082906425
1733768668790990600,6.920990478515625,2.6307003857672213,2.246229943782091,-1.9212182374596594
1733768668800951600,6.93095166015625,2.791520185537636,2.5029969659179447,-0.3399666988700628
1733768668810911500,6.940911376953125,3.8533401462495327,2.9967747548401356,0.48419513706266876
1733768668820871700,6.95087158203125,4.93635399389863,2.1325410207599402,0.5266435550831258
1733768668830832400,6.960832275390625,5.217118562215567,0.49979427273273463,0.9241875597834587
1733768668840792300,6.970792236328125,5.1943105180799956,-0.960116366776824,1.5026815674826501
1733768668850753500,6.98075341796875,4.974599845662713,-1.639866224643588,2.123058760534972
1733768668860713500,6.99071337890625,4.129796203717589,-1.7429209409266708,2.6327885902181265
1733768668870673400,7.00067333984375,2.5247768360495564,-1.5952923389017581,3.060594316060841
1733768668880634600,7.010634521484375,0.4655155710339546,-0.9168518100678921,3.0168788007140157
1733768668890594600,7.020594482421875,-0.3226993377268314,-0.33628362644314763,2.637814017164707
1733768668900555300,7.03055517578125,0.8741554086357355,-0.32725977751016616,2.281177046261728
1733768668910515500,7.040515380859375,2.2274761434733867,-0.4272667966604233,1.9237562315046786
1733768668920475400,7.050475341796875,2.7423712469652295,-0.6626268736302853,1.8000998950891196
1733768668930436400,7.060436279296875,2.7264006476342675,-0.8852034568727016,1.7498560008868573
1733768668940396500,7.070396484375,2.735831323802471,-0.8744675433248281,1.7374480624735353
1733768668950357500,7.080357421875,2.7480329259887335,-0.7164683539330959,1.6635105734728275
1733768668960317400,7.0903173828125,2.7065035225093363,-0.7391255914211273,1.4180010045409202
1733768668970277600,7.100277587890625,2.665319279205799,-0.9102852911591529,0.936352337090671
1733768668980238300,7.11023828125,2.769548884487152,-1.1737035878777504,0.3556146421179175
1733768668990198300,7.1201982421875,2.9124913745224474,-1.530748262798786,-0.0873389684960246
1733768669000159500,7.130159423828125,2.9987422555208205,-1.7807944522470234,-0.417404670272395
1733768669010119400,7.140119384765625,2.97538388402611,-1.8513778085142374,-0.7007826359581202
1733768669020079400,7.150079345703125,2.7979139782279727,-1.842864831712842,-0.9239337311528623
1733768669030040600,7.16004052734375,2.382792961913347,-1.8295500075876712,-0.9625298576593398
1733768669040000500,7.17000048828125,2.034521960556507,-1.7448820118665693,-0.9346084160327911
1733768669049961500,7.17996142578125,1.7933320083893836,-1.6087638148933647,-0.9003910160671919
1733768669059921400,7.18992138671875,1.6260658089585602,-1.4789976172953843,-0.929142259581387
1733768669069881300,7.19988134765625,1.3578304673470556,-1.378980076751113,-1.0003931398466228
1733768669079842600,7.209842529296875,1.0101667842335997,-1.2605869215607641,-1.137649985460937
1733768669089802500,7.219802490234375,0.6309471023835241,-1.1992021862715483,-1.2960329134732484
1733768669099763500,7.229763427734375,0.2753701619274914,-1.1713105552613734,-1.5490794537812471
1733768669109723600,7.2397236328125,-0.21529811667203902,-1.0717542024880646,-1.8145646199017762
1733768669119683600,7.24968359375,-0.864225989165157,-1.0038701683074236,-2.0557114635795353
1733768669129644300,7.259644287109375,-1.3897250503882765,-1.0491618469297885,-2.362675472036004
1733768669139604500,7.2696044921875,-1.8436638731360435,-0.974624200078845,-2.4488369211852548
1733768669149565400,7.2795654296875,-3.2137922426506873,-0.4491057035028934,-1.8412445370346306
1733768669159525400,7.289525390625,-4.189467120826244,-0.10444880098998546,-0.5423182402074337
1733768669169486600,7.299486572265625,-4.130674740117788,0.43009938973784445,0.6366326006740332
1733768669179446500,7.309446533203125,-4.0058050823897124,1.3159119184195995,1.152909513913095
1733768669189406500,7.319406494140625,-3.7116836043715473,1.8716256467729806,0.9460174065366387
1733768669199367400,7.329367431640625,-3.4523172133922575,1.710365409758687,0.422011652611196
1733768669209327400,7.339327392578125,-3.3519127193570135,1.045125138759613,-0.23144728744029996
1733768669219288300,7.349288330078125,-2.909006455016136,0.2148842751741409,-1.0360825851261615
1733768669229248500,7.35924853515625,-2.3733371513038874,-0.6602537147581576,-1.6674562423586845
1733768669239208400,7.36920849609375,-2.1303145768821237,-1.368034319844842,-2.044404179884493
1733768669249169400,7.37916943359375,-1.879668667975068,-1.771451454362273,-2.382375321023166
1733768669259129600,7.389129638671875,-1.3836433923870324,-2.0940251198828217,-2.5615444319546223
1733768669269089500,7.399089599609375,-0.4921136551022529,-2.5627169828653336,-2.656948633484542
1733768669279050200,7.40905029296875,0.37135508595481515,-3.01672156432569,-2.8660931959629057
1733768669289010400,7.419010498046875,1.2073743868112563,-2.9787001689672468,-3.237833043451607
1733768669298971400,7.428971435546875,1.9799936670333147,-0.8084311828374863,-3.921910993650555
1733768669308931300,7.438931396484375,0.6173457164019346,3.188648741304874,-4.383806620621681
1733768669318892500,7.448892578125,-2.792303737130761,6.089103641074895,-2.8508786756962534
1733768669328852500,7.4588525390625,-4.182982434982061,7.033958725833893,-0.6305974121630191
1733768669338812400,7.4688125,-0.042312224420160055,6.396670291599631,-1.461980139259994
1733768669348773400,7.4787734375,1.8591842444814741,4.825241058844328,-2.724358035890758
1733768669358733300,7.4887333984375,1.8554421353437005,2.3956144495636225,-2.6139135016173123
1733768669368694500,7.498694580078125,2.105914295119047,-0.14303601353764533,-2.670556303076446
1733768669378654500,7.508654541015625,2.4656384183824063,-2.5272242292016744,-2.8546234151825307
1733768669388614400,7.518614501953125,3.012626403966546,-4.100425147804618,-2.8489819021642204
1733768669398575600,7.52857568359375,3.9217520036965605,-4.235556671828031,-2.4578385582864284
1733768669408535600,7.53853564453125,4.778925882393121,-3.861885271754861,-1.7348609685897827
1733768669418496300,7.548496337890625,5.133948111575841,-3.3426673366278408,-1.124386014740169
1733768669428456400,7.55845654296875,5.228992539882659,-2.3308254587888717,-0.5989139145892113
1733768669438416400,7.56841650390625,4.753530744373798,-0.9281757526367902,-0.05052165169771761
1733768669448377300,7.57837744140625,3.6309178767859933,0.3005219927102327,0.9790762841168791
1733768669458337500,7.588337646484375,2.7879309288740157,1.049927570605278,2.379386952862143
1733768669468298500,7.598298583984375,2.4740783299475906,1.8263456585884092,3.47690249633342
1733768669478258400,7.608258544921875,2.6390637249648567,2.1468319964408873,4.165473666298389
1733768669488218600,7.618218505859375,2.2428211582519113,1.8649176735669373,4.488150207671523
1733768669498179300,7.628179443359375,1.4573130242317913,1.5924369494706392,3.9828149596855043
1733768669508139300,7.63813916015625,1.0009617335148155,1.6812568041741847,3.0561335372596976
1733768669518100500,7.6481005859375,0.5892157465912401,1.859188774526119,2.2453556451655925
1733768669528060400,7.658060302734375,0.3432599682617932,1.4356488894343375,1.5657964875653385
1733768669538020400,7.668020263671875,0.165685725306347,0.6495534570455551,0.913185761841014
1733768669547981600,7.677981689453125,0.019115107901766897,0.08641922330260277,0.30690679837651547
1733768669557941500,7.68794140625,0.0278197348177433,-0.2923018613755703,-0.19390636907517908
1733768669567902500,7.69790234375,0.07919161013662815,-0.5697124430894851,-0.5902025656715035
1733768669577862400,7.7078623046875,0.021623729721829296,-0.7107049681007862,-0.8593138863999396
1733768669587822300,7.717822265625,-0.09825809312369674,-0.647114247199893,-0.9812099351447076
1733768669597783600,7.727783447265625,-0.21415475532319395,-0.4322480922043323,-0.9762008748110383
1733768669607743500,7.737743408203125,-0.35053368559181686,-0.20613924318253993,-0.8142226257205009
1733768669617704400,7.747704345703125,-0.40716801148355003,-0.07288812607824802,-0.5420826778858899
1733768669627664600,7.75766455078125,-0.41401689099762584,-0.04316343442201614,-0.27244806393571197
1733768669637624600,7.76762451171875,-0.34133272652626034,-0.0938549262613058,-0.06488857869170606
1733768669647585300,7.777585205078125,-0.3993587990373373,-0.2543821728259325,0.04719174009002745
1733768669657545500,7.78754541015625,-0.5078156666249036,-0.3563660450071096,-0.012430807832255959
1733768669667506400,7.79750634765625,-0.6443629026651382,-0.2531096686720848,-0.25867957775890826
1733768669677466400,7.80746630859375,-0.8409025428533553,-0.19485680166780947,-0.49330586056150494
1733768669687426600,7.817426513671875,-1.038690721797943,-0.13338205000758172,-0.46175307669527826
1733768669697387500,7.827387451171875,-1.290889705365896,-0.23566870452761648,0.020141236079111693
1733768669707347500,7.837347412109375,-1.5476187335789202,-0.38599896672666073,0.585770793769136
1733768669717308400,7.847308349609375,-1.7246704139649867,-0.3954425023764372,0.9061246643483638
1733768669727268400,7.857268310546875,-1.47995681771636,-0.24538579642176628,1.144409177397564
1733768669737228300,7.867228271484375,-1.1542530374765396,-0.1999836431622505,1.4959370616585015
1733768669747189500,7.877189453125,-0.8731646440327167,-0.344276378762722,1.6389675222381948
1733768669757149400,7.8871494140625,-0.62891749625206,-0.2695300575971603,1.621758905544877
1733768669767110400,7.8971103515625,-0.17419223583433777,-0.06187573367655277,1.412553552789986
1733768669777070600,7.907070556640625,0.17761746104266493,0.058097968703508376,1.1449992522452026
1733768669787030500,7.917030517578125,0.48136776814963667,-0.07677344307899475,0.9057301851380616
1733768669796991200,7.9269912109375,0.7555132471203804,-0.2157172188669443,0.6763559045795351
1733768669806951400,7.936951416015625,0.9735340667545795,-0.2630436181873083,0.5307704988200217
1733768669816912400,7.946912353515625,1.0795943945944309,-0.2813034974992275,0.2993024608526379
1733768669826872300,7.956872314453125,1.2905483445823192,-0.276496389478445,-0.04263436904661357
1733768669836832500,7.96683251953125,1.476015971136093,-0.23367899201512335,-0.22863924428224564
1733768669846794200,7.976794189453125,1.3792296675980091,-0.12507540943324566,-0.3148836955398321
1733768669856754200,7.986754150390625,1.1294704053323714,-0.026736031234264372,-0.44576070392392575
1733768669866715100,7.996715087890625,0.8608324012041091,0.18638240331113337,-0.521393744796142
1733768669876675000,8.006675048828125,0.667269146478176,0.2749713718682527,-0.607385390336439
1733768669886635000,8.016635009765626,0.4428430629115551,0.14460077863633633,-0.5188414299648255
1733768669896596200,8.02659619140625,0.06242693781852722,0.07946341281533241,-0.1975783355861902
1733768669906556200,8.03655615234375,-0.3544272589642554,0.007007832935452461,-0.0795679691683501
1733768669916517400,8.046517333984376,-0.8592716546934097,-0.07977262489497661,-0.16283998048640785
1733768669926477300,8.056477294921875,-1.3419254805982113,0.04023264166712761,0.00843611217290163
1733768669936438000,8.06643798828125,-1.7339632890976964,0.3915466639816761,0.4985648040030151
1733768669946398200,8.076398193359376,-2.0921474894426764,0.9241226778537034,0.9707168173767625
1733768669956358100,8.086358154296875,-2.418557372125238,1.9112720129847525,1.4411099313192068
1733768669966319000,8.096319091796875,-2.63594354711771,3.280605140468478,1.9835972444832324
1733768669976279300,8.106279296875,-2.949378212893009,5.011210789701343,2.5569860379979015
1733768669986239200,8.1162392578125,-3.5996284200310704,6.78399670753777,2.891222084261477
1733768669996200200,8.1262001953125,-4.7129450514853,7.418498725923896,2.6441578332334754
1733768670006160400,8.136160400390626,-11.07910622305274,5.891375083363056,1.6870654904529452
1733768670016121000,8.14612109375,-17.068135040438175,2.7954420351564884,0.24243746801018715
1733768670026081000,8.1560810546875,-7.704000844156742,0.6868880391836166,-0.5962846620641649
1733768670036042200,8.166042236328124,-2.918122658407688,0.3017816373825073,-1.6573253089666367
1733768670046002200,8.176002197265625,-1.3301380121707915,-0.17463526689410208,-2.3842902147337792
1733768670055962000,8.185962158203125,-0.2106628215542063,-0.8976023351967334,-2.8727199206262823
1733768670065923300,8.19592333984375,0.7482979089140892,-1.0247896222174167,-3.5995740594953296
1733768670075883300,8.20588330078125,1.1622001970887184,-0.8637631939589977,-4.029925962689519
1733768670085844200,8.21584423828125,1.5067460404425859,-0.2141355026334524,-3.986616397795081
1733768670095804200,8.22580419921875,1.9211153616070746,0.2467097385019064,-3.5316169600784777
1733768670105764000,8.23576416015625,2.1967583491265774,0.6550526389837265,-3.229246124631166
1733768670115725300,8.245725341796875,2.1489023729741574,0.9061807784497737,-3.069946958556771
1733768670125685200,8.255685302734374,2.110481749165058,0.9089823918670416,-3.0362863887563347
1733768670135646200,8.265646240234375,2.088271086400747,0.809805978322029,-2.9893200549200176
1733768670145606400,8.2756064453125,2.177118998154998,0.5041477917671203,-2.7578464639946816
1733768670155566300,8.28556640625,2.204705508738756,0.0875461815059185,-2.244738536180556
1733768670165527000,8.295527099609375,2.279755781286955,-0.3907259952485561,-1.8036771690540014
1733768670175487000,8.305487060546875,2.693940978056192,-0.6134200673907995,-1.302906306374073
1733768670185448200,8.3154482421875,3.0962206329762934,-0.8261433651387691,-0.8022466489836573
1733768670195408100,8.325408203125,3.1155192076861855,-1.1376713205099105,-0.2590951728224754
1733768670205368000,8.3353681640625,2.981275572413206,-1.4383178163826464,0.16589797981753945
1733768670215329300,8.345329345703124,2.699040347021818,-1.4558184017598628,0.41523192934319375
1733768670225289200,8.355289306640625,2.0233330425441265,-1.255329731684923,0.4023360612824559
1733768670235249200,8.365249267578125,1.264594257505983,-1.0215250674635172,0.2016970229513943
1733768670245210000,8.375210205078124,0.45879283865019677,-0.9296411490142344,-0.05631181593909859
1733768670255170000,8.385170166015625,-0.4315799836844206,-0.8228115903675556,-0.3821311853826046
1733768670265131300,8.39513134765625,-1.0955417591802776,-0.5361410128772258,-0.7180777618911117
1733768670275091200,8.40509130859375,-1.0448135885924101,-0.23682196621596813,-0.6617287557467818
1733768670285052200,8.41505224609375,-0.18646116763576864,-0.5243763408035039,-0.4652594773810357
1733768670295012400,8.425012451171876,1.512744550205022,-0.8474041798323393,-0.2707986892934888
1733768670304972300,8.43497216796875,2.8744027591466903,-1.136283081021905,-0.15234562060944734
1733768670314933000,8.44493310546875,3.281258051419258,-1.4694816009312868,-0.1066734913021326
1733768670324893200,8.45489306640625,3.0130852536499497,-1.6496879459559917,-0.15353490345925092
1733768670334853000,8.46485302734375,2.4566858811199666,-1.7473679834634064,-0.2623971369773149
1733768670344814000,8.47481396484375,1.7312147210419178,-1.8457319115817545,-0.4815794016063213
1733768670354774300,8.484774169921875,0.9926783276855945,-1.9143343231648207,-0.7087962118700146
1733768670364735200,8.4947353515625,0.4832517187327146,-1.9592191745519636,-0.8239870638877153
1733768670374695200,8.504695068359375,0.13327099084854124,-1.992432877367735,-0.808714968214929
1733768670384655400,8.5146552734375,-0.06705459761917591,-1.982499512374401,-0.79960256421566
1733768670394616000,8.524615966796874,-0.2690742766536772,-1.8778209942817687,-0.7670958406254649
1733768670404576000,8.534575927734375,-0.5202274044305086,-1.6594529686450958,-0.7371706579610705
1733768670414537200,8.544537109375,-0.7125051493905484,-1.414509655293822,-0.7154924946382641
1733768670424497200,8.5544970703125,-0.693641458966583,-1.1727853039890528,-0.6505255169481039
1733768670434457000,8.56445703125,-0.6210930862367153,-0.9590858546853065,-0.46901627263128753
1733768670444418300,8.574418212890626,-0.5773720179319382,-0.7614116575092077,-0.23365385757386684
1733768670454378200,8.584378173828124,-0.6996504901230335,-0.6057505556762218,0.05453530778586864
1733768670464339200,8.594339111328125,-1.134851733044535,-0.5631494313120842,0.4880392452701926
1733768670474299100,8.604299072265626,-1.6239444328904151,-0.36474691986143587,0.9054013185098767
1733768670484259000,8.614259033203124,-2.060360896820575,-0.2540951725780964,1.2628724021494389
1733768670494220300,8.62422021484375,-2.471671853327751,-0.41162148376107216,1.634556427797675
1733768670504180200,8.63418017578125,-2.7611814536362886,-0.46651510346531866,1.757574320179224
1733768670514141200,8.64414111328125,-3.0024691670894623,-0.5300345126956701,1.6228057842493055
1733768670524101400,8.654101318359375,-3.260741333091259,-0.7233288873523473,1.2897218306303024
1733768670534061300,8.664061279296876,-3.472120815014839,-0.786708011329174,0.809317318022251
1733768670544022000,8.67402197265625,-3.1477684493839737,-0.9522674068421125,0.2657163445279002
1733768670553982200,8.683982177734375,-2.28287946626544,-1.2947463807940482,-0.1901847182035446
1733768670563943200,8.693943115234376,-1.5672316349349915,-1.4156412896722554,-0.6161474465280771
1733768670573903000,8.703903076171875,-1.812072364694625,-1.0485206264168023,-0.9920075888171791
1733768670583863300,8.71386328125,-3.672375676333904,0.04689736025333404,-1.3150886193379758
1733768670593824300,8.72382421875,-6.689181996333598,1.7055910349637269,-1.3132874151349068
1733768670603784200,8.7337841796875,-8.523461955052614,3.3888065719902514,-0.9451879699751734
1733768670613745200,8.7437451171875,-5.731669674575328,4.628854563391208,-0.49408700100183484
1733768670623705000,8.753705078125,-1.7320535099536178,5.262402057531475,-0.9209516466021537
1733768670633665000,8.7636650390625,-1.6276880033329129,5.402212094759941,-2.1513447976902125
1733768670643626200,8.773626220703125,1.0186877982109785,3.9621173318326472,-4.026013465420902
1733768670653586200,8.783586181640626,5.687762728309631,1.3917577252596616,-4.297081400109827
1733768670663547400,8.79354736328125,7.974139973562956,-2.211458490130305,-3.881038885036111
1733768670673507300,8.80350732421875,7.6575424598425625,-5.3101744470536705,-4.137381544280052
1733768670683467300,8.81346728515625,7.526632352906465,-5.519250912731885,-5.118049700698256
1733768670693428200,8.82342822265625,7.138984449928999,-4.999229260006547,-5.606238291311263
1733768670703388200,8.83338818359375,6.1010541911095375,-4.350603439199924,-5.466551588201522
1733768670713349000,8.84334912109375,5.2762160633504385,-2.3420178839325905,-5.0365153268277645
1733768670723309300,8.853309326171875,4.866216627833247,-0.6675614074230194,-4.295904173023999
1733768670733269200,8.863269287109375,4.498422010838985,0.2882885340809822,-3.5455358875766394
1733768670743230200,8.873230224609374,3.8893110388189553,1.0862912618845701,-2.8378686797365544
1733768670753190400,8.8831904296875,3.3275849183082578,1.8150474349826573,-2.321299797813594
1733768670763151000,8.893151123046875,3.1069477786958215,2.2069944964587687,-1.9585162869796156
1733768670773111000,8.903111083984374,2.4305700276106594,2.0661638840109107,-1.4417436991780996
1733768670783071200,8.9130712890625,1.560161404287815,2.4599288085639475,-0.7460550984233617
1733768670793032200,8.9230322265625,1.006476551413536,3.0751836901664733,-0.07624941920489073
1733768670802992000,8.9329921875,0.6520032613504677,3.2678812679737805,0.8719266997355968
1733768670812953300,8.942953369140625,0.2701934899419546,2.8298697899371383,2.0763544386357067
1733768670822913300,8.952913330078125,-0.057059857827425,2.028259393030405,3.105219931989908
1733768670832873200,8.962873291015624,-0.29676410148143767,1.2078694768518208,3.8635435603559016
1733768670842834000,8.972833984375,-0.3566279108136892,0.2842202617287636,4.3066526537925
1733768670852793900,8.9827939453125,-0.4486246054550633,-0.5889782845735549,4.255007806751132
1733768670862755000,8.992755126953124,-0.5588607942074537,-1.0406728355258703,3.572960485596955
1733768670872715000,9.002715087890625,-0.6473252596020698,-0.9707213474214076,2.8646625786378976
1733768670882675000,9.012675048828125,-0.5561655637741089,-0.6163455994486808,2.1208222336545584
1733768670892636200,9.02263623046875,-0.37834582162499425,-0.2900836008042097,1.231105391010642
1733768670902596000,9.03259619140625,-0.45700376327633857,-0.34676235035955905,0.7172420417193323
1733768670912557000,9.04255712890625,-0.37103929800391194,-0.29211949054598807,0.3779761845950037
1733768670922517000,9.05251708984375,-0.2807423564851284,-0.2214724213927984,0.0052080900371074676
1733768670932477000,9.062476806640625,-0.23540917680859563,0.02238309672176838,-0.24890133026205002
1733768670942438100,9.072438232421876,-0.08932663518190384,0.36382863597273823,-0.25844606126397845
1733768670952398000,9.082398193359374,-0.19357843402875585,-0.05234510426521301,0.15449958377294243
1733768670962359000,9.092359130859375,-0.2848316716253757,-0.34380291603207586,0.616462796087563
1733768670972319200,9.1023193359375,-0.3203285169422626,-0.26378654550909997,0.6479062743604183
1733768670982279200,9.112279052734374,-0.3825695767998695,0.04825345103740692,0.5200684144765139
1733768670992239900,9.122239990234375,-0.557535610018298,0.07856558719277382,0.6585962298747152
1733768671002200000,9.132199951171875,-0.7078489210825413,-0.02775777549743652,0.8196010308232158
1733768671012161000,9.1421611328125,-0.8919044158160686,-0.1287806936919689,0.6391326007962227
1733768671022121000,9.152120849609375,-1.0811199967265128,-0.18419278431236744,0.39774318053424357
1733768671032081200,9.1620810546875,-1.2680103495597839,-0.134418407317996,0.2349828411553055
1733768671042042000,9.1720419921875,-1.6456056450784204,-0.046857028242945666,0.00879383956938982
1733768671052002000,9.182001953125,-1.8826503141343593,-0.026092472633719443,-0.16908435476869343
1733768671061963000,9.191962890625,-2.0886999793373047,-0.03370470120310783,-0.28539200892187655
1733768671071923000,9.2019228515625,-2.2721932370781897,-0.12065467038154601,-0.09546586858928204
1733768671081883000,9.2118828125,-2.401388941311836,-0.3508458202809095,0.25256986270695925
1733768671091844000,9.221843994140626,-2.5724784984230995,-0.43375966581106185,0.5029036369249225
1733768671101804000,9.231803955078124,-2.6829180642604826,-0.34237960523068905,0.8293632770333439
1733768671111765200,9.24176513671875,-2.6805437363445757,0.021764088040590285,1.313303781747818
1733768671121725200,9.25172509765625,-2.7408476906597614,0.43687809009253975,1.903067079219222
1733768671131685000,9.26168505859375,-2.9149276617586612,0.9045797729939222,2.286984271235764
1733768671141646000,9.27164599609375,-3.112872492569685,1.5679127490669489,2.5927713448673484
1733768671151606000,9.28160595703125,-3.1727953386127945,2.3687416402071713,2.943701044039428
1733768671161567000,9.29156689453125,-3.49647550407052,3.0029665952175852,3.392089246922731
1733768671171527200,9.301527099609375,-4.201034809023142,4.072045441016555,3.537069380265474
1733768671181487000,9.311487060546876,-6.312609029600024,5.622514887851477,3.302287979966402
1733768671191448000,9.321447998046875,-14.447352822095155,7.0760139067530625,2.6201684703588484
1733768671201408300,9.331408203125,-12.741641960144042,5.658702053520083,0.5798465913519263
1733768671211369000,9.341368896484376,-9.019480216377973,3.4495886652112007,-0.7950726657010614
1733768671221329000,9.351328857421874,-8.358576513278484,2.4954963810294863,-2.243753616796434
1733768671231289000,9.3612890625,-5.869231056094169,2.291100182121992,-3.1678070288062092
1733768671241250000,9.37125,-3.0546459290504453,1.8472300411850213,-3.312545462347567
1733768671251210000,9.3812099609375,-0.2827583724826574,1.4114151964098214,-3.3392665882736443
1733768671261171200,9.391171142578125,2.376626840499043,1.0767729074329138,-3.497971295586228
1733768671271131100,9.401131103515626,3.2360236559420823,0.5263491021811961,-3.5670424937248226
1733768671281091000,9.411091064453124,3.600168518257141,0.6054582947313785,-3.4378730929762122
1733768671291052000,9.421052001953125,3.8714661700487136,1.6039859329670667,-3.342366600115597
1733768671301012000,9.431011962890626,3.891453896066546,2.0895909368276593,-2.8788553546413778
1733768671310973000,9.440972900390625,3.7745489336073397,2.2693869474858044,-1.8154688752651214
1733768671320933000,9.45093310546875,3.794229785633087,1.9370535199731587,-0.5991241232737898
1733768671330893000,9.46089306640625,4.351566146752238,0.973382091063261,0.28956337632238865
1733768671340854000,9.47085400390625,4.659603337398171,0.06630816316604614,0.8666843421027064
1733768671350814200,9.480814208984375,4.490906228381395,-0.8192834162414073,1.4928689062595366
1733768671360775000,9.49077490234375,3.9010166741818186,-1.7918892622351645,2.359794363641739
1733768671370734800,9.50073486328125,1.7319839518487452,-2.3049258783787487,2.214959483988583
1733768671380695000,9.510695068359375,-0.6511205602318048,-1.435155552959442,0.523121080045402
1733768671390656000,9.520656005859376,-1.7269909658670424,-0.66243164331913,-0.8689756679102778
1733768671400616000,9.530615966796875,-0.9464613509118557,-0.19241817634403705,-1.9972212806880474
1733768671410576100,9.540576171875,1.2841320477992295,0.34248832630217074,-3.0477924098938702
1733768671420537000,9.550537109375,2.9464935973674056,0.10151742371320724,-3.540148349319398
1733768671430497000,9.5604970703125,3.5202836651593445,-0.7841904755502939,-3.2014234672039747
1733768671440458000,9.5704580078125,4.2125545664250845,-1.2399965534746646,-2.3015175312399863
1733768671450418000,9.58041796875,4.612307917737961,-1.2025269467800854,-1.5657590781643986
1733768671460379100,9.590379150390625,4.383220929688215,-0.8645394390285015,-1.1972253332406282
1733768671470339000,9.600339111328125,3.8815953498750924,-0.46596682193279265,-1.1309256456419825
1733768671480299000,9.610299072265626,3.1986952112838622,-0.2815565954774618,-1.206651040972769
1733768671490260200,9.62026025390625,2.6579835294902323,-0.0388823961019516,-1.3905050948500632
1733768671500220200,9.63022021484375,2.2886098266109824,0.19243805008828638,-1.7971917525574563
1733768671510180000,9.64018017578125,2.253345621006191,0.07308335638940334,-2.0213225795045493
1733768671520141000,9.65014111328125,2.658586171558499,-0.268346400770545,-2.0667928295642137
1733768671530101000,9.66010107421875,2.833559584365785,-0.7536679115146399,-2.0128665935873986
1733768671540062000,9.67006201171875,2.8633775072634218,-1.4421090253591538,-1.9924609344184399
1733768671550022100,9.680022216796875,3.011496523153782,-2.047134773892164,-1.7007918179884551
1733768671559982000,9.689982177734375,2.8769889762476084,-2.669298704230785,-1.251935413071513
1733768671569943000,9.699943115234374,2.7199016410037875,-2.950686957404017,-1.0253656685397028
1733768671579903200,9.7099033203125,2.7133471047937867,-2.853749847218394,-0.8758744875133037
1733768671589864000,9.719864013671875,2.521578916791081,-2.6210581126749513,-0.6858528509169817
1733768671599824000,9.729823974609374,2.0487229198664427,-2.366642037579417,-0.39004181237667795
1733768671609784000,9.7397841796875,1.4461755441457032,-1.8743115248560904,-0.03974456588923931
1733768671619745000,9.7497451171875,0.7329127082556486,-1.340424428385496,0.3528445928826928
1733768671629705000,9.759705078125,0.20637159063369034,-0.8901999499857425,0.6963713223218917
1733768671639666200,9.769666259765625,-0.05048895500451326,-0.5490244598478079,0.9025506052538752
1733768671649626000,9.779626220703125,-0.21622312256246803,-0.10290040250420569,1.1401736587196587
1733768671659586000,9.7895859375,-0.6113833008661865,0.2716840207606554,0.9414555054485797
1733768671669547000,9.799547119140625,-1.5332877181485294,0.4680734388232231,0.46295156576484436
1733768671679507000,9.8095068359375,-2.6072309551134705,0.24259295083284377,-0.1053053995530121
1733768671689468200,9.81946826171875,-3.4852722652718424,-0.48293256978094573,-0.6591779022201896
1733768671699428000,9.829427978515625,-3.7840816088452933,-1.290337916702032,-1.1988882980167865
1733768671709388000,9.839387939453125,-3.996452147632837,-1.8500790008753536,-1.601530648769438
1733768671719349200,9.849349365234374,-4.0475396530523895,-2.086454976889491,-1.7943492226079105
1733768671729309200,9.85930908203125,-3.485851234203577,-2.1079408325105904,-1.688852373869717
1733768671739270000,9.869269775390626,-2.7104630737900735,-2.124360636913776,-1.5475348546877503
1733768671749230000,9.87922998046875,-2.5541478919625282,-2.074901317217946,-1.5438281091243027
1733768671759190000,9.88918994140625,-0.7475123114943504,-2.6748464014858007,-1.4361381342560051
1733768671769151000,9.89915087890625,2.0658698695003985,-4.158688536202908,-1.0992276080861687
1733768671779111200,9.909111083984374,2.622687175181508,-4.4098909099489445,-0.7181506079316139
1733768671789072100,9.919072021484375,2.4349773226588964,-2.224346028754115,-0.8915782526016235
1733768671799032000,9.929031982421876,3.686342826887965,2.2678069848179816,-0.990754666146636
1733768671808992300,9.9389921875,4.835893385761976,7.40558429929316,-1.0281099988117814
1733768671818953000,9.948952880859375,4.028901003555953,8.415758536180853,-0.5356810306826606
1733768671828913000,9.958912841796876,1.5707885967642068,8.244730353868007,-0.01388327166289091
1733768671838874000,9.9688740234375,-2.8070962325930595,7.691741082042455,2.0200337087377904
1733768671848833300,9.978833251953125,-5.865479010084271,5.772018051576614,1.7241668483570216
1733768671858793200,9.988793212890625,-4.010380719742178,3.0659231098681685,-2.1302032254621386
1733768671868754400,9.99875439453125,-1.16353509895429,0.35586744783520696,-4.132185729202628
1733768671878714400,10.00871435546875,0.9633220309503376,-1.965513306260109,-4.622721759724617
1733768671888675300,10.01867529296875,1.37851888898015,-3.7378140709280965,-4.083288135042786
1733768671898635300,10.02863525390625,1.7125604355849324,-4.496041253182292,-3.47387262711823
1733768671908595200,10.03859521484375,2.3794601642288264,-4.248375236868858,-2.771128262633085
1733768671918556200,10.04855615234375,2.7405045763105154,-2.76599031522274,-2.0446999479606744
1733768671928516400,10.058516357421874,2.742203781443834,-0.7977110513806343,-1.310259884007275
1733768671938477300,10.068477294921875,2.3332021247923374,0.6536246520072221,-0.4731126020342111
1733768671948437200,10.078437255859376,1.8376456357598303,1.4615905554205177,0.3683998894110322
1733768671958397400,10.0883974609375,1.6697348548151552,2.3489736944198607,1.2741297092229127
1733768671968358400,10.0983583984375,2.0285159981399774,2.7498756312459705,2.211716556544602
1733768671978318300,10.108318359375,2.5004092875123023,2.5631881075084206,2.796002299387753
1733768671988279300,10.118279296875,2.339289920273423,1.8264485344409942,3.182000097070634
1733768671998239200,10.1282392578125,1.7115408832788466,0.7008750634819269,3.669589552746713
1733768672008199200,10.13819921875,0.8134872971832752,-0.3160404643595218,4.107057425425946
1733768672018160400,10.148160400390625,0.09314290553443133,-1.1831050379514694,4.3295249953359365
1733768672028120300,10.158120361328125,-0.5599380680501461,-1.4926006107121705,3.9650913792073723
1733768672038081300,10.168081298828126,-1.2473767268538474,-1.1001993757277726,3.201762782160938
1733768672048041200,10.178041259765624,-1.708744530558586,-0.4423702577680349,2.1543325813293457
1733768672058001200,10.188001220703125,-1.8056828097879885,-0.09853694659769534,1.0730769755244254
1733768672067962000,10.197962158203126,-1.7321067014455793,-0.040321488994359965,-0.0026075521498918532
1733768672077922300,10.20792236328125,-1.4763123237341642,0.11091770474314688,-0.8663141205508261
1733768672087883300,10.21788330078125,-1.1523194390654563,0.15971008496284483,-1.3500138022467494
1733768672097843200,10.22784326171875,-0.8405062370121479,0.09305120866298675,-1.5314619640260934
1733768672107803400,10.237803466796874,-0.46174715841114516,0.1316694008708,-1.8074278998896478
1733768672117764400,10.247764404296875,-0.0726297491366975,-0.021613281393051145,-1.869078884899616
1733768672127724300,10.257724365234376,0.11738369502001442,-0.20157997244298456,-1.4745289474487304
1733768672137685200,10.267685302734375,0.25954291658997536,-0.37554479272961616,-0.9951172452703118
1733768672147645200,10.277645263671875,0.3500777585178613,-0.5642541776835918,-0.6763558315142989
1733768672157605000,10.287605224609376,0.3733411452054977,-0.7122802545934915,-0.2390854541685432
1733768672167566300,10.29756640625,0.3759866912782192,-0.7286480365484953,0.1336155665025115
1733768672177526300,10.3075263671875,0.23860417345762253,-0.6137421389520168,0.300959799605608
1733768672187487500,10.317487548828124,0.13086858761562034,-0.40633974396586414,0.09877433555014431
1733768672197447400,10.327447509765625,-0.10855510379765182,-0.26495909641981125,-0.06838957254998386
1733768672207407400,10.337407470703125,-0.6829062760710716,-0.10500351226329803,-0.1740427808936685
1733768672217368300,10.347368408203126,-1.1573077488720416,-0.0731593442350626,-0.20809293453358113
1733768672227328300,10.357328369140625,-1.3832090926229952,-0.26652093890905376,-0.005130640886723995
1733768672237288200,10.3672880859375,-1.5938532460093497,-0.5255085597038269,0.2913777322679758
1733768672247249400,10.37724951171875,-1.8442367045879362,-0.4987924022138118,0.508379657183215
1733768672257209300,10.387209228515625,-1.9624445663392542,-0.21055179892778395,0.5740653776019812
1733768672267170300,10.39717041015625,-2.0330548106133937,0.03264554753899574,0.4097624849561602
1733768672277130200,10.407130126953126,-2.0357763445317745,0.20313246258199213,0.24053112293221054
1733768672287090200,10.417090087890625,-1.909655371568352,0.3846007903665304,0.19498378904834388
1733768672297051100,10.427051025390625,-1.7020470787465571,0.6048334408313035,0.43410869844444094
1733768672307011300,10.43701123046875,-1.6537303532145917,0.6859831992983818,0.9048336016245185
1733768672316972300,10.44697216796875,-1.6702151856780052,0.5671154123336076,1.2267214768379926
1733768672326932200,10.45693212890625,-1.533508375161886,0.2712041282892227,1.425506265604496
1733768672336892400,10.466892333984376,-1.1835891682066022,0.07963233964145183,1.7580026285938917
1733768672346853400,10.476853271484375,-0.7235236062068492,-0.020914777734875677,2.089336377544701
1733768672356813300,10.486813232421875,-0.5472225249923766,0.2187280911207199,2.1878727396205067
1733768672366774300,10.496774169921874,-0.566561723973602,0.9040764996469021,2.214893286884576
1733768672376734200,10.506734130859375,-0.612444646487385,2.156514017021656,2.2721232405819
1733768672386694100,10.516694091796875,-0.8241185813128947,3.572650396734476,2.471718030557036
1733768672396655400,10.5266552734375,-1.0747158287726342,4.903555886146426,2.7340999699652193
1733768672406615300,10.536615234375,-1.4341231411717832,6.169543789967894,2.87205298115015
1733768672416576500,10.546576416015625,-2.3288638033270836,6.584339812111854,2.6298396772846577
1733768672426536400,10.556536376953124,-3.622981238567829,5.339234537321329,1.4927444030970334
1733768672436496400,10.566496337890625,-5.265740262043476,2.965221094191074,-0.7801472645740956
1733768672446457300,10.576457275390625,-8.053101866596936,1.0024480265498161,-3.531547401973605
1733768672456417300,10.586417236328124,-15.881763694167136,-0.21380174063444135,-6.775352797833085
1733768672466378200,10.596378173828125,-12.773702985793351,-0.9592577041208743,-7.209067455458641
1733768672476338400,10.60633837890625,-2.003846251785755,-0.4793126257181167,-5.922405012398958
1733768672486298400,10.61629833984375,1.5889841786682606,-0.4024859911471605,-5.890875317147374
1733768672496259300,10.62625927734375,2.7064170132696628,-0.8133663011521101,-5.515750211134552
1733768672506219300,10.63621923828125,2.4300258377313613,-1.068717611271143,-4.281684216752648
1733768672516180200,10.64618017578125,1.3803566258013247,-0.15387947911322117,-2.754421457982063
1733768672526140200,10.65614013671875,0.7792121026158333,0.8995160598635673,-1.4272091239996254
1733768672536100400,10.666100341796875,0.7269406481087207,1.5480986260503529,-0.5548332922570407
1733768672546061300,10.676061279296874,1.3728677313506603,1.685643056434393,-0.27980624467879534
1733768672556021200,10.686021240234375,2.534806062632799,1.7078671632021665,-0.42115678934752937
1733768672565982500,10.695982421875,3.769234460586309,1.8075304834812878,-1.008474593362957
1733768672575942400,10.7059423828125,4.6637277238518,1.509142580190301,-1.5312683411501347
1733768672585902300,10.71590234375,4.944620886984467,0.8316150745481252,-1.8470479626163838
1733768672595863300,10.72586328125,4.887085812860727,0.24470365937650201,-2.0852004467837513
1733768672605823200,10.7358232421875,4.664903781893849,-0.259631179395318,-2.2427779036320743
1733768672615784200,10.7457841796875,4.068515513324737,-0.7156628827691077,-1.9737039192393422
1733768672625744400,10.755744384765626,3.450826098051667,-1.1509446435809134,-1.2846223155342043
1733768672635704300,10.765704345703124,3.0891631156802175,-1.2335177128493786,-0.5285571336194873
1733768672645665300,10.775665283203125,2.7992548714429137,-1.157756661683321,0.2353063009560108
1733768672655625200,10.785625244140626,2.1590672086358067,-1.1177321098089217,1.1922701950512826
1733768672665586200,10.795586181640624,1.6292689889140426,-1.1589093388497829,2.224378469718993
1733768672675546000,10.805546142578125,1.027288161034882,-0.9346212755143641,3.196585087262094
1733768672685506300,10.81550634765625,1.1892536237090825,-0.8645277485907077,3.5258734479904175
1733768672695467300,10.82546728515625,2.0203835450887677,-0.8704138840198516,3.0744729115486145
1733768672705427200,10.83542724609375,2.614689746686816,-1.1346031651109456,2.2240658966384825
1733768672715388400,10.845388427734376,2.7625241004168988,-1.7721873674213886,1.2753867235466838
1733768672725348400,10.855348388671874,2.783828754252195,-2.2700100478202105,0.41569647811502214
1733768672735308300,10.865308349609375,2.634789116385579,-2.558074125495553,-0.32773440928459163
1733768672745269200,10.875269287109376,2.274028781942278,-2.7156974673122165,-0.9908798268962651
1733768672755229200,10.885229248046874,1.8824916164413092,-2.7239807270109653,-1.5618113634519277
1733768672765190400,10.8951904296875,1.4521670396454631,-2.6648803032666444,-1.9624889900028704
1733768672775150300,10.905150390625,1.0267126992344855,-2.5921336314857006,-1.9742659370362758
1733768672785110300,10.9151103515625,0.80501114526093,-2.478120883336663,-1.5614676645807921
1733768672795071500,10.925071533203125,0.6518517971158028,-2.1659593062371014,-0.9431886128515005
1733768672805031400,10.935031494140626,0.3980952088423073,-1.8746230750232933,-0.18907785294018684
1733768672814991400,10.944991455078124,0.08045315450504421,-1.500647139045596,0.4100180671524256
1733768672824952300,10.954952392578125,-0.31312472304329275,-1.011228714376688,0.8617947434302419
1733768672834912300,10.964912353515626,-0.8285157933585345,-0.6452911234259605,1.1302739768002181
1733768672844874200,10.974874267578125,-1.4999492199093103,-0.3352151204288006,1.2002017187029124
1733768672854834200,10.984834228515625,-2.4223694777593017,0.0009369885891675948,1.031187433495745
1733768672864794400,10.99479443359375,-3.680591423754394,0.28803368253707884,0.6480578847255557
1733768672874755000,11.004755126953125,-5.082000482195616,0.6063900226235389,-0.00029233401007950304
1733768672884715000,11.014715087890625,-6.8438786370486016,1.0081845243752001,-0.9913343657307326
1733768672894676200,11.02467626953125,-7.939449768453836,0.9953776497721671,-1.933594465560466
1733768672904636200,11.03463623046875,-6.851373961240053,0.26066636766195295,-2.235129580835998
1733768672914596000,11.04459619140625,-5.03764286955297,-0.5328513236820698,-1.9194735857494174
1733768672924557300,11.054557373046874,-3.3765538241386412,-0.9155839820891618,-1.5094976772382855
1733768672934517200,11.064517333984375,-2.0805343546688557,-1.1454495532959699,-1.0915881992489098
1733768672944478200,11.074478271484375,-1.4806833784252404,-1.4278724102139473,-0.6565554447621107
1733768672954438100,11.084438232421874,-1.2854209185659884,-1.696120026785135,-0.41022681453227994
1733768672964398000,11.094398193359375,-2.637303729555011,-1.2699100457012653,-0.3915770225873217
1733768672974359300,11.104359375,-4.838325581344962,0.5243161350488662,-0.1717547430217266
1733768672984319200,11.1143193359375,-0.7568854122564196,2.2440391557395456,-0.2603344322938472
1733768672994280200,11.1242802734375,2.2499079016424712,4.393156048247218,-0.42532264032270756
1733768673004240400,11.134240478515625,4.480298325127363,5.627810656172037,-0.8983268500789999
1733768673014200300,11.144200439453124,4.949865217378735,4.732954404813051,-1.8697706665560603
1733768673024161000,11.1541611328125,4.932195705175399,2.1555489713817835,-2.8358339590385553
1733768673034121200,11.164121337890625,5.439947658914328,-0.2873901239365339,-4.098373475971818
1733768673044082200,11.174082275390624,5.5388803268313405,-1.8010411214619875,-5.278689175465702
1733768673054042000,11.1840419921875,5.587563401457667,-2.5801491791814564,-5.8703732118666165
1733768673064002300,11.194002197265625,5.460371438261866,-2.207963633751869,-6.271811739787459
1733768673073963300,11.20396337890625,5.473034520480036,-1.3413351134896279,-6.135242291915416
1733768673083923200,11.213923095703125,5.1243040849179025,-0.9185200355410575,-4.993877962106466
1733768673093884200,11.22388427734375,4.4360050098925825,-0.8678355579644441,-3.4944749779030677
1733768673103844000,11.233843994140624,3.684067867693305,-0.8395470365911721,-2.2359321293905374
1733768673113804000,11.243803955078125,3.1221143681675194,-0.6360661989629268,-1.453709592912346
1733768673123765200,11.25376513671875,2.4881319897413254,-0.20337270107865332,-0.7027263904370367
1733768673133725200,11.26372509765625,1.7386318654306232,0.08157002970576285,0.10555113620869815
1733768673143686100,11.27368603515625,1.2811246826767921,0.5004682264715433,0.6601271657690405
1733768673153646300,11.283646240234376,1.0401590407848358,1.2217471955567598,1.2657508801952004
1733768673163606300,11.293606201171874,0.778718839206174,1.8072978437691927,2.002104668815434
1733768673173567000,11.30356689453125,0.716108288449049,2.2676807280898093,2.9389944737836715
1733768673183527200,11.313527099609376,0.39821605874300003,2.4387603483289477,3.957307885724306
1733768673193487000,11.323487060546874,-0.11281385722067207,2.092104380953312,4.742462822392582
1733768673203448000,11.333447998046875,-0.6755424693048,1.3411118261277675,5.182902404358983
1733768673213408300,11.343408203125,-1.194366436678171,0.685833561694622,5.216811103701591
1733768673223369200,11.353369140625,-1.6579226903378963,0.13287936118245125,4.802378069651127
1733768673233329200,11.3633291015625,-1.9978256763219833,-0.3592196808725595,4.324584616324305
1733768673243289300,11.373289306640626,-2.1503099016845226,-0.4067039011031389,3.6864819430977103
1733768673253250000,11.38325,-2.1232395239293576,-0.13002455627322196,3.01536021284461
1733768673263210000,11.3932099609375,-2.0115724621236324,0.0844610749721527,2.4702286687821147
1733768673273171200,11.403171142578126,-1.8310826239824294,0.1577940222084522,2.0050611805334686
1733768673283131100,11.413131103515624,-1.7465233493328094,0.12254969034790993,1.6006858685083687
1733768673293091000,11.423091064453125,-1.5369441948294638,0.019299159231781958,1.2177457048304379
1733768673303052300,11.43305224609375,-1.2602701106965541,-0.13614099332690238,0.7520083077393471
1733768673313012200,11.44301220703125,-0.8155237714469432,-0.26570903800427914,0.160814319877699
1733768673322973200,11.45297314453125,-0.49408583195805544,-0.5085562558591366,-0.23510873255729675
1733768673332933000,11.46293310546875,-0.05507368897888809,-0.5367290418982505,-0.6798589442644268
1733768673342893000,11.47289306640625,0.13727496579289436,-0.5280974071532487,-1.1982133213646708
1733768673352854300,11.482854248046875,0.15773443750832228,-0.7731453499227762,-1.5556906886145472
1733768673362814200,11.492814208984376,0.12842998055815696,-1.0616221000522374,-1.7504568893894552
1733768673372775200,11.502775146484375,0.06318915436267852,-1.2935142086505889,-1.779645720603317
1733768673382735400,11.5127353515625,0.20861352434158323,-0.6183715523183345,-2.3586634599156677
1733768673392695300,11.5226953125,0.3760954123497009,0.2810644280463457,-2.9232337178111076
1733768673402656000,11.532656005859375,0.23613040375523267,0.718816378363967,-3.193434222015738
1733768673412616200,11.5426162109375,0.0757598455896601,0.5730559082984924,-2.7172628169327973
1733768673422577200,11.5525771484375,-0.21513561958670616,0.028520576563477514,-1.8786058610491454
1733768673432537000,11.562537109375,-0.5504604840002953,-0.274030876147747,-1.178907220935449
1733768673442497300,11.572497314453125,-0.7694775481302291,-0.3697679628938436,-0.5056546161334962
1733768673452458200,11.582458251953126,-1.0282581751108169,-0.43162382282614703,0.15801073369905352
1733768673462418200,11.592418212890625,-1.400205820131302,-0.3065051587730646,0.7128459256522357
1733768673472379100,11.602379150390625,-1.8716016813755034,-0.015755203014612196,1.1781791258566081
1733768673482339000,11.612339111328126,-2.255833492299169,0.304307356467843,1.6053228806592523
1733768673492299000,11.622299072265625,-2.5711376052081585,0.6323112303435802,1.900987350335717
1733768673502260200,11.63226025390625,-3.1296096923589705,0.9896101722866296,2.1849928002700207
1733768673512220200,11.64222021484375,-3.9113504366695877,1.3444815948218107,2.5103251168489455
1733768673522181400,11.652181396484375,-5.0100399923563,1.8199030583202838,2.832766680422425
1733768673532141300,11.662141357421875,-11.16553129157424,2.722552155512571,3.3970366401970384
1733768673542101200,11.672101318359376,-15.826243466997145,3.83092723891139,3.2968948887512086
1733768673552062200,11.682062255859375,-8.933381311070919,4.636275653302669,1.7905742341138422
1733768673562022100,11.692022216796875,-8.012097656035422,6.766179895818233,1.567679232572019
1733768673571982000,11.701982177734376,-8.079331701874732,8.839569639429449,1.311622989054024
1733768673581943300,11.711943359375,-6.09993015551567,8.784797600278258,0.9921199631504714
1733768673591903200,11.7219033203125,-3.4939983003020285,6.468552455505728,0.324519392760843
1733768673601864200,11.7318642578125,-0.9808213011533021,3.1852000621557233,-1.2569662468455731
1733768673611824400,11.741824462890625,1.5969494584590196,0.9031360039263964,-3.1202476975128053
1733768673621784300,11.751784423828125,3.311192001911998,0.10874562140107154,-5.229007737451791
1733768673631745000,11.7617451171875,4.51204663156569,-0.2596001997351646,-7.232629532831907
1733768673641705200,11.771705322265625,4.6069215485244985,-0.913886530521512,-8.05580235772729
1733768673651666200,11.781666259765625,4.385083800950646,-1.6214806731253861,-7.283851770547032
1733768673661626000,11.791626220703124,4.456721050184965,-1.5452923364579676,-5.6740352317303415
1733768673671586300,11.80158642578125,4.498578662705421,-0.8256289858758449,-3.7295559456706044
1733768673681547300,11.81154736328125,4.237898851040005,0.07443301743268967,-1.5424024602353572
1733768673691507200,11.821507080078124,4.534651846605539,0.8723767085254192,0.5240840798586607
1733768673701468200,11.83146826171875,5.139297655910253,1.1901900277763604,2.4333752942897378
1733768673711428000,11.841427978515625,5.713907223391533,0.9186427851378918,3.8318124973133205
1733768673721388000,11.851387939453126,5.806171081069111,0.12214870833158492,4.771507422830164
1733768673731349200,11.861349365234375,4.85968342667222,-0.7073544886291027,5.23007448990047
1733768673741309200,11.87130908203125,3.144982033535838,-1.134059559753537,5.255890483680367
1733768673751270100,11.881270263671874,1.3948459005333482,-1.3773901772111654,4.854541972130537
1733768673761230300,11.891230224609375,-0.1763635519914329,-1.4713000485301018,3.726253981515765
1733768673771190300,11.901190185546875,-1.398604376284033,-1.3106968141198156,2.316581098728627
1733768673781151000,11.91115087890625,-1.8000433425962923,-1.1219681399434804,1.2955664650052785
1733768673791111200,11.921111083984375,-0.8674015504613518,-1.3356804487287997,0.8973835778795182
1733768673801072000,11.931072021484376,1.1222110087886452,-1.182715746372938,0.25526100148707626
1733768673811032000,11.941031982421874,2.4837147578209637,-0.8697562968939542,-0.4751956919185817
1733768673820992300,11.9509921875,3.173012196233868,-0.7060591881215572,-1.1733219681490212
1733768673830953200,11.960953125,3.0495845540076494,-0.7505874811559915,-1.8008141808383167
1733768673840913200,11.9709130859375,2.152402782310545,-0.7540905208408832,-2.345713523580134
1733768673850873600,11.98087353515625,0.879941590821743,-0.6312696123361587,-2.7142244721502062
1733768673860833500,11.99083349609375,-0.14411080316230654,-0.6628647740393877,-2.6448069447919726
1733768673870793500,12.00079345703125,-0.42680210175812244,-0.7388660637021064,-2.5579548830300567
1733768673880754700,12.010754638671875,-0.3636418812289834,-0.7240127779632807,-2.758603127580881
1733768673890714600,12.020714599609375,-0.3028437136560678,-0.7063064408808947,-2.8847479198113084
1733768673900674600,12.030674560546874,0.04522533538788557,-1.014658104303479,-2.9334429771363735
1733768673910635800,12.0406357421875,0.3663017480880022,-1.3348814073055981,-2.6789015220955013
1733768673920595700,12.050595703125,0.45720074715316295,-1.3637526970028877,-2.1261640330739318
1733768673930556700,12.060556640625,0.5926134262055158,-1.4104951589554549,-1.4255483511805533
1733768673940516600,12.0705166015625,0.7175599485620856,-1.5546107844233512,-0.7156921819288283
1733768673950476500,12.0804765625,0.5880244909800588,-1.499188756930828,0.24964982880810274
1733768673960437800,12.090437744140624,0.40288784994632004,-1.2277677710205315,1.2473749732881785
1733768673970397700,12.100397705078125,0.07121084051579236,-0.9943658423811197,2.010978003361821
1733768673980358700,12.110358642578126,-0.1515541049055755,-0.9926204600185156,2.5171271980792285
1733768673990318800,12.12031884765625,-0.4926080144904554,-1.003688381999731,2.8516747945100067
1733768674000278800,12.13027880859375,-0.6628529374711215,-1.183555119806528,2.8354344383269545
1733768674010239500,12.140239501953126,-0.4101002655431628,-1.4869722494363784,2.9056898778140545
1733768674020199700,12.15019970703125,-0.136432669749856,-1.719399195563793,3.120027625021338
1733768674030160600,12.16016064453125,-0.13698825780600307,-1.5919500427365303,3.1197549455597997
1733768674040120600,12.17012060546875,-0.40051030716001984,-1.1364128448814153,2.9148282930374143
1733768674050080800,12.180080810546874,-0.8065355783492326,-0.8774223014771938,2.514509124535322
1733768674060041700,12.190041748046875,-1.3359971134625375,-0.8351262975394725,2.0692333545841275
1733768674070001700,12.200001708984376,-1.5425161497429012,-0.717312988063693,1.5069560299314557
1733768674079962600,12.209962646484374,-1.7146648605182766,-0.4767652793228626,0.8491464934550226
1733768674089922600,12.219922607421875,-1.6220467825755476,-0.5061421804547309,0.2787458123730495
1733768674099882500,12.229882568359375,-0.6541872543260455,-0.8122825975686311,-0.289908353835158
1733768674109843700,12.23984375,-0.026390871058404444,-0.9630980129361152,-0.9347413947626948
1733768674119803600,12.2498037109375,-0.5497486824691296,-0.9540876080065965,-1.7101127501718698
1733768674129763600,12.259763671875,-1.683770540560782,-0.7301601946771145,-2.661023335577547
1733768674139724800,12.269724853515624,-4.046972666819394,-0.10938918000161647,-3.9895726172521706
1733768674149684700,12.279684814453125,-7.899678899079561,1.5676538058698177,-5.405125936380029
1733768674159645400,12.2896455078125,-8.397961598205566,3.861903391933441,-6.361787194266915
1733768674169605600,12.299605712890624,-4.085698118793964,5.448963909062743,-7.287246089160442
1733768674179565600,12.309565673828125,-1.2464929297566414,6.627595600992441,-8.18709649554491
1733768674189526500,12.319526611328126,3.0395073966294524,6.58738692472279,-8.32962046790719
1733768674199486700,12.32948681640625,6.4037652182966465,3.9179900208145377,-7.031570369392633
1733768674209447700,12.33944775390625,5.983508008137345,-1.2502765399485827,-5.756444634869695
1733768674219407600,12.34940771484375,5.406953151807189,-3.471107838580012,-5.134196533378958
1733768674229367800,12.359367919921874,5.563415048629045,-3.606761340650916,-4.511819837072491
1733768674239328500,12.36932861328125,5.43574611557126,-3.927399069672823,-3.282715849012136
1733768674249288400,12.379288330078126,5.765466730237007,-3.7432992243409156,-2.3785011099383233
1733768674259249700,12.389249755859375,5.5585623479008675,-2.6338521277964113,-1.6674673482745885
1733768674269209600,12.399209716796875,5.388083616164327,-0.9125041362524032,-0.9608389088977127
1733768674279169500,12.40916943359375,5.122116804006695,0.4846896425813436,0.14328173192702234
1733768674289130800,12.419130859375,4.931572604840993,1.4318793077677487,1.456506384024024
1733768674299090700,12.429090576171875,4.829961073103547,2.2202964611023663,2.7252123146325347
1733768674309051600,12.4390517578125,5.212562798607349,2.9689094273149967,4.067455482877791
1733768674319011600,12.449011474609375,4.7906838324651115,3.6533144175112247,5.370850157290697
1733768674328971500,12.458971435546875,3.844799696919322,3.9544945818692443,5.670201937177777
1733768674338932700,12.4689326171875,2.758242477574944,3.078196315985918,5.153910118630528
1733768674348892700,12.478892578125,1.1354523292861878,1.8818916047215462,4.60749613354206
1733768674358853600,12.488853515625,-0.5435656099200249,0.2017664349257946,4.436517051067948
1733768674368813800,12.498813720703126,-1.2641786624424158,-0.9130588475257158,4.079842963024974
1733768674378773800,12.508773681640625,-1.6352461636275053,-1.0253922642856836,3.4442803296700117
1733768674388734500,12.518734375,-1.8864841932088137,-0.6387041462510824,2.4458900540784
1733768674398694700,12.528694580078126,-1.9420424143016337,0.05277823498547077,1.3683812335863708
1733768674408654600,12.538654541015624,-1.8404589396148918,0.6154226393848657,0.4841163727380335
