time,seconds_elapsed,z,y,x
1733768661898396000,0.02839599609375,-0.10283821076154709,0.010418725199997425,-0.08526149392127991
1733768661908356000,0.038356201171875,-0.10938460379838943,0.12993969023227692,-0.06389422714710236
1733768661918317000,0.048317138671875,-0.11251647770404816,0.23425810039043427,-0.04094816744327545
1733768661928277000,0.058277099609375,-0.12926337122917175,0.28966063261032104,-0.04884554445743561
1733768661938237200,0.0682373046875,-0.1450926512479782,0.32947301864624023,-0.07084618508815765
1733768661948198100,0.0781982421875,-0.15083016455173492,0.34628066420555115,-0.07500255107879639
1733768661958158000,0.088157958984375,-0.12856586277484894,0.3220336437225342,-0.07015000283718109
1733768661968119000,0.098119140625,-0.09371235221624374,0.2596988379955292,-0.05141492933034897
1733768661978079000,0.108078857421875,-0.05012306571006775,0.17783698439598083,-0.031885966658592224
1733768661988039000,0.118038818359375,0.0003121495246887207,0.12004049122333527,-0.025171415880322456
1733768661998000000,0.128000244140625,0.040779680013656616,0.09302059561014175,-0.027799421921372414
1733768662007960000,0.1379599609375,0.06404409557580948,0.10664154589176178,-0.022207055240869522
1733768662017920000,0.147919921875,0.055646345019340515,0.1541757881641388,-0.043592505156993866
1733768662027881200,0.157881103515625,0.021302051842212677,0.21865271031856537,-0.09014010429382324
1733768662037841200,0.167841064453125,-0.021976180374622345,0.3083897829055786,-0.13372938334941864
1733768662047801900,0.1778017578125,-0.07830353081226349,0.35151320695877075,-0.1813979297876358
1733768662057762000,0.187761962890625,-0.12313678115606308,0.36938780546188354,-0.2417483627796173
1733768662067722000,0.197721923828125,-0.15830445289611816,0.38445818424224854,-0.26077547669410706
1733768662077683000,0.207682861328125,-0.16964979469776154,0.4050886332988739,-0.244635671377182
1733768662087643100,0.21764306640625,-0.1628614068031311,0.43037810921669006,-0.2209487408399582
1733768662097603000,0.22760302734375,-0.14363925158977509,0.46901020407676697,-0.2456335872411728
1733768662107564000,0.23756396484375,-0.140841543674469,0.5097076892852783,-0.31473439931869507
1733768662117524200,0.247524169921875,-0.15014635026454926,0.5487735867500305,-0.37937304377555847
1733768662127485000,0.25748486328125,-0.18580645322799683,0.49452513456344604,-0.387165367603302
1733768662137444900,0.26744482421875,-0.18638008832931519,0.46648311614990234,-0.3509026765823364
1733768662147405000,0.277405029296875,-0.15026919543743134,0.5523338317871094,-0.36761704087257385
1733768662157366000,0.287365966796875,-0.14690960943698883,0.608242392539978,-0.42408135533332825
1733768662167326000,0.297325927734375,-0.18017327785491943,0.7660407423973083,-0.5080839991569519
1733768662177287200,0.307287109375,-0.1559816598892212,1.3070120811462402,-0.6609038710594177
1733768662187247000,0.3172470703125,-0.077591173350811,1.6123747825622559,-0.7760533094406128
1733768662197207000,0.32720703125,-0.08698280900716782,1.797532081604004,-0.8704514503479004
1733768662207168000,0.33716796875,-0.1682942658662796,1.8932734727859497,-0.9561431407928467
1733768662217128000,0.3471279296875,-0.2212325781583786,1.9846128225326538,-0.9592657089233398
1733768662227088000,0.357087890625,-0.2637031376361847,2.071790933609009,-0.8496290445327759
1733768662237049000,0.367049072265625,-0.4128281772136688,1.9086920022964478,-0.6831921339035034
1733768662247009000,0.377009033203125,-0.5333241820335388,1.4069768190383911,-0.5772626399993896
1733768662256970200,0.38697021484375,-0.539662778377533,0.8344510197639465,-0.4387876093387604
1733768662266930200,0.39693017578125,-0.5355005860328674,0.3723865747451782,-0.29781225323677063
1733768662276890000,0.40689013671875,-0.5858635902404785,0.0330929271876812,-0.22471699118614197
1733768662286851000,0.41685107421875,-0.6224285364151001,-0.14224129915237427,-0.16583310067653656
1733768662296811000,0.42681103515625,-0.6111849546432495,-0.20082205533981323,-0.12305927276611328
1733768662306771000,0.43677099609375,-0.5657016634941101,-0.21743802726268768,-0.13397888839244843
1733768662316732200,0.446732177734375,-0.5132057070732117,-0.22339551150798798,-0.18808020651340485
1733768662326692000,0.456692138671875,-0.4922221004962921,-0.206878662109375,-0.2476068139076233
1733768662336653000,0.466653076171875,-0.48904654383659363,-0.1774989366531372,-0.280209481716156
1733768662346613200,0.47661328125,-0.48601770401000977,-0.17370954155921936,-0.28246212005615234
1733768662356573200,0.4865732421875,-0.48176276683807373,-0.2586502730846405,-0.2723437249660492
1733768662366534000,0.496533935546875,-0.46064162254333496,-0.4290347993373871,-0.2640064060688019
1733768662376494000,0.506494140625,-0.4162168800830841,-0.6509533524513245,-0.27330482006073
1733768662386454000,0.5164541015625,-0.3604442775249481,-0.8199363946914673,-0.3100888133049011
1733768662396415000,0.5264150390625,-0.3293555974960327,-0.8338474035263062,-0.3679715692996979
1733768662406375200,0.536375244140625,-0.33245375752449036,-0.7182758450508118,-0.42845767736434937
1733768662416336100,0.546336181640625,-0.32659614086151123,-0.4878127872943878,-0.49743595719337463
1733768662426296000,0.556296142578125,-0.2909584045410156,-0.16462424397468567,-0.5569308996200562
1733768662436256300,0.56625634765625,-0.22986841201782227,0.16899926960468292,-0.6205533146858215
1733768662446217000,0.576217041015625,-0.2222619503736496,0.3790378272533417,-0.676352322101593
1733768662456177000,0.586177001953125,-0.22428782284259796,0.4361453056335449,-0.7078458070755005
1733768662466137000,0.59613720703125,-0.2454763650894165,0.35331934690475464,-0.6833349466323853
1733768662476098000,0.60609814453125,-0.2858909070491791,0.27872657775878906,-0.6187322735786438
1733768662486058000,0.61605810546875,-0.3323775827884674,0.2685108780860901,-0.5314635038375854
1733768662496019200,0.626019287109375,-0.34991317987442017,0.38651394844055176,-0.3850431740283966
1733768662505979100,0.635979248046875,-0.343925803899765,0.6558398008346558,-0.12273567169904709
1733768662515939000,0.64593896484375,-0.33009788393974304,0.6711982488632202,0.07556037604808807
1733768662525900000,0.655900146484375,-0.2834570109844208,0.2992143929004669,0.1703730970621109
1733768662535860000,0.66585986328125,-0.16163255274295807,-0.06263597309589386,0.31416675448417664
1733768662545820000,0.67581982421875,0.037306565791368484,-0.13266870379447937,0.5077306032180786
1733768662555781000,0.685781005859375,0.23585960268974304,0.10921822488307953,0.6763984560966492
1733768662565741000,0.695740966796875,0.3404330313205719,0.5783182978630066,0.755215048789978
1733768662575702300,0.705702392578125,0.42628616094589233,0.5711458325386047,0.4500895142555237
1733768662585662200,0.715662109375,0.5671029686927795,-0.27994412183761597,0.5092036724090576
1733768662595622100,0.7256220703125,0.6278398036956787,-1.4407974481582642,1.1024446487426758
1733768662605583000,0.7355830078125,0.624521791934967,-2.5907275676727295,1.706780195236206
1733768662615543000,0.74554296875,0.6185395121574402,-3.4632201194763184,2.049339771270752
1733768662625504000,0.75550390625,0.6573579907417297,-3.840916872024536,2.0958268642425537
1733768662635464200,0.765464111328125,0.7162452936172485,-3.67946195602417,1.914495825767517
1733768662645424000,0.775424072265625,0.6832861304283142,-2.9880244731903076,1.6269121170043945
1733768662655385000,0.785385009765625,0.4699820876121521,-1.9357926845550537,1.2980836629867554
1733768662665345300,0.79534521484375,0.3088708817958832,-0.8729921579360962,0.9168742299079895
1733768662675305200,0.80530517578125,0.2895427346229553,0.18434515595436096,0.5556347966194153
1733768662685266000,0.815265869140625,0.3317192494869232,1.0407850742340088,0.21957817673683167
1733768662695226000,0.82522607421875,0.4053862690925598,1.688421607017517,-0.09588522464036942
1733768662705187000,0.83518701171875,0.5109196305274963,2.12691068649292,-0.35919588804244995
1733768662715147000,0.84514697265625,0.6592581868171692,2.607792377471924,-0.46803900599479675
1733768662725107200,0.855107177734375,0.8066673874855042,4.37294864654541,0.6370806097984314
1733768662735068200,0.865068115234375,0.6256347298622131,3.2894465923309326,0.29490405321121216
1733768662745028000,0.875028076171875,0.6119893789291382,1.499332070350647,0.1033444032073021
1733768662754988300,0.88498828125,0.6559344530105591,0.1763543337583542,0.4314029812812805
1733768662764949000,0.894948974609375,0.5504204034805298,-0.8566295504570007,0.5998755097389221
1733768662774909000,0.904908935546875,0.4891754388809204,-1.4165563583374023,0.8198241591453552
1733768662784870100,0.9148701171875,0.5169415473937988,-1.5815167427062988,1.0427889823913574
1733768662794830000,0.924830078125,0.5173064470291138,-1.635690450668335,1.198103427886963
1733768662804790000,0.9347900390625,0.4671678841114044,-1.6560982465744019,1.2470693588256836
1733768662814751200,0.944751220703125,0.4298725128173828,-1.7034374475479126,1.1843252182006836
1733768662824711200,0.954711181640625,0.4698227643966675,-1.7569212913513184,1.0855780839920044
1733768662834671400,0.96467138671875,0.5177375674247742,-1.7584800720214844,0.9858576655387878
1733768662844631300,0.97463134765625,0.5254980325698853,-1.772766351699829,0.9006937146186829
1733768662854591500,0.984591552734375,0.5082780122756958,-1.851527452468872,0.8360848426818848
1733768662864552200,0.99455224609375,0.47796154022216797,-2.065181016921997,0.7261558771133423
1733768662874512100,1.00451220703125,0.46167418360710144,-2.264629602432251,0.6274910569190979
1733768662884472300,1.014472412109375,0.47535911202430725,-2.243715286254883,0.6018071174621582
1733768662894433300,1.024433349609375,0.46982747316360474,-2.1416077613830566,0.5224198698997498
1733768662904393200,1.034393310546875,0.43613916635513306,-2.0013368129730225,0.3822462558746338
1733768662914354400,1.0443544921875,0.3884691298007965,-1.8651280403137207,0.22369787096977234
1733768662924314400,1.054314453125,0.2782592177391052,-1.9855589866638184,0.03596414625644684
1733768662934274300,1.0642744140625,0.1674693077802658,-2.301157236099243,-0.07171037793159485
1733768662944235300,1.0742353515625,0.07969838380813599,-2.6449198722839355,-0.0558633990585804
1733768662954195200,1.0841953125,0.06993816792964935,-3.0043563842773438,0.050379686057567596
1733768662964156400,1.094156494140625,0.1397629976272583,-3.338700532913208,0.1265053153038025
1733768662974116400,1.104116455078125,0.2509361207485199,-3.6233162879943848,0.10712762176990509
1733768662984076300,1.114076171875,0.43754228949546814,-3.593914747238159,-0.06051468476653099
1733768662994037500,1.12403759765625,0.5546326637268066,-3.106353521347046,-0.3014431595802307
1733768663003997400,1.13399755859375,0.648210346698761,-2.5413897037506104,-0.6685621738433838
1733768663013957400,1.143957275390625,0.8018515706062317,-1.8825666904449463,-1.1719574928283691
1733768663023918300,1.15391845703125,0.940911591053009,-1.2869155406951904,-1.5066308975219727
1733768663033878300,1.163878173828125,0.9101896286010742,-0.803031861782074,-1.3187789916992188
1733768663043839200,1.173839111328125,0.6038309931755066,-0.012988596223294735,-0.726128876209259
1733768663053799400,1.18379931640625,0.20112141966819763,1.0082327127456665,-0.05951245501637459
1733768663063759400,1.19375927734375,0.1433248221874237,1.9717199802398682,-0.03665519505739212
1733768663073720300,1.20372021484375,0.4905688166618347,2.5174458026885986,-0.8350112438201904
1733768663083680500,1.213680419921875,0.7675811648368835,2.95778489112854,-1.3183194398880005
1733768663093641200,1.22364111328125,0.6353583931922913,3.6751861572265625,-1.0600080490112305
1733768663103601200,1.23360107421875,0.15776455402374268,4.083893775939941,-0.5087257623672485
1733768663113561300,1.243561279296875,-0.40205082297325134,4.151017665863037,0.06317632645368576
1733768663123522300,1.253522216796875,-0.8915817141532898,3.8463099002838135,0.4902856945991516
1733768663133482200,1.263482177734375,-1.188774824142456,3.1141955852508545,0.7752244472503662
1733768663143442400,1.2734423828125,-1.245560884475708,2.1687979698181152,0.907965362071991
1733768663153403400,1.2834033203125,-1.1105300188064575,1.1109870672225952,0.8407671451568604
1733768663163363300,1.29336328125,-0.9202054738998413,-0.06015920639038086,0.6136344075202942
1733768663173324300,1.30332421875,-0.6234803199768066,-1.3742941617965698,0.12772470712661743
1733768663183284200,1.3132841796875,-0.2884468734264374,-2.4810948371887207,-0.52613365650177
1733768663193244200,1.323244140625,-0.06437276303768158,-3.1653530597686768,-1.0833061933517456
1733768663203205400,1.333205322265625,0.042538825422525406,-3.376737594604492,-1.36503005027771
1733768663213165300,1.343165283203125,0.09367524087429047,-3.101346254348755,-1.4186745882034302
1733768663223126300,1.353126220703125,0.13466450572013855,-2.4671878814697266,-1.298095941543579
1733768663233086500,1.36308642578125,0.2380010187625885,-1.630867838859558,-1.115661859512329
1733768663243046400,1.37304638671875,0.3723617494106293,-0.8052204847335815,-0.9817695021629333
1733768663253007000,1.383007080078125,0.4980461597442627,-0.20435434579849243,-0.9571200609207153
1733768663262967300,1.39296728515625,0.5605098009109497,0.2456149458885193,-1.0420759916305542
1733768663272927200,1.40292724609375,0.5694566965103149,0.5876204967498779,-1.222446322441101
1733768663282888200,1.41288818359375,0.562233030796051,0.7538109421730042,-1.4557605981826782
1733768663292848400,1.422848388671875,0.6078415513038635,0.5997012257575989,-1.7619458436965942
1733768663302809300,1.432809326171875,0.7094070315361023,0.0029507570434361696,-2.2598071098327637
1733768663312769300,1.442769287109375,0.6667226552963257,-0.7544146776199341,-2.6238722801208496
1733768663322729500,1.4527294921875,0.5056280493736267,-1.2865813970565796,-2.5355939865112305
1733768663332690200,1.462690185546875,0.4049763083457947,-1.504931092262268,-2.095320463180542
1733768663342650000,1.472650146484375,0.34555956721305847,-1.6102633476257324,-1.6636500358581543
1733768663352611300,1.482611328125,0.19986867904663086,-1.6628450155258179,-1.4521386623382568
1733768663362571300,1.4925712890625,-0.03587166592478752,-1.46144437789917,-1.311765193939209
1733768663372531200,1.50253125,-0.23259776830673218,-0.8309471011161804,-0.9133211374282837
1733768663382492400,1.512492431640625,-0.21816164255142212,0.1975744217634201,0.02911534532904625
1733768663392452400,1.522452392578125,-0.3216012120246887,0.8520702123641968,0.2602345943450928
1733768663402413300,1.532413330078125,-0.4169604182243347,1.3089205026626587,0.2572998106479645
1733768663412373200,1.542373291015625,-0.28514114022254944,1.7029695510864258,0.45072653889656067
1733768663422333200,1.552333251953125,-0.09492175281047821,1.8976657390594482,0.6354348659515381
1733768663432294400,1.56229443359375,0.04967723786830902,1.9256577491760254,0.7130470871925354
1733768663442254300,1.57225439453125,0.19282355904579163,1.860052227973938,0.6880345344543457
1733768663452214300,1.58221435546875,0.20677505433559418,1.6955187320709229,0.5589114427566528
1733768663462175500,1.592175537109375,-0.029476163908839226,1.5219922065734863,0.3463491201400757
1733768663472135400,1.602135498046875,-0.2951193153858185,1.518659234046936,0.16180828213691711
1733768663482096000,1.61209619140625,-0.4415494501590729,1.73342764377594,0.06870150566101074
1733768663492056300,1.622056396484375,-0.4903143346309662,1.983964443206787,0.0018681411165744066
1733768663502016300,1.632016357421875,-0.5413392186164856,2.0327768325805664,-0.13998690247535706
1733768663511977200,1.641977294921875,-0.5739144682884216,1.828876256942749,-0.31398746371269226
1733768663521937400,1.6519375,-0.6104913949966431,1.507421612739563,-0.4277527928352356
1733768663531898400,1.6618984375,-0.6567582488059998,1.0583006143569946,-0.47954514622688293
1733768663541858300,1.6718583984375,-0.6933785676956177,0.5042362809181213,-0.4633431136608124
1733768663551818500,1.681818603515625,-0.7390930652618408,-0.10776212066411972,-0.4135606288909912
1733768663561779200,1.691779296875,-0.7748865485191345,-0.6700615286827087,-0.3997620642185211
1733768663571739100,1.7017392578125,-0.8019506335258484,-1.0984485149383545,-0.4697786867618561
1733768663581700400,1.711700439453125,-0.797543466091156,-1.359545350074768,-0.6148589849472046
1733768663591660300,1.721660400390625,-0.7316539287567139,-1.4339346885681152,-0.769119381904602
1733768663601620200,1.7316201171875,-0.6087514162063599,-1.2964389324188232,-0.9249904751777649
1733768663611581400,1.74158154296875,-0.42877015471458435,-0.9772196412086487,-1.084406852722168
1733768663621541400,1.751541259765625,-0.20796972513198853,-0.6154472231864929,-1.2063652276992798
1733768663631502300,1.76150244140625,-0.03313213586807251,-0.3653468191623688,-1.2511329650878906
1733768663641462300,1.771462158203125,0.08127014338970184,-0.21322299540042877,-1.248871922492981
1733768663651422200,1.781422119140625,0.13298526406288147,-0.08121728897094727,-1.2006500959396362
1733768663661383400,1.791383544921875,0.12244019657373428,0.07994953542947769,-1.0714019536972046
1733768663671343400,1.80134326171875,-0.0365300215780735,0.7908033728599548,0.24507498741149902
1733768663681304300,1.81130419921875,-0.1432521790266037,0.9254200458526611,2.0863022804260254
1733768663691264500,1.821264404296875,-0.13934080302715302,-0.2789769172668457,1.4547003507614136
1733768663701224400,1.831224365234375,-0.24624736607074738,-1.005907654762268,1.3847074508666992
1733768663711185200,1.84118505859375,-0.25148287415504456,-1.3725568056106567,1.6932569742202759
1733768663721145300,1.851145263671875,-0.15968047082424164,-1.4874831438064575,1.9109151363372803
1733768663731106300,1.861106201171875,-0.05891791731119156,-1.3787095546722412,1.8796875476837158
1733768663741066200,1.871066162109375,-0.03159203380346298,-0.799415111541748,1.6447103023529053
1733768663751026400,1.8810263671875,-0.1192140281200409,0.06112280860543251,1.4565293788909912
1733768663760987400,1.8909873046875,-0.26377740502357483,0.8960174918174744,1.4538042545318604
1733768663770947300,1.900947265625,-0.4196956157684326,1.373411774635315,1.5861058235168457
1733768663780908300,1.910908203125,-0.4625687599182129,1.3902426958084106,1.7643660306930542
1733768663790868200,1.9208681640625,-0.37199223041534424,1.148114800453186,1.876907229423523
1733768663800828200,1.930828125,-0.21881484985351562,1.017806053161621,1.853010654449463
1733768663810789400,1.940789306640625,-0.1338070183992386,1.0696724653244019,1.6752800941467285
1733768663820749300,1.950749267578125,-0.12009992450475693,1.0650650262832642,1.4183340072631836
1733768663830709200,1.960709228515625,-0.0725284144282341,0.939331591129303,1.1703569889068604
1733768663840671200,1.970671142578125,-0.0006400374695658684,0.624984622001648,0.9780799746513367
1733768663850631200,1.980631103515625,0.01943220943212509,0.08689374476671219,0.828466534614563
1733768663860592400,1.99059228515625,-0.01664658635854721,-0.548442542552948,0.7186269164085388
1733768663870552300,2.00055224609375,-0.044227879494428635,-1.1390395164489746,0.6288107633590698
1733768663880512300,2.01051220703125,-0.05233186483383179,-1.5684235095977783,0.5526140332221985
1733768663890473500,2.020473388671875,-0.046238820999860764,-1.7422208786010742,0.47824203968048096
1733768663900433400,2.030433349609375,-0.02328941971063614,-1.7003190517425537,0.4171106219291687
1733768663910394000,2.04039404296875,0.03807274252176285,-1.5065408945083618,0.36814865469932556
1733768663920354300,2.050354248046875,0.12391826510429382,-1.2048450708389282,0.33259421586990356
1733768663930314200,2.060314208984375,0.22415059804916382,-0.843595564365387,0.31203728914260864
1733768663940275200,2.070275146484375,0.357383668422699,-0.5180614590644836,0.3123733401298523
1733768663950235400,2.0802353515625,0.52176433801651,-0.25447216629981995,0.34691160917282104
1733768663960196400,2.0901962890625,0.6632423996925354,-0.07423954457044601,0.39962223172187805
1733768663970156300,2.10015625,0.748752772808075,-0.013843843713402748,0.4454589784145355
1733768663980116500,2.110116455078125,0.792249858379364,-0.036720842123031616,0.4758278429508209
1733768663990077200,2.1200771484375,0.828567385673523,-0.15390844643115997,0.4836476743221283
1733768664000037000,2.130037109375,0.8484237194061279,-0.31490257382392883,0.44730913639068604
1733768664009998300,2.139998291015625,0.8459416627883911,-0.535273551940918,0.3815072178840637
1733768664019958300,2.149958251953125,0.8137949705123901,-0.714001476764679,0.32071059942245483
1733768664029918200,2.159918212890625,0.7662681937217712,-0.8246329426765442,0.2543393075466156
1733768664039879400,2.16987939453125,0.7112225890159607,-0.855421245098114,0.17762228846549988
1733768664049839400,2.17983935546875,0.665627658367157,-0.7861169576644897,0.09793198853731155
1733768664059800300,2.18980029296875,0.6516188383102417,-0.8079586625099182,-0.0628848746418953
1733768664069760300,2.19976025390625,0.6429299712181091,-0.9434602856636047,-0.2892349064350128
1733768664079720200,2.20972021484375,0.6614044904708862,-1.0156116485595703,-0.46124738454818726
1733768664089681400,2.219681396484375,0.6675920486450195,-1.0289580821990967,-0.5723052024841309
1733768664099641300,2.229641357421875,0.6516155004501343,-1.0045104026794434,-0.6925131678581238
1733768664109602300,2.239602294921875,0.6187441349029541,-0.930063009262085,-0.5220434069633484
1733768664119562500,2.2495625,0.6028892993927002,-0.9789915084838867,0.41133108735084534
1733768664129522400,2.2595224609375,0.4761667251586914,-1.615789532661438,0.4467513859272003
1733768664139483100,2.269483154296875,0.42683592438697815,-2.228684186935425,0.1569206267595291
1733768664149443300,2.279443359375,0.4611281156539917,-2.537696361541748,0.006384646985679865
1733768664159404300,2.289404296875,0.47004690766334534,-2.642024517059326,0.11078138649463654
1733768664169364200,2.2993642578125,0.4229789972305298,-2.6672003269195557,0.3366813659667969
1733768664179324400,2.309324462890625,0.3751978278160095,-2.6614441871643066,0.46075835824012756
1733768664189285400,2.319285400390625,0.35319292545318604,-2.612114906311035,0.43171578645706177
1733768664199245300,2.329245361328125,0.3325432538986206,-2.4494407176971436,0.35145390033721924
1733768664209206300,2.339206298828125,0.2888852655887604,-2.159905195236206,0.289903461933136
1733768664219166200,2.349166259765625,0.24505068361759186,-1.8293678760528564,0.2746446132659912
1733768664229126100,2.359126220703125,0.23535197973251343,-1.531951904296875,0.2229776680469513
1733768664239087400,2.36908740234375,0.2499130219221115,-1.2985063791275024,0.11283304542303085
1733768664249047300,2.37904736328125,0.28227630257606506,-1.1164215803146362,0.06430865079164505
1733768664259008300,2.38900830078125,0.30659833550453186,-0.9950061440467834,0.04292898252606392
1733768664268968400,2.398968505859375,0.2928508520126343,-0.8919085264205933,-0.052950941026210785
1733768664278928400,2.408928466796875,0.2614637017250061,-0.7460284233093262,-0.2069070041179657
1733768664288889000,2.41888916015625,0.17947587370872498,-0.554320752620697,-0.6436010003089905
1733768664298849300,2.428849365234375,0.10027799010276794,-0.06427118182182312,-0.987774133682251
1733768664308810200,2.438810302734375,0.024564586579799652,0.9104114174842834,-0.6457923054695129
1733768664318770200,2.448770263671875,-0.1541665494441986,2.04256272315979,0.194462388753891
1733768664328730400,2.45873046875,-0.291471928358078,2.833667278289795,0.9098020792007446
1733768664338691300,2.46869140625,-0.26717057824134827,3.0638906955718994,1.241674542427063
1733768664348651300,2.4786513671875,-0.21128469705581665,2.7941575050354004,1.2032108306884766
1733768664358612200,2.4886123046875,-0.2972249686717987,2.422597885131836,1.041129469871521
1733768664368572200,2.498572265625,-0.4434109330177307,2.1346328258514404,0.8295202851295471
1733768664378532000,2.508531982421875,-0.6656402349472046,1.860808253288269,0.4737459719181061
1733768664388493300,2.518493408203125,-0.8476899266242981,1.6026877164840698,0.04144115000963211
1733768664398453200,2.528453369140625,-0.8242476582527161,1.3094466924667358,-0.38910481333732605
1733768664408414500,2.53841455078125,-0.6729390621185303,0.7741909623146057,-0.7689213752746582
1733768664418374400,2.54837451171875,-0.5049896240234375,-0.1501241773366928,-0.9966257810592651
1733768664428334300,2.558334228515625,-0.31946420669555664,-1.3362764120101929,-1.0582507848739624
1733768664438295300,2.56829541015625,-0.21221007406711578,-2.2662386894226074,-0.8845492601394653
1733768664448255200,2.578255126953125,-0.1690942943096161,-2.747512102127075,-0.5974910855293274
1733768664458216200,2.58821630859375,-0.14711368083953857,-2.5814781188964844,-0.332617849111557
1733768664468176400,2.59817626953125,-0.10053712874650955,-2.0077362060546875,-0.2113151103258133
1733768664478136300,2.60813623046875,-0.03944636881351471,-1.316861867904663,-0.2523026466369629
1733768664488097300,2.61809716796875,0.0000943806953728199,-0.8259065747261047,-0.41861653327941895
1733768664498057500,2.628057373046875,0.04431311413645744,-0.6097652316093445,-0.712304413318634
1733768664508018200,2.63801806640625,0.13385656476020813,-0.5635343790054321,-1.097421407699585
1733768664517978000,2.64797802734375,0.3419325649738312,-0.8398733139038086,-1.8853347301483154
1733768664527938300,2.657938232421875,0.6254904866218567,-1.5347777605056763,-3.2121431827545166
1733768664537899300,2.667899169921875,0.7273629307746887,-2.0280797481536865,-3.826218843460083
1733768664547859200,2.677859130859375,0.5808060169219971,-2.1280055046081543,-3.468076705932617
1733768664557820400,2.6878203125,0.34537121653556824,-1.7531840801239014,-2.562767744064331
1733768664567780400,2.6977802734375,0.30724459886550903,-0.1504686325788498,0.12913115322589874
1733768664577740300,2.707740234375,0.6156442165374756,-0.6804599165916443,0.5309874415397644
1733768664587701200,2.717701171875,0.5183525681495667,-1.2974144220352173,0.05046049505472183
1733768664597661200,2.7276611328125,0.09924901276826859,-1.2602649927139282,0.21593834459781647
1733768664607622400,2.737622314453125,-0.03932884335517883,-0.8113513588905334,0.6081029176712036
1733768664617582300,2.747582275390625,0.08891528844833374,-0.2783551514148712,0.9075468182563782
1733768664627542300,2.757542236328125,0.24850040674209595,0.11383339762687683,0.93842613697052
1733768664637503500,2.76750341796875,0.31552764773368835,0.403186559677124,0.7553861141204834
1733768664647463400,2.77746337890625,0.1747950315475464,0.6502476930618286,0.43136781454086304
1733768664657424100,2.787424072265625,-0.02147354930639267,0.8691515326499939,0.07859256118535995
1733768664667384300,2.79738427734375,-0.10492343455553055,1.1220319271087646,-0.1905534267425537
1733768664677344300,2.80734423828125,-0.08292239159345627,1.3019753694534302,-0.3546997010707855
1733768664687305200,2.81730517578125,-0.052229199558496475,1.3062000274658203,-0.4359721839427948
1733768664697265400,2.827265380859375,-0.07902666181325912,1.1046987771987915,-0.47714897990226746
1733768664707226400,2.837226318359375,-0.1411326378583908,0.7099583148956299,-0.5299070477485657
1733768664717186300,2.847186279296875,-0.21702679991722107,0.22405345737934113,-0.56814044713974
1733768664727146500,2.857146484375,-0.2686159610748291,-0.183800607919693,-0.5395439267158508
1733768664737107200,2.867107177734375,-0.28238198161125183,-0.4650689959526062,-0.46619826555252075
1733768664747067100,2.877067138671875,-0.28961804509162903,-0.6847374439239502,-0.4188251495361328
1733768664757028400,2.8870283203125,-0.29805201292037964,-0.8800233006477356,-0.4695349335670471
1733768664766988300,2.89698828125,-0.29991623759269714,-1.0421006679534912,-0.6084851026535034
1733768664776948200,2.9069482421875,-0.2916966378688812,-1.1273179054260254,-0.7811278700828552
1733768664786909400,2.916909423828125,-0.28897011280059814,-1.1293940544128418,-0.9309743046760559
1733768664796869400,2.926869384765625,-0.2865237295627594,-1.0914126634597778,-1.0511088371276855
1733768664806830000,2.936830078125,-0.27314773201942444,-1.0176275968551636,-1.145366907119751
1733768664816790300,2.946790283203125,-0.254745215177536,-0.8629367351531982,-1.1485718488693237
1733768664826750200,2.956750244140625,-0.2370346635580063,-0.6346798539161682,-1.0531235933303833
1733768664836709600,2.966709716796875,-0.20001551508903503,-0.4073749780654907,-0.900672197341919
1733768664846669600,2.976669677734375,-0.16984643042087555,-0.21739226579666138,-0.7392822504043579
1733768664856630500,2.986630615234375,-0.1787737011909485,-0.10011304169893265,-0.5803161859512329
1733768664866590700,2.9965908203125,-0.22834311425685883,-0.016748111695051193,-0.4150606095790863
1733768664876550700,3.006550537109375,-0.26163432002067566,0.033295631408691406,-0.24386325478553772
1733768664886511600,3.01651171875,-0.25639909505844116,0.05953841656446457,-0.06714387983083725
1733768664896471800,3.026471923828125,-0.22107286751270294,0.0208682119846344,0.10405346751213074
1733768664906432500,3.0364326171875,-0.17343637347221375,-0.11909420788288116,0.2510248124599457
1733768664916392400,3.046392333984375,-0.08559979498386383,-0.3550879657268524,0.3609769940376282
1733768664926352600,3.0563525390625,0.060757145285606384,-0.5600302219390869,0.524610698223114
1733768664936313600,3.066313720703125,0.20698033273220062,-0.9485890865325928,0.8916081190109253
1733768664946273500,3.0762734375,0.24881114065647125,-1.5055431127548218,1.4789947271347046
1733768664956234800,3.08623486328125,0.2701936960220337,-1.934920072555542,1.769608736038208
1733768664966194700,3.096194580078125,0.23100771009922028,-1.904303789138794,1.6977205276489258
1733768664976154600,3.106154541015625,-0.016832983121275902,-1.4539521932601929,1.551263451576233
1733768664986115600,3.116115478515625,-0.27550581097602844,-0.8098944425582886,1.567835807800293
1733768664996075500,3.126075439453125,-0.3748753070831299,0.0999765694141388,1.5642035007476807
1733768665006036700,3.13603662109375,-0.5145745873451233,0.9026716947555542,1.4047675132751465
1733768665015996700,3.14599658203125,-0.6336391568183899,1.3442765474319458,1.3099271059036255
1733768665025956600,3.15595654296875,-0.5923910737037659,1.5225688219070435,1.4239751100540161
1733768665035917800,3.165917724609375,-0.4315335750579834,1.439144492149353,1.7150135040283203
1733768665045877800,3.175877685546875,-0.25447916984558105,1.3966425657272339,2.062669515609741
1733768665055838500,3.18583837890625,-0.10742933303117752,1.4540677070617676,2.279526948928833
1733768665065798700,3.195798583984375,-0.020163141191005707,1.5419390201568604,2.2657382488250732
1733768665075759600,3.205759521484375,-0.048969678580760956,1.409342646598816,1.9734951257705688
1733768665085719600,3.215719482421875,-0.12818141281604767,0.9564198851585388,1.456367015838623
1733768665095679700,3.2256796875,-0.18431338667869568,0.4627132713794708,0.9882625937461853
1733768665105640700,3.235640625,-0.14898709952831268,0.02192866802215576,0.7410892844200134
1733768665115600600,3.2456005859375,-0.07442943751811981,-0.39078471064567566,0.6537873148918152
1733768665125561600,3.2555615234375,-0.06609933078289032,-0.6845542788505554,0.6020186543464661
1733768665135521500,3.265521484375,-0.055293697863817215,-0.7429711818695068,0.531375527381897
1733768665145481500,3.2754814453125,-0.018747404217720032,-0.5580748319625854,0.462185800075531
1733768665155442700,3.285442626953125,0.018514426425099373,-0.19888745248317719,0.4121527373790741
1733768665165402600,3.295402587890625,0.08928154408931732,0.10163136571645737,0.3641761541366577
1733768665175363800,3.30536376953125,0.16417381167411804,0.2440418004989624,0.3430531919002533
1733768665185323800,3.31532373046875,0.24235942959785461,0.3436714708805084,0.35887476801872253
1733768665195283700,3.32528369140625,0.34226560592651367,0.40908315777778625,0.3944189250469208
1733768665205244700,3.33524462890625,0.40855592489242554,0.31718918681144714,0.3967582583427429
1733768665215204600,3.34520458984375,0.44239652156829834,0.18034875392913818,0.36511731147766113
1733768665225165600,3.35516552734375,0.4643404185771942,0.05458497256040573,0.3057975471019745
1733768665235125500,3.36512548828125,0.4282381534576416,-0.028390895575284958,0.21107961237430573
1733768665245085700,3.375085693359375,0.36915963888168335,-0.12127742916345596,0.087120920419693
1733768665255046700,3.385046630859375,0.37735459208488464,-0.23398429155349731,-0.06494374573230743
1733768665265006600,3.395006591796875,0.4401247799396515,-0.3505266010761261,-0.2094830870628357
1733768665274967600,3.404967529296875,0.48528048396110535,-0.5043653249740601,-0.3379738926887512
1733768665284927500,3.414927490234375,0.4936084449291229,-0.5616371631622314,-0.3739134967327118
1733768665294887400,3.424887451171875,0.5118855237960815,-0.23377372324466705,0.010606220923364162
1733768665304848600,3.4348486328125,0.4411993622779846,-0.12634526193141937,0.20664896070957184
1733768665314808600,3.44480859375,0.37502527236938477,-0.3715311288833618,0.013558153994381428
1733768665324769800,3.454769775390625,0.40117403864860535,-0.615599513053894,-0.19673648476600647
1733768665334729700,3.464729736328125,0.47112271189689636,-0.7210336923599243,-0.32753798365592957
1733768665344689700,3.474689697265625,0.4907675087451935,-0.683253824710846,-0.4119521975517273
1733768665354650600,3.484650634765625,0.4810456931591034,-0.6177996397018433,-0.46753889322280884
1733768665364610600,3.494610595703125,0.44023701548576355,-0.5644838809967041,-0.5011120438575745
1733768665374571500,3.504571533203125,0.39246630668640137,-0.6564553380012512,-0.4630430042743683
1733768665384531700,3.51453173828125,0.34410330653190613,-0.9167787432670593,-0.347964346408844
1733768665394491600,3.52449169921875,0.3014448583126068,-1.295745849609375,-0.1946653127670288
1733768665404452600,3.53445263671875,0.28141361474990845,-1.6683374643325806,-0.016232730820775032
1733768665414412800,3.544412841796875,0.30996957421302795,-1.989490032196045,0.18301662802696228
1733768665424373500,3.55437353515625,0.36299312114715576,-2.1440863609313965,0.40474238991737366
1733768665434333400,3.56433349609375,0.38609620928764343,-2.2697501182556152,0.4268144369125366
1733768665444293600,3.574293701171875,0.42316821217536926,-2.318359851837158,0.3044472336769104
1733768665454254600,3.584254638671875,0.4718727171421051,-2.230172872543335,0.24013343453407288
1733768665464214500,3.594214599609375,0.4681176543235779,-2.068474769592285,0.3100598156452179
1733768665474175700,3.60417578125,0.3784203827381134,-1.9399198293685913,0.4255414307117462
1733768665484135700,3.6141357421875,0.27426764369010925,-1.8940255641937256,0.48457813262939453
1733768665494095600,3.624095703125,0.2390391230583191,-1.855920672416687,0.48558419942855835
1733768665504056600,3.634056640625,0.26680976152420044,-1.7208712100982666,0.44472360610961914
1733768665514016500,3.6440166015625,0.28775328397750854,-1.5576179027557373,0.3570800721645355
1733768665523977700,3.653977783203125,0.29391130805015564,-1.343999981880188,0.2559065818786621
1733768665533937700,3.663937744140625,0.3299788236618042,-1.1092839241027832,0.14827658236026764
1733768665543897600,3.673897705078125,0.3572429418563843,-0.9000435471534729,0.01917772740125656
1733768665553858800,3.68385888671875,0.3523629605770111,-0.7025244235992432,-0.119228795170784
1733768665563818800,3.69381884765625,0.331976979970932,-0.4526648223400116,-0.2180352658033371
1733768665573779500,3.703779541015625,0.297558456659317,-0.1564287692308426,-0.23866483569145203
1733768665583739600,3.71373974609375,0.26598480343818665,0.12147796154022217,-0.19033139944076538
1733768665593699600,3.723699462890625,0.2700018286705017,0.5776016116142273,0.20673705637454987
1733768665603660500,3.73366064453125,0.21570426225662231,0.626264214515686,0.12033718824386597
1733768665613620700,3.743620849609375,0.17435042560100555,0.18771213293075562,-0.8330880999565125
1733768665623581700,3.753581787109375,0.2526713013648987,-0.06956493854522705,-1.4469001293182373
1733768665633541600,3.763541748046875,0.3297678530216217,0.027195408940315247,-1.174052357673645
1733768665643501800,3.773501708984375,0.31186020374298096,0.36295396089553833,-0.43822258710861206
1733768665653462500,3.783462646484375,0.21319222450256348,0.43749770522117615,0.2536027431488037
1733768665663422500,3.79342236328125,0.07831697165966034,0.0835026204586029,0.6492259502410889
1733768665673383700,3.8033837890625,-0.11849457025527954,-0.35138916969299316,0.7301523685455322
1733768665683343600,3.813343505859375,-0.37148475646972656,-0.4951586127281189,0.5959234237670898
1733768665693304800,3.823304931640625,-0.5451703667640686,-0.4166291654109955,0.3140902817249298
1733768665703264800,3.8332646484375,-0.5525606274604797,-0.23918752372264862,-0.07393895834684372
1733768665713224700,3.843224609375,-0.4376640319824219,0.0793866515159607,-0.46457189321517944
1733768665723185700,3.853185546875,-0.3743937313556671,0.351300448179245,-0.6651700139045715
1733768665733145600,3.8631455078125,-0.32799068093299866,0.49104931950569153,-0.675457775592804
1733768665743106600,3.8731064453125,-0.2629307210445404,0.3591133952140808,-0.6107376217842102
1733768665753066800,3.883066650390625,-0.22456860542297363,-0.014602802693843842,-0.5506075024604797
1733768665763026700,3.893026611328125,-0.21954642236232758,-0.5375632643699646,-0.5318588614463806
1733768665772987600,3.902987548828125,-0.19514238834381104,-1.0880271196365356,-0.5357890129089355
1733768665782947800,3.91294775390625,-0.05776482820510864,-1.4918444156646729,-0.5577470660209656
1733768665792908500,3.922908447265625,0.14552517235279083,-1.559718370437622,-0.5638996958732605
1733768665802868500,3.932868408203125,0.29939034581184387,-1.401172399520874,-0.5817676782608032
1733768665812828700,3.94282861328125,0.3645581007003784,-1.1627247333526611,-0.6524754762649536
1733768665822789600,3.95278955078125,0.31717753410339355,-0.8348571062088013,-0.8436276316642761
1733768665832749600,3.96274951171875,0.2857004404067993,-0.4250260591506958,-1.132369875907898
1733768665842711600,3.972711669921875,0.3261301517486572,0.07172591984272003,-1.370477318763733
1733768665852671500,3.98267138671875,0.39786452054977417,0.6168755292892456,-1.516950011253357
1733768665862631700,3.992631591796875,0.4611297845840454,0.9567012786865234,-1.6783466339111328
1733768665872592400,4.00259228515625,0.47375524044036865,1.0394883155822754,-1.789982795715332
1733768665882552300,4.01255224609375,0.49017333984375,1.14960515499115,-1.7754491567611694
1733768665892513500,4.022513427734375,0.4478653073310852,1.245498538017273,-1.6284253597259521
1733768665902473500,4.032473388671875,0.38110971450805664,1.1994715929031372,-1.417519450187683
1733768665912433400,4.042433349609375,0.27338847517967224,0.9813411235809326,-1.2604644298553467
1733768665922394600,4.05239453125,0.14447948336601257,0.6390708684921265,-1.149660587310791
1733768665932354600,4.0623544921875,0.0050713070668280125,0.4163285493850708,-0.9391289353370667
1733768665942315300,4.072315185546875,-0.1959664672613144,0.14063678681850433,-0.7055529356002808
1733768665952275500,4.082275390625,-0.3964881896972656,-0.30592694878578186,-0.5051897764205933
1733768665962235400,4.0922353515625,-0.4368656873703003,-0.5466423630714417,-0.2400294840335846
1733768665972196400,4.1021962890625,-0.46617358922958374,-0.6755472421646118,-0.020157799124717712
1733768665982156500,4.112156494140625,-0.49079105257987976,-0.6983292698860168,0.18939276039600372
1733768665992117500,4.122117431640625,-0.4010544419288635,-0.6182199716567993,0.39350923895835876
1733768666002077400,4.132077392578125,-0.221870556473732,-0.4213159382343292,0.5132588148117065
1733768666012037600,4.14203759765625,-0.11554543673992157,-0.14256682991981506,0.47903701663017273
1733768666021998300,4.151998291015625,-0.16817429661750793,0.02750317007303238,0.2716984748840332
1733768666031958300,4.161958251953125,-0.25693279504776,0.10145168006420135,0.043599192053079605
1733768666041919500,4.17191943359375,-0.23630289733409882,0.17646174132823944,-0.10869153589010239
1733768666051879400,4.18187939453125,-0.1366371512413025,0.19095557928085327,-0.20243242383003235
1733768666061839400,4.19183935546875,-0.07785984873771667,0.1129545196890831,-0.2607628405094147
1733768666071800600,4.201800537109375,-0.09563952684402466,-0.010586140677332878,-0.3271290063858032
1733768666081760500,4.211760498046875,-0.1215968206524849,-0.15032859146595,-0.43610554933547974
1733768666091721500,4.221721435546875,-0.11016552150249481,-0.3473355174064636,-0.5930728316307068
1733768666101681400,4.231681396484375,-0.09306802600622177,-0.5448762774467468,-0.736957848072052
1733768666111641300,4.241641357421875,-0.10313724726438522,-0.7134228944778442,-0.8308404684066772
1733768666121602600,4.2516025390625,-0.10471730679273605,-0.82110196352005,-0.8905607461929321
1733768666131562500,4.2615625,-0.09403768926858902,-0.8687595129013062,-0.938726544380188
1733768666141523500,4.2715234375,-0.042148657143116,-0.9214552044868469,-1.0296239852905273
1733768666151483600,4.281483642578125,0.03549971804022789,-0.9861372113227844,-1.2014354467391968
1733768666161443600,4.291443603515625,0.08354287594556808,-1.0074059963226318,-1.416212797164917
1733768666171404300,4.301404296875,0.0564090795814991,-0.8112573623657227,-1.5143935680389404
1733768666181364500,4.311364501953125,0.005453753750771284,-0.3216019570827484,-1.3682233095169067
1733768666191325400,4.321325439453125,-0.07026811689138412,0.5521509051322937,-0.9195591807365417
1733768666201285400,4.331285400390625,-0.10082709044218063,2.1026477813720703,0.7617684602737427
1733768666211246600,4.34124658203125,-0.231624037027359,2.0852129459381104,1.3014613389968872
1733768666221206500,4.35120654296875,-0.31360146403312683,1.334963083267212,1.0301326513290405
1733768666231166500,4.36116650390625,-0.29554349184036255,0.8403742909431458,1.2524436712265015
1733768666241127400,4.37112744140625,-0.2751721739768982,0.345586895942688,1.7108594179153442
1733768666251087400,4.38108740234375,-0.20185862481594086,-0.25851425528526306,1.9858511686325073
1733768666261048600,4.391048583984375,-0.06011879816651344,-0.7541636824607849,1.980898380279541
1733768666271008500,4.401008544921875,-0.04954732209444046,-1.0625379085540771,1.880414366722107
1733768666280968400,4.410968505859375,-0.1543581634759903,-1.2594294548034668,1.786336898803711
1733768666290929700,4.4209296875,-0.2459680438041687,-1.092164158821106,1.704850673675537
1733768666300889600,4.4308896484375,-0.3172944188117981,-0.7320197820663452,1.6178953647613525
1733768666310850300,4.440850341796875,-0.4046700596809387,-0.26411277055740356,1.5518102645874023
1733768666320810500,4.450810546875,-0.4857252538204193,0.27445510029792786,1.580370545387268
1733768666330770400,4.4607705078125,-0.5377112627029419,0.5889499187469482,1.6227357387542725
1733768666340731400,4.4707314453125,-0.5835117697715759,0.5578173398971558,1.6198766231536865
1733768666350691600,4.480691650390625,-0.5897479057312012,0.35153231024742126,1.6764321327209473
1733768666360652500,4.490652587890625,-0.5765937566757202,0.05910657346248627,1.6890462636947632
1733768666370612500,4.500612548828125,-0.4902307689189911,-0.24552519619464874,1.5963338613510132
1733768666380572700,4.51057275390625,-0.41851451992988586,-0.44603243470191956,1.4526057243347168
1733768666390533400,4.520533447265625,-0.3431045711040497,-0.5323379039764404,1.323993444442749
1733768666400493300,4.530493408203125,-0.2137415111064911,-0.5827009677886963,1.186283826828003
1733768666410454500,4.54045458984375,-0.04687610641121864,-0.6824778318405151,1.0262818336486816
1733768666420414500,4.55041455078125,0.08638554811477661,-0.8170939683914185,0.887964129447937
1733768666430374400,4.56037451171875,0.19075755774974823,-0.9054601192474365,0.7622486352920532
1733768666440335600,4.570335693359375,0.2828057110309601,-0.9288032650947571,0.6809013485908508
1733768666450295600,4.580295654296875,0.36724284291267395,-0.8849796056747437,0.667178213596344
1733768666460256300,4.59025634765625,0.42545315623283386,-0.8560810685157776,0.678385853767395
1733768666470216400,4.600216552734375,0.47016245126724243,-0.9386950731277466,0.6680424809455872
1733768666480176400,4.61017626953125,0.5315507054328918,-0.9834524393081665,0.654529333114624
1733768666490137300,4.620137451171875,0.6016650199890137,-0.9811310768127441,0.6311134696006775
1733768666500097500,4.63009765625,0.6449434757232666,-0.965085506439209,0.5929780602455139
1733768666510058500,4.64005859375,0.6970943808555603,-1.049406886100769,0.5123190879821777
1733768666520018400,4.650018310546875,0.7417055368423462,-1.1557087898254395,0.4247192144393921
1733768666529978600,4.659978515625,0.7887025475502014,-1.1967607736587524,0.34339889883995056
1733768666539939300,4.669939208984375,0.8249353766441345,-1.1822763681411743,0.2810782790184021
1733768666549899300,4.679899169921875,0.8422195315361023,-1.2244318723678589,0.18915918469429016
1733768666559860500,4.689860595703125,0.8359278440475464,-1.3517366647720337,0.07427175343036652
1733768666569820400,4.6998203125,0.8430081009864807,-1.5073732137680054,-0.040185119956731796
1733768666579780400,4.7097802734375,0.8549390435218811,-1.6152844429016113,-0.12799778580665588
1733768666589741600,4.719741455078125,0.8484644293785095,-1.5822019577026367,-0.20205849409103394
1733768666599701500,4.729701416015625,0.8286864757537842,-1.3965779542922974,-0.21813252568244934
1733768666609662500,4.739662353515625,0.8505268692970276,-0.9243965744972229,0.11362358927726746
1733768666619622400,4.749622314453125,0.8108904957771301,-0.6796952486038208,0.3226170241832733
1733768666629583400,4.759583251953125,0.7613615989685059,-0.8865165114402771,0.18262231349945068
1733768666639543600,4.76954345703125,0.7552840113639832,-1.2770322561264038,0.05454609915614128
1733768666649503500,4.77950341796875,0.7566691637039185,-1.694081425666809,0.043326713144779205
1733768666659464400,4.78946435546875,0.717100977897644,-2.0158238410949707,0.08685953915119171
1733768666669424600,4.799424560546875,0.6366229057312012,-2.170314073562622,0.09191057831048965
1733768666679385300,4.80938525390625,0.5179350972175598,-2.1171019077301025,0.05854649841785431
1733768666689345300,4.81934521484375,0.39243078231811523,-1.8667001724243164,0.0021978639997541904
1733768666699305500,4.829305419921875,0.2989386320114136,-1.6277251243591309,-0.042860157787799835
1733768666709266400,4.839266357421875,0.25864177942276,-1.446031928062439,-0.06473785638809204
1733768666719226400,4.849226318359375,0.2420865297317505,-1.525027871131897,-0.0110650435090065
1733768666729187600,4.8591875,0.2572688162326813,-1.6869611740112305,0.04239708557724953
1733768666739147500,4.8691474609375,0.22336916625499725,-1.8184044361114502,0.05865888297557831
1733768666749107500,4.879107421875,0.09244675934314728,-1.8695416450500488,0.015140321105718613
1733768666759068400,4.889068359375,-0.06011694669723511,-1.7256696224212646,-0.0677388533949852
1733768666769028400,4.8990283203125,-0.16484782099723816,-1.5070632696151733,-0.20808608829975128
1733768666778989600,4.908989501953125,-0.20790395140647888,-1.3494532108306885,-0.3933265209197998
1733768666788949500,4.918949462890625,-0.19099806249141693,-1.3149230480194092,-0.5813252329826355
1733768666798909400,4.928909423828125,-0.16708660125732422,-1.5235286951065063,-0.7419570088386536
1733768666808870700,4.93887060546875,-0.14912717044353485,-1.7958662509918213,-0.8356102108955383
1733768666818830600,4.94883056640625,-0.13630644977092743,-1.9027221202850342,-0.7920928001403809
1733768666828791300,4.958791259765625,-0.11510209739208221,-1.8798969984054565,-0.6251448392868042
1733768666838751700,4.968751708984375,-0.06521017104387283,-1.8381983041763306,-0.35942819714546204
1733768666848711700,4.978711669921875,-0.00581741239875555,-1.8869696855545044,-0.1282060742378235
1733768666858673000,4.9886728515625,0.031018098816275597,-2.052447557449341,0.03786252439022064
1733768666868632800,4.9986328125,0.018161477521061897,-2.271310806274414,0.12272706627845764
1733768666878593800,5.00859375,0.0130628552287817,-2.4245660305023193,0.15947549045085907
1733768666888554000,5.018553955078125,0.05871369689702988,-2.5220224857330322,0.2039595991373062
1733768666898514000,5.028513916015625,0.1262357532978058,-2.5488624572753906,0.3124365508556366
1733768666908474600,5.038474609375,0.1479942351579666,-2.1400105953216553,0.711793065071106
1733768666918434800,5.048434814453125,0.09708951413631439,-2.533860921859741,0.3739407956600189
1733768666928395800,5.058395751953125,0.05590652674436569,-2.4623072147369385,-0.006980776786804199
1733768666938355700,5.068355712890625,0.06376178562641144,-2.298267364501953,-0.22834593057632446
1733768666948316000,5.07831591796875,0.21626877784729004,-2.328558921813965,-0.1541328728199005
1733768666958276900,5.08827685546875,0.43567410111427307,-2.3579013347625732,0.32059717178344727
1733768666968236800,5.09823681640625,0.5889594554901123,-2.3512179851531982,0.9399265050888062
1733768666978197800,5.10819775390625,0.6221461892127991,-2.2069013118743896,1.2603851556777954
1733768666988157700,5.11815771484375,0.6971186399459839,-2.1230616569519043,1.1177316904067993
1733768666998117600,5.12811767578125,0.8444334864616394,-2.234009027481079,0.4936816990375519
1733768667008078800,5.138078857421875,0.8501612544059753,-2.2768313884735107,-0.10965511202812195
1733768667018038800,5.148038818359375,0.7762859463691711,-2.188375949859619,-0.5660708546638489
1733768667028000000,5.158,0.8302841186523438,-2.1409342288970947,-1.0015689134597778
1733768667037960000,5.1679599609375,0.819961428642273,-2.126925230026245,-1.1136935949325562
1733768667047919900,5.177919921875,0.6892795562744141,-2.1781349182128906,-0.8761345744132996
1733768667057880800,5.187880859375,0.5616435408592224,-2.388821840286255,-0.6061161756515503
1733768667067840800,5.1978408203125,0.4263154864311218,-2.6655619144439697,-0.4119868576526642
1733768667077801700,5.2078017578125,0.31412264704704285,-2.8254425525665283,-0.1939956694841385
1733768667087762000,5.217761962890625,0.2542436420917511,-2.8051626682281494,-0.027998359873890877
1733768667097721900,5.227721923828125,0.20452536642551422,-2.691619873046875,0.04347129538655281
1733768667107682800,5.237682861328125,0.13270463049411774,-2.584763765335083,0.08496831357479095
1733768667117642800,5.247642822265625,0.10054323822259903,-2.464216947555542,0.11535632610321045
1733768667127603700,5.257603759765625,0.12531596422195435,-2.366117000579834,0.12200704962015152
1733768667137563600,5.267563720703125,0.1883162558078766,-2.3051578998565674,0.1363724023103714
1733768667147523800,5.27752392578125,0.255867600440979,-2.273087501525879,0.1911250501871109
1733768667157484800,5.28748486328125,0.3206782639026642,-2.2510130405426025,0.27616965770721436
1733768667167444700,5.29744482421875,0.37792307138442993,-2.2364227771759033,0.29313817620277405
1733768667177406000,5.307406005859375,0.4206539988517761,-2.27620267868042,0.20328044891357422
1733768667187366000,5.317365966796875,0.4241000711917877,-2.3912394046783447,0.044352270662784576
1733768667197326800,5.327326904296875,0.37339720129966736,-2.4964873790740967,-0.059027913957834244
1733768667207286800,5.337286865234375,0.3208482563495636,-2.472003936767578,-0.005782840773463249
1733768667217246700,5.347246826171875,0.34079986810684204,-2.3081369400024414,0.1466096192598343
1733768667227208000,5.3572080078125,0.41993820667266846,-2.0255942344665527,0.26388388872146606
1733768667237167900,5.36716796875,0.46376267075538635,-1.777908205986023,0.2163219451904297
1733768667247128800,5.37712890625,0.4425220191478729,-1.558251142501831,0.08539805561304092
1733768667257089000,5.387089111328125,0.3775286376476288,-1.2743902206420898,-0.00031684525310993195
1733768667267049000,5.397049072265625,0.31982213258743286,-0.945768415927887,0.00006969505921006203
1733768667277009700,5.407009765625,0.2613889276981354,-0.6973495483398438,-0.00039023254066705704
1733768667286969900,5.416969970703125,0.1780213862657547,-0.6666524410247803,-0.0725453570485115
1733768667296930800,5.426930908203125,0.04564763605594635,-0.8766887784004211,-0.20675936341285706
1733768667306890800,5.436890869140625,-0.09995729476213455,-1.2142829895019531,-0.31076937913894653
1733768667316851000,5.446850830078125,-0.2502192258834839,-1.5652724504470825,-0.3045889735221863
1733768667326812000,5.45681201171875,-0.3286808133125305,-1.9827556610107422,-0.23687103390693665
1733768667336771800,5.466771728515625,-0.3769034743309021,-2.442308187484741,-0.17461004853248596
1733768667346732800,5.47673291015625,-0.4097747504711151,-2.6926512718200684,-0.20260336995124817
1733768667356692700,5.486692626953125,-0.3238643705844879,-2.8568620681762695,-0.3127064108848572
1733768667366652700,5.496652587890625,-0.20626351237297058,-3.2157089710235596,-0.47100573778152466
1733768667376614000,5.50661376953125,-0.1977403312921524,-3.616692066192627,-0.6040764451026917
1733768667386573800,5.51657373046875,-0.2587449252605438,-3.601428270339966,-0.5788045525550842
1733768667396534800,5.52653466796875,-0.305498331785202,-3.1124699115753174,-0.4256456196308136
1733768667406495000,5.536494873046875,-0.32143130898475647,-2.3323118686676025,-0.12592829763889313
1733768667416455000,5.546454833984375,-0.4227781891822815,-1.7462528944015503,0.20559823513031006
1733768667426415600,5.55641552734375,-0.5687658190727234,-1.6386154890060425,0.4742812216281891
1733768667436375800,5.566375732421875,-0.5874188542366028,-1.8577138185501099,0.7932434678077698
1733768667446336800,5.576336669921875,-0.46803805232048035,-2.1469733715057373,1.0340008735656738
1733768667456296700,5.586296630859375,-0.3216022849082947,-2.374910354614258,1.1155301332473755
1733768667466257000,5.5962568359375,-0.2053949236869812,-2.394854784011841,1.068481683731079
1733768667476217900,5.6062177734375,-0.11712523549795151,-2.1837120056152344,0.9702368974685669
1733768667486177800,5.616177734375,-0.06684216856956482,-1.8179128170013428,0.8584058880805969
1733768667496138800,5.626138671875,-0.07320765405893326,-1.5008931159973145,0.6879169940948486
1733768667506098700,5.6360986328125,-0.09621562063694,-1.3681050539016724,0.46983885765075684
1733768667516058600,5.64605859375,-0.09694559872150421,-1.4786560535430908,0.2913804352283478
1733768667526019800,5.656019775390625,-0.12433680146932602,-1.8672399520874023,0.10788650065660477
1733768667535979800,5.665979736328125,-0.026034999638795853,-2.2206907272338867,-0.06648556888103485
1733768667545941000,5.67594091796875,0.14042706787586212,-2.3137874603271484,-0.1562415510416031
1733768667555901000,5.68590087890625,0.1520746648311615,-1.865492820739746,0.44946250319480896
1733768667565860900,5.69586083984375,0.052644357085227966,-1.506456971168518,1.43235182762146
1733768667575821800,5.70582177734375,0.06807071715593338,-1.5219941139221191,1.2372620105743408
1733768667585781800,5.71578173828125,0.12897621095180511,-0.979366660118103,0.9110966324806213
1733768667595742700,5.72574267578125,0.180593341588974,-0.36089783906936646,0.7590091228485107
1733768667605703000,5.735702880859375,0.22410885989665985,-0.16092319786548615,0.6516112685203552
1733768667615662800,5.745662841796875,0.19928419589996338,-0.4735226333141327,0.6235777735710144
1733768667625623800,5.755623779296875,0.14795882999897003,-1.2067863941192627,0.708310604095459
1733768667635584000,5.765583984375,0.15990658104419708,-2.061305046081543,0.8300453424453735
1733768667645544700,5.775544677734375,0.15973931550979614,-2.7098731994628906,0.8468815684318542
1733768667655504600,5.785504638671875,0.12448813021183014,-2.9854214191436768,0.7890299558639526
1733768667665464800,5.79546484375,0.07173030823469162,-2.780503034591675,0.6813651323318481
1733768667675425800,5.80542578125,0.0754464864730835,-2.224902629852295,0.5633716583251953
1733768667685385700,5.8153857421875,0.12440495938062668,-1.5154584646224976,0.5068796277046204
1733768667695347000,5.825346923828125,0.14865010976791382,-0.8729633092880249,0.4973548650741577
1733768667705307000,5.835306884765625,0.17620044946670532,-0.4514886736869812,0.45198962092399597
1733768667715266800,5.845266845703125,0.2536790072917938,-0.29227399826049805,0.425647497177124
1733768667725227800,5.855227783203125,0.3961019814014435,-0.3837558627128601,0.44719308614730835
1733768667735187700,5.865187744140625,0.5307237505912781,-0.6529433727264404,0.4841865301132202
1733768667745149000,5.87514892578125,0.5795052647590637,-0.9985979795455933,0.5062597990036011
1733768667755108900,5.88510888671875,0.6149071455001831,-1.3089654445648193,0.5107346773147583
1733768667765069800,5.89506982421875,0.6453633308410645,-1.5093941688537598,0.47798025608062744
1733768667775030000,5.905030029296875,0.6487295627593994,-1.5254141092300415,0.43838730454444885
1733768667784990000,5.914989990234375,0.6472712755203247,-1.3775047063827515,0.3894961476325989
1733768667794950700,5.92495068359375,0.6398975253105164,-1.1581443548202515,0.3108530044555664
1733768667804910800,5.934910888671875,0.6456260681152344,-0.9129059314727783,0.2643914520740509
1733768667814871800,5.944871826171875,0.6617299318313599,-0.7427584528923035,0.2403433471918106
1733768667824831700,5.954831787109375,0.6842966079711914,-0.6965434551239014,0.24394989013671875
1733768667834792000,5.9647919921875,0.7019003629684448,-0.7482221126556396,0.26448553800582886
1733768667844752600,5.974752685546875,0.7160311937332153,-0.8854923844337463,0.28935936093330383
1733768667854712600,5.984712646484375,0.7245919704437256,-1.1165518760681152,0.315387487411499
1733768667864673500,5.994673583984375,0.7134057283401489,-1.3532307147979736,0.3625442385673523
1733768667874633500,6.004633544921875,0.6790570616722107,-1.5708009004592896,0.4446633458137512
1733768667884593400,6.014593505859375,0.6103906631469727,-1.7873420715332031,0.4973869025707245
1733768667894554600,6.0245546875,0.5546720027923584,-1.9256548881530762,0.5216125845909119
1733768667904514600,6.0345146484375,0.52144855260849,-1.94883131980896,0.5267836451530457
1733768667914475500,6.0444755859375,0.503357470035553,-1.8215770721435547,0.5184719562530518
1733768667924435700,6.054435791015625,0.4906100332736969,-1.5978224277496338,0.4959462285041809
1733768667934395600,6.064395751953125,0.47781622409820557,-1.3467433452606201,0.4658759534358978
1733768667944356400,6.0743564453125,0.4674155116081238,-1.1057631969451904,0.4120533764362335
1733768667954316500,6.084316650390625,0.47138282656669617,-0.877469003200531,0.3389908969402313
1733768667964277500,6.094277587890625,0.4888190031051636,-0.6780408024787903,0.22121363878250122
1733768667974237400,6.104237548828125,0.5548755526542664,-0.6922863125801086,0.11768245697021484
1733768667984197600,6.11419775390625,0.5301164388656616,-0.6119536757469177,0.054525867104530334
1733768667994158600,6.12415869140625,0.4230286180973053,-0.5586763620376587,-0.012398308143019676
1733768668004118500,6.134118408203125,0.33259618282318115,-0.4712405800819397,-0.05197054520249367
1733768668014079500,6.14407958984375,0.2635872960090637,-0.4192753732204437,-0.10807589441537857
1733768668024039400,6.154039306640625,0.22849807143211365,-0.4115501046180725,-0.1958400309085846
1733768668033999400,6.163999267578125,0.26702681183815,-0.4513323903083801,-0.30716174840927124
1733768668043960600,6.173960693359375,0.2913953363895416,-0.4591108560562134,-0.43863099813461304
1733768668053920500,6.18392041015625,0.32820290327072144,-0.44146502017974854,-0.5973525047302246
1733768668063881700,6.1938818359375,0.33852478861808777,-0.3156738579273224,-0.7559774518013
1733768668073841700,6.203841552734375,0.30810216069221497,-0.18254084885120392,-0.8564987182617188
1733768668083801600,6.213801513671875,0.28442487120628357,-0.021468600258231163,-0.713520348072052
1733768668093762600,6.223762451171875,0.25171804428100586,0.0703984722495079,-0.0650738850235939
1733768668103722500,6.233722412109375,0.03883858025074005,-0.31360089778900146,0.37089940905570984
1733768668113683500,6.243683349609375,-0.1661936640739441,-0.7800277471542358,0.01950703375041485
1733768668123643600,6.2536435546875,-0.31767770648002625,-0.8765572309494019,-0.4962266981601715
1733768668133603600,6.263603515625,-0.3398032486438751,-0.5850433707237244,-0.6082842946052551
1733768668143564500,6.273564453125,-0.20770420134067535,0.014062488451600075,-0.48014262318611145
1733768668153524700,6.283524658203125,-0.09183219820261002,0.7773556113243103,-0.27316388487815857
1733768668163485400,6.2934853515625,-0.07947299629449844,1.2266607284545898,-0.05639129877090454
1733768668173445400,6.3034453125,-0.2038884311914444,1.1789171695709229,0.0047109355218708515
1733768668183405600,6.313405517578125,-0.4542575180530548,0.8250758647918701,-0.17739474773406982
1733768668193366500,6.323366455078125,-0.7163070440292358,0.2982352375984192,-0.4337040185928345
1733768668203326500,6.333326416015625,-0.8378283381462097,-0.22226738929748535,-0.5139877200126648
1733768668213287700,6.34328759765625,-0.8189379572868347,-0.7406900525093079,-0.3969753086566925
1733768668223247600,6.35324755859375,-0.7799705862998962,-1.2957463264465332,-0.258648544549942
1733768668233208300,6.363208251953125,-0.8565657734870911,-1.5643165111541748,-0.2065909504890442
1733768668243168500,6.37316845703125,-0.9493926763534546,-1.4266127347946167,-0.2906065881252289
1733768668253128400,6.38312841796875,-0.8137462139129639,-1.0620847940444946,-0.4837648570537567
1733768668263089400,6.39308935546875,-0.4355974793434143,-0.6160817742347717,-0.6261301636695862
1733768668273049600,6.403049560546875,-0.017373070120811462,-0.3198792040348053,-0.6319478154182434
1733768668283010600,6.413010498046875,0.255817174911499,-0.18309493362903595,-0.5126597285270691
1733768668292970500,6.422970458984375,0.37710100412368774,-0.1979985237121582,-0.3562498986721039
1733768668302930700,6.4329306640625,0.43012017011642456,-0.342052698135376,-0.28653720021247864
1733768668312891400,6.442891357421875,0.4682568907737732,-0.5398927927017212,-0.3030272424221039
1733768668322851300,6.452851318359375,0.4899872839450836,-0.7160661220550537,-0.3693734109401703
1733768668332812500,6.4628125,0.45726317167282104,-0.869365394115448,-0.47727832198143005
1733768668342772500,6.4727724609375,0.3547253906726837,-1.077191948890686,-0.5879348516464233
1733768668352732400,6.482732421875,0.2092355638742447,-1.1823806762695312,-0.6473094820976257
1733768668362693600,6.492693603515625,0.11657574772834778,-1.1953140497207642,-0.6418564915657043
1733768668372653600,6.502653564453125,0.07033421099185944,-1.2441051006317139,-0.6383482813835144
1733768668382614500,6.512614501953125,0.051639869809150696,-1.3337093591690063,-0.6322067379951477
1733768668392574500,6.522574462890625,0.05938700959086418,-1.409359335899353,-0.6280466318130493
1733768668402534400,6.532534423828125,0.07627204805612564,-1.3629368543624878,-0.6062450408935547
1733768668412495600,6.54249560546875,0.0903356671333313,-1.2078781127929688,-0.5878114700317383
1733768668422455600,6.55245556640625,0.1250317394733429,-1.0048243999481201,-0.585446298122406
1733768668432416500,6.56241650390625,0.16049893200397491,-0.8019360899925232,-0.5839173793792725
1733768668442376700,6.572376708984375,0.16150586307048798,-0.543274462223053,-0.5700514316558838
1733768668452336600,6.582336669921875,0.1393028199672699,-0.1993623673915863,-0.5189991593360901
1733768668462297300,6.59229736328125,0.11640849709510803,0.1631677895784378,-0.43637120723724365
1733768668472257500,6.602257568359375,0.06481906771659851,0.4319473206996918,-0.3561045825481415
1733768668482218500,6.612218505859375,-0.011571171693503857,0.5531221628189087,-0.2886463403701782
1733768668492178400,6.622178466796875,-0.10984261333942413,0.5342578887939453,-0.20573122799396515
1733768668502138600,6.632138671875,-0.19688670337200165,0.5110129714012146,-0.08691488206386566
1733768668512099600,6.642099609375,-0.2641727924346924,0.46932655572891235,0.034248024225234985
1733768668522059500,6.6520595703125,-0.29518917202949524,0.3382178843021393,0.11702533811330795
1733768668532020500,6.6620205078125,-0.295284241437912,0.16199252009391785,0.13595987856388092
1733768668541980400,6.67198046875,-0.29917779564857483,0.009223641827702522,0.11012008041143417
1733768668551940400,6.6819404296875,-0.30191072821617126,-0.10882043838500977,0.049657002091407776
1733768668561901600,6.691901611328125,-0.257619708776474,-0.13980747759342194,-0.05482672154903412
1733768668571861500,6.701861572265625,-0.204199880361557,-0.10516029596328735,-0.26344597339630127
1733768668581822700,6.71182275390625,-0.16898250579833984,-0.07612364739179611,-0.5185694694519043
1733768668591782700,6.72178271484375,-0.14903196692466736,-0.03746679797768593,-0.7552052140235901
1733768668601742600,6.73174267578125,-0.14698827266693115,-0.05682598426938057,-0.9481504559516907
1733768668611703600,6.74170361328125,-0.170759379863739,-0.14982809126377106,-1.0882441997528076
1733768668621663500,6.75166357421875,-0.19454406201839447,-0.2855239510536194,-1.1841967105865479
1733768668631624400,6.76162451171875,-0.19944080710411072,-0.36081230640411377,-1.2265281677246094
1733768668641584600,6.771584716796875,-0.16003315150737762,-0.27951377630233765,-1.2172718048095703
1733768668651545600,6.781545654296875,-0.09258060902357101,-0.15582938492298126,-1.1247434616088867
1733768668661505500,6.791505615234375,-0.029559770599007607,-0.11720358580350876,-0.882597029209137
1733768668671465700,6.8014658203125,0.045902762562036514,-0.16219237446784973,-0.5903699398040771
1733768668681426400,6.811426513671875,0.09169334173202515,-0.45090749859809875,0.887253999710083
1733768668691386400,6.821386474609375,0.12398523837327957,-2.226351499557495,3.9081249237060547
1733768668701347600,6.83134765625,0.17464597523212433,-2.425548791885376,3.252624988555908
1733768668711307500,6.8413076171875,0.024921448901295662,-0.6469900012016296,2.3119351863861084
1733768668721267500,6.851267333984375,-0.25944462418556213,1.632110595703125,1.6597081422805786
1733768668731228700,6.861228759765625,-0.3452402353286743,3.1319217681884766,1.2755833864212036
1733768668741188600,6.871188720703125,-0.4162987470626831,3.6895177364349365,1.2089097499847412
1733768668751149600,6.881149658203125,-0.582700788974762,3.9725613594055176,1.193912386894226
1733768668761109500,6.891109619140625,-0.7765317559242249,4.4675116539001465,1.1275917291641235
1733768668771069400,6.9010693359375,-0.8453994989395142,4.74034309387207,1.0858932733535767
1733768668781030400,6.911030517578125,-0.7671308517456055,4.409195899963379,1.1763235330581665
1733768668790990600,6.920990478515625,-0.5280695557594299,2.793116331100464,1.2526119947433472
1733768668800951600,6.93095166015625,-0.4560249447822571,1.1424978971481323,1.2656478881835938
1733768668810911500,6.940911376953125,-0.47931987047195435,0.2397150695323944,1.2580735683441162
1733768668820871700,6.95087158203125,-0.41742420196533203,-0.0644039660692215,1.0600968599319458
1733768668830832400,6.960832275390625,-0.27124518156051636,0.007212696596980095,0.7186035513877869
1733768668840792300,6.970792236328125,-0.1334204524755478,0.3793237805366516,0.465059369802475
1733768668850753500,6.98075341796875,-0.0250010397285223,0.8413665294647217,0.4094592034816742
1733768668860713500,6.99071337890625,0.10044777393341064,1.1091678142547607,0.5816381573677063
1733768668870673400,7.00067333984375,0.19473353028297424,1.1406511068344116,0.8594639301300049
1733768668880634600,7.010634521484375,0.2556116580963135,0.8071929812431335,0.9722413420677185
1733768668890594600,7.020594482421875,0.3072894811630249,0.3502638041973114,0.9006209969520569
1733768668900555300,7.03055517578125,0.3686419427394867,0.185988187789917,0.7703456878662109
1733768668910515500,7.040515380859375,0.4447993040084839,0.16047616302967072,0.6342573761940002
1733768668920475400,7.050475341796875,0.5400815010070801,0.17948788404464722,0.5032685399055481
1733768668930436400,7.060436279296875,0.6514075398445129,0.15535885095596313,0.40939104557037354
1733768668940396500,7.070396484375,0.7441244721412659,0.02639562077820301,0.355523020029068
1733768668950357500,7.080357421875,0.8000718951225281,-0.1775820106267929,0.3572540879249573
1733768668960317400,7.0903173828125,0.7877075672149658,-0.39674878120422363,0.37604427337646484
1733768668970277600,7.100277587890625,0.7287933826446533,-0.5682792663574219,0.4014502763748169
1733768668980238300,7.11023828125,0.68224036693573,-0.6846882700920105,0.3885221481323242
1733768668990198300,7.1201982421875,0.6691226959228516,-0.7923891544342041,0.33804139494895935
1733768669000159500,7.130159423828125,0.6589368581771851,-0.8218789100646973,0.2517828941345215
1733768669010119400,7.140119384765625,0.6438897252082825,-0.7592482566833496,0.16828668117523193
1733768669020079400,7.150079345703125,0.6166512370109558,-0.6486580967903137,0.07781068235635757
1733768669030040600,7.16004052734375,0.6062819361686707,-0.5392136573791504,-0.041380155831575394
1733768669040000500,7.17000048828125,0.6054096221923828,-0.43820473551750183,-0.1536731719970703
1733768669049961500,7.17996142578125,0.5813724398612976,-0.33881714940071106,-0.24729953706264496
1733768669059921400,7.18992138671875,0.5394405126571655,-0.28711122274398804,-0.338561475276947
1733768669069881300,7.19988134765625,0.4908261001110077,-0.29289641976356506,-0.4237120747566223
1733768669079842600,7.209842529296875,0.468317449092865,-0.32065272331237793,-0.5006540417671204
1733768669089802500,7.219802490234375,0.42838573455810547,-0.3989810645580292,-0.5684237480163574
1733768669099763500,7.229763427734375,0.374772310256958,-0.5024930834770203,-0.5892408490180969
1733768669109723600,7.2397236328125,0.298596054315567,-0.6749594211578369,-0.5507941246032715
1733768669119683600,7.24968359375,0.20102058351039886,-0.9104067087173462,-0.48344889283180237
1733768669129644300,7.259644287109375,0.11691529303789139,-1.1547267436981201,-0.35219207406044006
1733768669139604500,7.2696044921875,0.10705220699310303,-1.3539764881134033,-0.06828050315380096
1733768669149565400,7.2795654296875,0.1849808245897293,-1.451867938041687,0.19918422400951385
1733768669159525400,7.289525390625,0.2780925929546356,-1.485783576965332,0.36773496866226196
1733768669169486600,7.299486572265625,0.3240813910961151,-1.5284290313720703,0.43004921078681946
1733768669179446500,7.309446533203125,0.30883505940437317,-1.5090817213058472,0.4515100121498108
1733768669189406500,7.319406494140625,0.27204322814941406,-1.4573431015014648,0.4765698313713074
1733768669199367400,7.329367431640625,0.23397286236286163,-1.4339206218719482,0.47991809248924255
1733768669209327400,7.339327392578125,0.22561587393283844,-1.3351421356201172,0.40025708079338074
1733768669219288300,7.349288330078125,0.27454227209091187,-1.1382501125335693,0.26499730348587036
1733768669229248500,7.35924853515625,0.32796260714530945,-0.8760416507720947,0.13115987181663513
1733768669239208400,7.36920849609375,0.328669935464859,-0.6182392239570618,0.038618892431259155
1733768669249169400,7.37916943359375,0.31842130422592163,-0.41188177466392517,-0.07106979191303253
1733768669259129600,7.389129638671875,0.3136911988258362,-0.2819657325744629,-0.25603047013282776
1733768669269089500,7.399089599609375,0.289794921875,-0.19706815481185913,-0.5327103137969971
1733768669279050200,7.40905029296875,0.21734368801116943,0.0915050059556961,-0.8401325345039368
1733768669289010400,7.419010498046875,0.1130652204155922,0.6570972800254822,-1.0337011814117432
1733768669298971400,7.428971435546875,0.1431407779455185,1.223831057548523,-0.8366775512695312
1733768669308931300,7.438931396484375,0.4075053036212921,1.6152273416519165,-0.05543818324804306
1733768669318892500,7.448892578125,0.433188796043396,1.529282569885254,0.14851701259613037
1733768669328852500,7.4588525390625,0.00419960729777813,1.4640278816223145,-0.3018972873687744
1733768669338812400,7.4688125,-0.29576361179351807,1.5407638549804688,-0.5840728878974915
1733768669348773400,7.4787734375,-0.2213924676179886,1.7095239162445068,-0.5886591076850891
1733768669358733300,7.4887333984375,-0.0271151140332222,2.075767993927002,-0.44579294323921204
1733768669368694500,7.498694580078125,-0.0040468135848641396,2.272881507873535,-0.2645925283432007
1733768669378654500,7.508654541015625,-0.1583135724067688,2.021416425704956,-0.13385434448719025
1733768669388614400,7.518614501953125,-0.39978423714637756,1.452012062072754,-0.0751018226146698
1733768669398575600,7.52857568359375,-0.5408938527107239,0.7716190218925476,0.01719346083700657
1733768669408535600,7.53853564453125,-0.6601240634918213,-0.07163446396589279,0.08526412397623062
1733768669418496300,7.548496337890625,-0.8594970703125,-0.9147148132324219,0.013774169608950615
1733768669428456400,7.55845654296875,-1.1623295545578003,-1.7632306814193726,-0.14669620990753174
1733768669438416400,7.56841650390625,-1.4599363803863525,-2.404381513595581,-0.3638532757759094
1733768669448377300,7.57837744140625,-1.5463963747024536,-2.516177177429199,-0.6642578840255737
1733768669458337500,7.588337646484375,-1.408136248588562,-1.9312058687210083,-1.0048909187316895
1733768669468298500,7.598298583984375,-1.0116088390350342,-0.7179855108261108,-1.1502286195755005
1733768669478258400,7.608258544921875,-0.4754064083099365,0.4920327961444855,-1.041991949081421
1733768669488218600,7.618218505859375,-0.041802242398262024,1.3243886232376099,-0.7786258459091187
1733768669498179300,7.628179443359375,0.16457635164260864,1.6544969081878662,-0.5690876245498657
1733768669508139300,7.63813916015625,0.23744657635688782,1.6630085706710815,-0.5109843611717224
1733768669518100500,7.6481005859375,0.309434175491333,1.4571187496185303,-0.5487070083618164
1733768669528060400,7.658060302734375,0.37787899374961853,1.157881736755371,-0.6101581454277039
1733768669538020400,7.668020263671875,0.38952669501304626,0.8015643954277039,-0.648219883441925
1733768669547981600,7.677981689453125,0.3489033877849579,0.48380422592163086,-0.6300517916679382
1733768669557941500,7.68794140625,0.27314457297325134,0.2220955342054367,-0.5798807740211487
1733768669567902500,7.69790234375,0.19905570149421692,-0.024345936253666878,-0.5371596813201904
1733768669577862400,7.7078623046875,0.15535463392734528,-0.28290435671806335,-0.5722506046295166
1733768669587822300,7.717822265625,0.1272692084312439,-0.5337075591087341,-0.6585758924484253
1733768669597783600,7.727783447265625,0.09388773143291473,-0.730241596698761,-0.6942698955535889
1733768669607743500,7.737743408203125,0.06405872851610184,-0.8554672002792358,-0.6318696141242981
1733768669617704400,7.747704345703125,0.04818342626094818,-0.8944640159606934,-0.5413409471511841
1733768669627664600,7.75766455078125,0.04691709205508232,-0.8577739000320435,-0.5044457912445068
1733768669637624600,7.76762451171875,0.07693997770547867,-0.7829542756080627,-0.5321927070617676
1733768669647585300,7.777585205078125,0.12205818295478821,-0.6494998335838318,-0.6311363577842712
1733768669657545500,7.78754541015625,0.11157185584306717,-0.4534454345703125,-0.7866150736808777
1733768669667506400,7.79750634765625,0.011509440839290619,-0.09227153658866882,-0.9030271768569946
1733768669677466400,7.80746630859375,-0.11006607115268707,0.3231181502342224,-0.880371630191803
1733768669687426600,7.817426513671875,-0.16222435235977173,0.5859599113464355,-0.7117384076118469
1733768669697387500,7.827387451171875,-0.14927564561367035,0.6084776520729065,-0.5341680645942688
1733768669707347500,7.837347412109375,-0.15706965327262878,0.5012359023094177,-0.41530951857566833
1733768669717308400,7.847308349609375,-0.17715442180633545,0.3596257269382477,-0.305820107460022
1733768669727268400,7.857268310546875,-0.15833519399166107,0.16833166778087616,-0.16979119181632996
1733768669737228300,7.867228271484375,-0.09421944618225098,-0.0012063132598996162,-0.02979402057826519
1733768669747189500,7.877189453125,-0.013872941955924034,-0.16543200612068176,0.035039838403463364
1733768669757149400,7.8871494140625,0.03632291033864021,-0.28252294659614563,0.04852428287267685
1733768669767110400,7.8971103515625,0.0630786269903183,-0.35494521260261536,0.03089522011578083
1733768669777070600,7.907070556640625,0.09301761537790298,-0.3426856994628906,-0.014277171343564987
1733768669787030500,7.917030517578125,0.11652667075395584,-0.23009604215621948,-0.09124518930912018
1733768669796991200,7.9269912109375,0.1580428183078766,-0.04743959754705429,-0.16253386437892914
1733768669806951400,7.936951416015625,0.15704652667045593,0.20861640572547913,-0.20172999799251556
1733768669816912400,7.946912353515625,0.12088579684495926,0.532595157623291,-0.25407078862190247
1733768669826872300,7.956872314453125,0.07655002176761627,0.8272241353988647,-0.34927478432655334
1733768669836832500,7.96683251953125,0.047756463289260864,1.0453474521636963,-0.46143075823783875
1733768669846794200,7.976794189453125,0.041381120681762695,1.1937710046768188,-0.5577011108398438
1733768669856754200,7.986754150390625,0.007320408243685961,1.2794824838638306,-0.6621426343917847
1733768669866715100,7.996715087890625,-0.058141157031059265,1.3517534732818604,-0.7560296654701233
1733768669876675000,8.006675048828125,-0.09787710011005402,1.3825663328170776,-0.8072167038917542
1733768669886635000,8.016635009765626,-0.0699583888053894,1.2994383573532104,-0.8042118549346924
1733768669896596200,8.02659619140625,-0.07554589211940765,1.1199787855148315,-0.7776974439620972
1733768669906556200,8.03655615234375,-0.17172463238239288,0.8847480416297913,-0.7576150894165039
1733768669916517400,8.046517333984376,-0.26246586441993713,0.6210619211196899,-0.790375828742981
1733768669926477300,8.056477294921875,-0.3099028766155243,0.353319376707077,-0.8520368337631226
1733768669936438000,8.06643798828125,-0.36595848202705383,0.14422322809696198,-0.9086740016937256
1733768669946398200,8.076398193359376,-0.42468199133872986,0.1234726756811142,-0.9639337658882141
1733768669956358100,8.086358154296875,-0.4334008991718292,0.3014914393424988,-1.017889380455017
1733768669966319000,8.096319091796875,-0.3555508553981781,0.6548588275909424,-1.002800464630127
1733768669976279300,8.106279296875,-0.2402268648147583,1.0362920761108398,-0.8850071430206299
1733768669986239200,8.1162392578125,-0.14174768328666687,1.346416711807251,-0.5503506064414978
1733768669996200200,8.1262001953125,-0.022000519558787346,1.8277852535247803,1.3248201608657837
1733768670006160400,8.136160400390626,0.2492261826992035,1.0929296016693115,2.0733416080474854
1733768670016121000,8.14612109375,0.4692515730857849,0.614516019821167,1.8433315753936768
1733768670026081000,8.1560810546875,0.37635836005210876,0.8860255479812622,1.7104425430297852
1733768670036042200,8.166042236328124,0.24225468933582306,1.3735156059265137,1.5632367134094238
1733768670046002200,8.176002197265625,0.210092231631279,1.8734763860702515,1.3682235479354858
1733768670055962000,8.185962158203125,0.19354742765426636,2.4307503700256348,1.140843391418457
1733768670065923300,8.19592333984375,0.05283823981881142,2.9260284900665283,0.9645293354988098
1733768670075883300,8.20588330078125,-0.1257161796092987,3.4152848720550537,0.9513173699378967
1733768670085844200,8.21584423828125,-0.1816265881061554,3.8089537620544434,1.0988130569458008
1733768670095804200,8.22580419921875,-0.17274215817451477,3.916661262512207,1.2451249361038208
1733768670105764000,8.23576416015625,-0.1734769344329834,3.6069204807281494,1.2976480722427368
1733768670115725300,8.245725341796875,-0.188343808054924,2.82584810256958,1.1849565505981445
1733768670125685200,8.255685302734374,-0.1940179467201233,1.8080837726593018,0.9638664722442627
1733768670135646200,8.265646240234375,-0.18212167918682098,0.8452150225639343,0.7194287180900574
1733768670145606400,8.2756064453125,-0.158771350979805,0.1245841309428215,0.5985867381095886
1733768670155566300,8.28556640625,-0.1888754516839981,-0.19732357561588287,0.5846693515777588
1733768670165527000,8.295527099609375,-0.22578313946723938,-0.1598355919122696,0.5785015225410461
1733768670175487000,8.305487060546875,-0.2135142832994461,0.08714872598648071,0.535856306552887
1733768670185448200,8.3154482421875,-0.16073602437973022,0.446920245885849,0.42533302307128906
1733768670195408100,8.325408203125,-0.05115075036883354,0.9452905058860779,0.2816189229488373
1733768670205368000,8.3353681640625,0.10510782897472382,1.4763437509536743,0.176555335521698
1733768670215329300,8.345329345703124,0.24287888407707214,1.8634302616119385,0.1106669157743454
1733768670225289200,8.355289306640625,0.3598425090312958,1.9921573400497437,0.10486601293087006
1733768670235249200,8.365249267578125,0.45524269342422485,1.7474606037139893,0.15829451382160187
1733768670245210000,8.375210205078124,0.4974260628223419,1.3138535022735596,0.34363988041877747
1733768670255170000,8.385170166015625,0.5078631639480591,0.8770793676376343,0.5833926200866699
1733768670265131300,8.39513134765625,0.4789329767227173,0.4254186451435089,0.776391327381134
1733768670275091200,8.40509130859375,0.4775581657886505,0.10347573459148407,0.8427512049674988
1733768670285052200,8.41505224609375,0.4941520690917969,0.1009334921836853,0.7772449254989624
1733768670295012400,8.425012451171876,0.523834228515625,0.34527069330215454,0.6208357810974121
1733768670304972300,8.43497216796875,0.5721956491470337,0.6315684914588928,0.43218493461608887
1733768670314933000,8.44493310546875,0.611320972442627,0.8478086590766907,0.289335697889328
1733768670324893200,8.45489306640625,0.6202241778373718,0.9744665026664734,0.20018184185028076
1733768670334853000,8.46485302734375,0.5763378143310547,0.950823187828064,0.15342283248901367
1733768670344814000,8.47481396484375,0.49979910254478455,0.8467069268226624,0.14019010961055756
1733768670354774300,8.484774169921875,0.41633668541908264,0.7173001766204834,0.11326682567596436
1733768670364735200,8.4947353515625,0.3536916673183441,0.6102733016014099,0.046826813369989395
1733768670374695200,8.504695068359375,0.3085692226886749,0.541278600692749,-0.05768641456961632
1733768670384655400,8.5146552734375,0.2916155159473419,0.4891509413719177,-0.16685019433498383
1733768670394616000,8.524615966796874,0.28758782148361206,0.44270655512809753,-0.24007165431976318
1733768670404576000,8.534575927734375,0.28322529792785645,0.4067469537258148,-0.2766821086406708
1733768670414537200,8.544537109375,0.2781774699687958,0.3952851891517639,-0.28384044766426086
1733768670424497200,8.5544970703125,0.2732194662094116,0.3748302459716797,-0.27369219064712524
1733768670434457000,8.56445703125,0.25548428297042847,0.309176504611969,-0.2523464858531952
1733768670444418300,8.574418212890626,0.23611217737197876,0.18203771114349365,-0.19732795655727386
1733768670454378200,8.584378173828124,0.2723788321018219,-0.009698424488306046,-0.08945449441671371
1733768670464339200,8.594339111328125,0.2641354203224182,-0.1900731474161148,0.0521543025970459
1733768670474299100,8.604299072265626,0.2314518541097641,-0.32171574234962463,0.19327019155025482
1733768670484259000,8.614259033203124,0.20813189446926117,-0.3921244144439697,0.3223288655281067
1733768670494220300,8.62422021484375,0.18379457294940948,-0.44949519634246826,0.43291062116622925
1733768670504180200,8.63418017578125,0.15782290697097778,-0.5356812477111816,0.5316129326820374
1733768670514141200,8.64414111328125,0.12848111987113953,-0.6734344959259033,0.6220381855964661
1733768670524101400,8.654101318359375,0.08546440303325653,-0.802208423614502,0.7071179151535034
1733768670534061300,8.664061279296876,0.039782628417015076,-0.8733642101287842,0.7030101418495178
1733768670544022000,8.67402197265625,0.0286191888153553,-0.9178669452667236,0.5554741621017456
1733768670553982200,8.683982177734375,0.0814230740070343,-0.8788948655128479,0.3701171875
1733768670563943200,8.693943115234376,0.16320157051086426,-0.7080029845237732,0.3328568935394287
1733768670573903000,8.703903076171875,0.21914704144001007,-0.44539546966552734,0.6406374573707581
1733768670583863300,8.71386328125,0.2820304334163666,-0.5010651350021362,0.9747464656829834
1733768670593824300,8.72382421875,0.4219028353691101,-0.7551238536834717,1.061566710472107
1733768670603784200,8.7337841796875,0.5442383289337158,-1.151206135749817,0.04594281688332558
1733768670613745200,8.7437451171875,0.4136016070842743,-0.902927041053772,-0.9030521512031555
1733768670623705000,8.753705078125,0.021569663658738136,-0.5051517486572266,-1.5758743286132812
1733768670633665000,8.7636650390625,-0.22340135276317596,-0.2649327516555786,-1.5967626571655273
1733768670643626200,8.773626220703125,0.03954293578863144,0.7475368976593018,-0.7363422513008118
1733768670653586200,8.783586181640626,0.4982376992702484,2.068732738494873,0.3389710783958435
1733768670663547400,8.79354736328125,0.6344287991523743,2.5935325622558594,0.6241154670715332
1733768670673507300,8.80350732421875,0.43310999870300293,2.426065444946289,0.22147126495838165
1733768670683467300,8.81346728515625,0.06331278383731842,1.9802709817886353,-0.47161880135536194
1733768670693428200,8.82342822265625,-0.4317639470100403,1.5426315069198608,-1.1591776609420776
1733768670703388200,8.83338818359375,-1.1661479473114014,1.4406728744506836,-1.4042457342147827
1733768670713349000,8.84334912109375,-1.6927564144134521,1.5745056867599487,-1.0834211111068726
1733768670723309300,8.853309326171875,-1.725919485092163,1.715298056602478,-0.5579470992088318
1733768670733269200,8.863269287109375,-1.5540578365325928,1.3569198846817017,-0.23510326445102692
1733768670743230200,8.873230224609374,-1.3648982048034668,0.6842366456985474,-0.2897494435310364
1733768670753190400,8.8831904296875,-1.2323346138000488,0.14638054370880127,-0.5967292189598083
1733768670763151000,8.893151123046875,-1.116927146911621,-0.3138864040374756,-1.0447325706481934
1733768670773111000,8.903111083984374,-1.124289631843567,-0.600368857383728,-1.4656305313110352
1733768670783071200,8.9130712890625,-1.1842595338821411,-0.6950461268424988,-1.6098252534866333
1733768670793032200,8.9230322265625,-1.1243761777877808,-0.723164975643158,-1.420129418373108
1733768670802992000,8.9329921875,-0.9727411866188049,-0.8379237651824951,-1.1009633541107178
1733768670812953300,8.942953369140625,-0.8214107155799866,-0.9397854208946228,-0.9534429907798767
1733768670822913300,8.952913330078125,-0.6527098417282104,-0.8553805351257324,-0.9725887179374695
1733768670832873200,8.962873291015624,-0.3948247730731964,-0.5237109661102295,-0.9885788559913635
1733768670842834000,8.972833984375,-0.1117754876613617,-0.02838512696325779,-0.8339725136756897
1733768670852793900,8.9827939453125,0.08281556516885757,0.37577858567237854,-0.5474094748497009
1733768670862755000,8.992755126953124,0.24277035892009735,0.5168646574020386,-0.32586750388145447
1733768670872715000,9.002715087890625,0.35774707794189453,0.47025731205940247,-0.2873997688293457
1733768670882675000,9.012675048828125,0.37731170654296875,0.36324939131736755,-0.3720510005950928
1733768670892636200,9.02263623046875,0.4180658161640167,0.22750641405582428,-0.4299064576625824
1733768670902596000,9.03259619140625,0.4135320484638214,0.06332545727491379,-0.5527471899986267
1733768670912557000,9.04255712890625,0.3494468033313751,-0.06643496453762054,-0.6908257603645325
1733768670922517000,9.05251708984375,0.19508226215839386,-0.08281047642230988,-0.7653865218162537
1733768670932477000,9.062476806640625,0.0007131807506084442,0.008154332637786865,-0.7418915629386902
1733768670942438100,9.072438232421876,-0.02766306698322296,0.07080386579036713,-0.6620998382568359
1733768670952398000,9.082398193359374,0.07272919267416,0.025293754413723946,-0.6432244181632996
1733768670962359000,9.092359130859375,0.10358191281557083,-0.06614507734775543,-0.7099578976631165
1733768670972319200,9.1023193359375,0.08510496467351913,-0.12176834791898727,-0.8399484157562256
1733768670982279200,9.112279052734374,0.10608454793691635,-0.158163920044899,-0.9476940631866455
1733768670992239900,9.122239990234375,0.14595234394073486,-0.09920965135097504,-0.979705274105072
1733768671002200000,9.132199951171875,0.1664416342973709,0.112339086830616,-0.9678792357444763
1733768671012161000,9.1421611328125,0.16290821135044098,0.41289016604423523,-0.9619985222816467
1733768671022121000,9.152120849609375,0.1398247331380844,0.6494153141975403,-0.973933756351471
1733768671032081200,9.1620810546875,0.103243887424469,0.7413495779037476,-1.0228595733642578
1733768671042042000,9.1720419921875,0.03674875199794769,0.7826991081237793,-1.059903621673584
1733768671052002000,9.182001953125,-0.06301680207252502,0.7985462546348572,-1.0537033081054688
1733768671061963000,9.191962890625,-0.11244666576385498,0.8201431035995483,-1.0032178163528442
1733768671071923000,9.2019228515625,-0.1380707323551178,0.8617643713951111,-0.908999502658844
1733768671081883000,9.2118828125,-0.18715278804302216,0.9010939598083496,-0.8213833570480347
1733768671091844000,9.221843994140626,-0.2691270112991333,0.9750957489013672,-0.7872914671897888
1733768671101804000,9.231803955078124,-0.3132835626602173,1.0700938701629639,-0.7893746495246887
1733768671111765200,9.24176513671875,-0.2992923855781555,1.1287575960159302,-0.780868411064148
1733768671121725200,9.25172509765625,-0.31879550218582153,1.1199345588684082,-0.7383209466934204
1733768671131685000,9.26168505859375,-0.37870171666145325,1.0788640975952148,-0.6825217008590698
1733768671141646000,9.27164599609375,-0.36807572841644287,1.1094579696655273,-0.5834531784057617
1733768671151606000,9.28160595703125,-0.2686728239059448,1.1290658712387085,-0.42265358567237854
1733768671161567000,9.29156689453125,-0.10583249479532242,1.0944812297821045,-0.22635678946971893
1733768671171527200,9.301527099609375,0.030535250902175903,1.6469922065734863,0.7132782340049744
1733768671181487000,9.311487060546876,0.2478950023651123,2.4154772758483887,2.270310640335083
1733768671191448000,9.321447998046875,0.40287667512893677,1.5496574640274048,2.1627674102783203
1733768671201408300,9.331408203125,0.5156798958778381,0.9455439448356628,2.2060041427612305
1733768671211369000,9.341368896484376,0.4785781502723694,0.8066852688789368,2.4248480796813965
1733768671221329000,9.351328857421874,0.34655648469924927,0.7905043959617615,2.4223008155822754
1733768671231289000,9.3612890625,0.19102494418621063,0.7426652312278748,2.256575107574463
1733768671241250000,9.37125,0.02203219197690487,1.0479815006256104,2.0717782974243164
1733768671251210000,9.3812099609375,-0.11243154853582382,1.872454285621643,2.009779214859009
1733768671261171200,9.391171142578125,-0.06273403763771057,2.5646567344665527,1.9883110523223877
1733768671271131100,9.401131103515626,0.02194015309214592,2.693892478942871,1.7575500011444092
1733768671281091000,9.411091064453124,0.012443054467439651,2.2158052921295166,1.4450381994247437
1733768671291052000,9.421052001953125,-0.010848332196474075,1.1476513147354126,1.2404894828796387
1733768671301012000,9.431011962890626,-0.044006019830703735,-0.024774746969342232,1.1476397514343262
1733768671310973000,9.440972900390625,-0.03836863487958908,-0.8756129741668701,1.0327574014663696
1733768671320933000,9.45093310546875,-0.05823767930269241,-1.0445358753204346,0.8355996608734131
1733768671330893000,9.46089306640625,-0.08284922689199448,-0.4156171381473541,0.7058582901954651
1733768671340854000,9.47085400390625,0.00616746349260211,0.5052131414413452,0.6578779816627502
1733768671350814200,9.480814208984375,0.24257300794124603,1.3892948627471924,0.7077566385269165
1733768671360775000,9.49077490234375,0.45713135600090027,1.8922802209854126,0.9594511985778809
1733768671370734800,9.50073486328125,0.5651057362556458,1.585449457168579,1.1798840761184692
1733768671380695000,9.510695068359375,0.6344291567802429,0.6686383485794067,1.356083869934082
1733768671390656000,9.520656005859376,0.601871907711029,-0.24055732786655426,1.449213981628418
1733768671400616000,9.530615966796875,0.44970715045928955,-0.8885928392410278,1.3845587968826294
1733768671410576100,9.540576171875,0.30881455540657043,-1.1353613138198853,1.260998249053955
1733768671420537000,9.550537109375,0.2852937877178192,-0.9878496527671814,1.1611336469650269
1733768671430497000,9.5604970703125,0.35399651527404785,-0.5853314995765686,1.007691502571106
1733768671440458000,9.5704580078125,0.46288278698921204,-0.12556549906730652,0.8261569738388062
1733768671450418000,9.58041796875,0.5490859746932983,0.22712072730064392,0.6566382646560669
1733768671460379100,9.590379150390625,0.6306556463241577,0.4631385803222656,0.5475985407829285
1733768671470339000,9.600339111328125,0.6956847906112671,0.5830339193344116,0.4959610402584076
1733768671480299000,9.610299072265626,0.7201675176620483,0.5345260500907898,0.46409496665000916
1733768671490260200,9.62026025390625,0.7085396647453308,0.34379878640174866,0.45948347449302673
1733768671500220200,9.63022021484375,0.6846793293952942,0.22858138382434845,0.4280720055103302
1733768671510180000,9.64018017578125,0.6750538945198059,0.21683678030967712,0.33100658655166626
1733768671520141000,9.65014111328125,0.6670036911964417,0.15469004213809967,0.2680017948150635
1733768671530101000,9.66010107421875,0.6017061471939087,0.07450303435325623,0.20807339251041412
1733768671540062000,9.67006201171875,0.5112494826316833,0.06943637132644653,0.09961216896772385
1733768671550022100,9.680022216796875,0.44792118668556213,-0.00039905961602926254,0.0006894078105688095
1733768671559982000,9.689982177734375,0.37138432264328003,-0.053399693220853806,-0.0960584357380867
1733768671569943000,9.699943115234374,0.2810552418231964,-0.07825037837028503,-0.23035380244255066
1733768671579903200,9.7099033203125,0.20573943853378296,-0.10834810137748718,-0.3506897985935211
1733768671589864000,9.719864013671875,0.165668785572052,-0.16669055819511414,-0.43961620330810547
1733768671599824000,9.729823974609374,0.1372232884168625,-0.25565558671951294,-0.46815621852874756
1733768671609784000,9.7397841796875,0.11968384683132172,-0.3443138301372528,-0.40782180428504944
1733768671619745000,9.7497451171875,0.08300785720348358,-0.4201697111129761,-0.3127610683441162
1733768671629705000,9.759705078125,0.05780789256095886,-0.5105226635932922,-0.18400566279888153
1733768671639666200,9.769666259765625,0.07955633103847504,-0.5172346234321594,-0.052538175135850906
1733768671649626000,9.779626220703125,0.08599445968866348,-0.43632733821868896,0.0817207470536232
1733768671659586000,9.7895859375,0.0650407075881958,-0.3803916573524475,0.22424353659152985
1733768671669547000,9.799547119140625,0.027631137520074844,-0.3488679826259613,0.3555141091346741
1733768671679507000,9.8095068359375,-0.020559292286634445,-0.41256600618362427,0.3968769907951355
1733768671689468200,9.81946826171875,-0.0851711630821228,-0.5587479472160339,0.2637922465801239
1733768671699428000,9.829427978515625,-0.1469125598669052,-0.7910195589065552,0.0310540609061718
1733768671709388000,9.839387939453125,-0.24333956837654114,-1.039931058883667,-0.16236184537410736
1733768671719349200,9.849349365234374,-0.3203914761543274,-1.2926219701766968,-0.2757515013217926
1733768671729309200,9.85930908203125,-0.39249730110168457,-1.4710079431533813,-0.2886205017566681
1733768671739270000,9.869269775390626,-0.46257516741752625,-1.5548789501190186,-0.23035745322704315
1733768671749230000,9.87922998046875,-0.49168893694877625,-1.5826635360717773,-0.7016539573669434
1733768671759190000,9.88918994140625,-0.434468537569046,-1.2255895137786865,-1.239397644996643
1733768671769151000,9.89915087890625,-0.3650418519973755,-0.6171120405197144,-1.4727269411087036
1733768671779111200,9.909111083984374,-0.2877614498138428,0.210764080286026,-1.185181975364685
1733768671789072100,9.919072021484375,-0.2977372109889984,0.9480852484703064,-0.7710263729095459
1733768671799032000,9.929031982421876,-0.4576224982738495,1.730409860610962,-0.22717425227165222
1733768671808992300,9.9389921875,-0.38802632689476013,2.5764036178588867,-0.08590365201234818
1733768671818953000,9.948952880859375,-0.2535236179828644,3.212400436401367,-0.5504934787750244
1733768671828913000,9.958912841796876,-0.06616925448179245,3.9138057231903076,-0.9502204656600952
1733768671838874000,9.9688740234375,0.01048743911087513,3.7346158027648926,-1.2523441314697266
1733768671848833300,9.978833251953125,0.3938450217247009,2.8127224445343018,-1.4804956912994385
1733768671858793200,9.988793212890625,0.7240769863128662,2.3509109020233154,-1.3897618055343628
1733768671868754400,9.99875439453125,0.6868036985397339,2.111889123916626,-0.9670531153678894
1733768671878714400,10.00871435546875,0.29855877161026,1.5090293884277344,-0.24177923798561096
1733768671888675300,10.01867529296875,-0.2948593199253082,0.5474656820297241,0.3997548818588257
1733768671898635300,10.02863525390625,-0.9133260250091553,-0.4013054072856903,0.7525008916854858
1733768671908595200,10.03859521484375,-1.4208283424377441,-1.2340973615646362,0.8601605296134949
1733768671918556200,10.04855615234375,-1.6964024305343628,-2.018829345703125,0.747107744216919
1733768671928516400,10.058516357421874,-1.6633316278457642,-2.6933624744415283,0.49371376633644104
1733768671938477300,10.068477294921875,-1.3810306787490845,-3.2513113021850586,0.15695704519748688
1733768671948437200,10.078437255859376,-0.9895811080932617,-3.527353286743164,-0.3566836714744568
1733768671958397400,10.0883974609375,-0.6343641877174377,-3.3147544860839844,-0.9575839042663574
1733768671968358400,10.0983583984375,-0.4414037764072418,-2.5211334228515625,-1.4316221475601196
1733768671978318300,10.108318359375,-0.3705942928791046,-1.3634700775146484,-1.5703880786895752
1733768671988279300,10.118279296875,-0.3094986379146576,-0.14702202379703522,-1.405877947807312
1733768671998239200,10.1282392578125,-0.1726805865764618,0.8330236673355103,-1.1452810764312744
1733768672008199200,10.13819921875,0.030144572257995605,1.3850603103637695,-0.9656599760055542
1733768672018160400,10.148160400390625,0.2601253092288971,1.459313154220581,-0.9430774450302124
1733768672028120300,10.158120361328125,0.457627534866333,1.154883861541748,-0.9985445737838745
1733768672038081300,10.168081298828126,0.598548948764801,0.6465482115745544,-1.0074187517166138
1733768672048041200,10.178041259765624,0.6993417739868164,0.17211543023586273,-0.8944239616394043
1733768672058001200,10.188001220703125,0.6877825856208801,-0.16103297472000122,-0.7143045663833618
1733768672067962000,10.197962158203126,0.6107063293457031,-0.3972417712211609,-0.5452038049697876
1733768672077922300,10.20792236328125,0.5164003372192383,-0.6022692322731018,-0.4251554608345032
1733768672087883300,10.21788330078125,0.3750578463077545,-0.6888771057128906,-0.3670877516269684
1733768672097843200,10.22784326171875,0.20287646353244781,-0.6353944540023804,-0.4028843641281128
1733768672107803400,10.237803466796874,0.057096824049949646,-0.47911006212234497,-0.47082290053367615
1733768672117764400,10.247764404296875,-0.011637500487267971,-0.38700756430625916,-0.5258238911628723
1733768672127724300,10.257724365234376,-0.07712002843618393,-0.2479420304298401,-0.5357787013053894
1733768672137685200,10.267685302734375,-0.13640199601650238,-0.04320432245731354,-0.5201033353805542
1733768672147645200,10.277645263671875,-0.13611796498298645,0.16173924505710602,-0.5157389044761658
1733768672157605000,10.287605224609376,-0.09858231246471405,0.29472899436950684,-0.5622475743293762
1733768672167566300,10.29756640625,-0.05984604358673096,0.3328568637371063,-0.6611534357070923
1733768672177526300,10.3075263671875,-0.05007091164588928,0.37530630826950073,-0.8027303218841553
1733768672187487500,10.317487548828124,-0.03699764236807823,0.35273632407188416,-0.982079803943634
1733768672197447400,10.327447509765625,-0.06219727173447609,0.2371641993522644,-1.1332951784133911
1733768672207407400,10.337407470703125,-0.12663264572620392,0.1567293405532837,-1.1361024379730225
1733768672217368300,10.347368408203126,-0.15507441759109497,0.16470684111118317,-1.0146340131759644
1733768672227328300,10.357328369140625,-0.14562547206878662,0.20036527514457703,-0.866705596446991
1733768672237288200,10.3672880859375,-0.10744266211986542,0.18801432847976685,-0.7664322853088379
1733768672247249400,10.37724951171875,-0.05441964790225029,0.19052909314632416,-0.6945526003837585
1733768672257209300,10.387209228515625,-0.026949407532811165,0.19226014614105225,-0.6567271947860718
1733768672267170300,10.39717041015625,-0.03986979275941849,0.19907310605049133,-0.6379469037055969
1733768672277130200,10.407130126953126,-0.11552754044532776,0.25803282856941223,-0.5898342132568359
1733768672287090200,10.417090087890625,-0.18201182782649994,0.3302687406539917,-0.4970451593399048
1733768672297051100,10.427051025390625,-0.16894637048244476,0.30055132508277893,-0.3788847029209137
1733768672307011300,10.43701123046875,-0.1571391224861145,0.18790417909622192,-0.25878268480300903
1733768672316972300,10.44697216796875,-0.1832098662853241,0.0767773985862732,-0.19335387647151947
1733768672326932200,10.45693212890625,-0.169956237077713,0.022373490035533905,-0.2231646031141281
1733768672336892400,10.466892333984376,-0.13342273235321045,0.06011633947491646,-0.34363219141960144
1733768672346853400,10.476853271484375,-0.12593205273151398,0.15411387383937836,-0.4749929904937744
1733768672356813300,10.486813232421875,-0.14510415494441986,0.3183339834213257,-0.579779326915741
1733768672366774300,10.496774169921874,-0.17908447980880737,0.5601678490638733,-0.6279549598693848
1733768672376734200,10.506734130859375,-0.1918300986289978,0.8147103786468506,-0.5950343012809753
1733768672386694100,10.516694091796875,-0.1500535011291504,1.0597001314163208,-0.5107564926147461
1733768672396655400,10.5266552734375,-0.034406788647174835,1.204804539680481,-0.4197053909301758
1733768672406615300,10.536615234375,0.1642196923494339,1.081556797027588,-0.31852298974990845
1733768672416576500,10.546576416015625,0.42005839943885803,0.7134946584701538,-0.14058071374893188
1733768672426536400,10.556536376953124,0.6549088954925537,0.11279899626970291,0.1716146618127823
1733768672436496400,10.566496337890625,0.6837053894996643,-0.7391696572303772,0.9688465595245361
1733768672446457300,10.576457275390625,0.435745507478714,-1.9033948183059692,2.6744384765625
1733768672456417300,10.586417236328124,0.24041837453842163,-2.246947765350342,3.004601001739502
1733768672466378200,10.596378173828125,-0.1017923578619957,-1.3681589365005493,2.5145394802093506
1733768672476338400,10.60633837890625,-0.5217206478118896,0.09917598962783813,1.8969420194625854
1733768672486298400,10.61629833984375,-0.7704706192016602,1.695817232131958,1.3915245532989502
1733768672496259300,10.62625927734375,-0.8474482297897339,2.7801129817962646,1.0378735065460205
1733768672506219300,10.63621923828125,-0.8533418774604797,3.251591920852661,0.8918964266777039
1733768672516180200,10.64618017578125,-0.8009793162345886,3.3281428813934326,1.0556405782699585
1733768672526140200,10.65614013671875,-0.695777416229248,3.12325119972229,1.480750322341919
1733768672536100400,10.666100341796875,-0.546812117099762,2.7635178565979004,1.8848341703414917
1733768672546061300,10.676061279296874,-0.4059061110019684,2.504821300506592,2.052795886993408
1733768672556021200,10.686021240234375,-0.37823665142059326,2.2225308418273926,1.943031907081604
1733768672565982500,10.695982421875,-0.33009395003318787,1.8820801973342896,1.7404506206512451
1733768672575942400,10.7059423828125,-0.27244797348976135,1.4169702529907227,1.524579644203186
1733768672585902300,10.71590234375,-0.17017382383346558,0.7628350853919983,1.2981566190719604
1733768672595863300,10.72586328125,-0.2180452197790146,0.1239161267876625,1.071362853050232
1733768672605823200,10.7358232421875,-0.28943273425102234,-0.36610737442970276,0.8771733045578003
1733768672615784200,10.7457841796875,-0.3202899992465973,-0.727239191532135,0.6671023368835449
1733768672625744400,10.755744384765626,-0.38121867179870605,-0.7135077118873596,0.48260894417762756
1733768672635704300,10.765704345703124,-0.4273214638233185,-0.38397324085235596,0.333963006734848
1733768672645665300,10.775665283203125,-0.37806522846221924,0.2753356695175171,0.30107638239860535
1733768672655625200,10.785625244140626,-0.17249849438667297,1.0007368326187134,0.33233389258384705
1733768672665586200,10.795586181640624,0.1202782616019249,1.3375442028045654,0.39032483100891113
1733768672675546000,10.805546142578125,0.38085314631462097,1.2922548055648804,0.39228492975234985
1733768672685506300,10.81550634765625,0.5370484590530396,1.0344165563583374,0.3411162197589874
1733768672695467300,10.82546728515625,0.5946837663650513,0.7399715185165405,0.28279486298561096
1733768672705427200,10.83542724609375,0.6049116253852844,0.487322062253952,0.2380562722682953
1733768672715388400,10.845388427734376,0.5974430441856384,0.31431618332862854,0.18314190208911896
1733768672725348400,10.855348388671874,0.5633692145347595,0.1994074285030365,0.12250537425279617
1733768672735308300,10.865308349609375,0.5042707324028015,0.09672392904758453,0.06539734452962875
1733768672745269200,10.875269287109376,0.41947048902511597,0.016173478215932846,0.016559872776269913
1733768672755229200,10.885229248046874,0.32143738865852356,-0.07323922961950302,-0.01576557755470276
1733768672765190400,10.8951904296875,0.23074692487716675,-0.1768038421869278,-0.03570280224084854
1733768672775150300,10.905150390625,0.1628056913614273,-0.24217857420444489,-0.07906226068735123
1733768672785110300,10.9151103515625,0.13170260190963745,-0.1893077790737152,-0.13973306119441986
1733768672795071500,10.925071533203125,0.13061469793319702,-0.0687539279460907,-0.20379486680030823
1733768672805031400,10.935031494140626,0.16322004795074463,0.028541095554828644,-0.27499011158943176
1733768672814991400,10.944991455078124,0.23425161838531494,0.1346273124217987,-0.3461902439594269
1733768672824952300,10.954952392578125,0.3352086544036865,0.20895083248615265,-0.4067288637161255
1733768672834912300,10.964912353515626,0.44372743368148804,0.3575538694858551,-0.4438144564628601
1733768672844874200,10.974874267578125,0.5640194416046143,0.49333956837654114,-0.43875646591186523
1733768672854834200,10.984834228515625,0.6419906616210938,0.5606816411018372,-0.33261165022850037
1733768672864794400,10.99479443359375,0.6786289215087891,0.4393642842769623,-0.07418672740459442
1733768672874755000,11.004755126953125,0.6471974849700928,0.07591255009174347,0.36465853452682495
1733768672884715000,11.014715087890625,0.5706987380981445,-0.4768388271331787,0.7842100262641907
1733768672894676200,11.02467626953125,0.4923416078090668,-1.0114927291870117,1.006041169166565
1733768672904636200,11.03463623046875,0.43591463565826416,-1.3309186697006226,1.0102136135101318
1733768672914596000,11.04459619140625,0.3778529167175293,-1.376548171043396,0.7923885583877563
1733768672924557300,11.054557373046874,0.3489043712615967,-1.1999925374984741,0.4751386344432831
1733768672934517200,11.064517333984375,0.3380157947540283,-1.0153275728225708,0.21395094692707062
1733768672944478200,11.074478271484375,0.3031570017337799,-0.9135504961013794,0.11146296560764313
1733768672954438100,11.084438232421874,0.23731566965579987,-0.7495170831680298,0.4433181583881378
1733768672964398000,11.094398193359375,0.14131568372249603,-0.8119699954986572,0.32316890358924866
1733768672974359300,11.104359375,0.08977659791707993,-0.7099120616912842,-0.4740411639213562
1733768672984319200,11.1143193359375,0.11180047690868378,0.12771104276180267,-1.0340925455093384
1733768672994280200,11.1242802734375,0.17222706973552704,1.0914422273635864,-0.9597378373146057
1733768673004240400,11.134240478515625,0.46429914236068726,1.6812336444854736,-0.5166213512420654
1733768673014200300,11.144200439453124,0.9195855259895325,2.0879316329956055,-0.21412687003612518
1733768673024161000,11.1541611328125,0.9653905034065247,2.372645139694214,-0.2643587589263916
1733768673034121200,11.164121337890625,0.7184811234474182,2.4034407138824463,-0.5449336767196655
1733768673044082200,11.174082275390624,0.4002000093460083,2.2770063877105713,-0.7533571720123291
1733768673054042000,11.1840419921875,-0.08460718393325806,1.95750093460083,-0.8493148684501648
1733768673064002300,11.194002197265625,-0.6541155576705933,1.5725083351135254,-0.8032292723655701
1733768673073963300,11.20396337890625,-1.1199482679367065,1.1790395975112915,-0.684576690196991
1733768673083923200,11.213923095703125,-1.4352517127990723,0.6151464581489563,-0.5394666194915771
1733768673093884200,11.22388427734375,-1.5426779985427856,-0.06603504717350006,-0.4764018952846527
1733768673103844000,11.233843994140624,-1.5214567184448242,-0.7137354016304016,-0.5951454639434814
1733768673113804000,11.243803955078125,-1.4478036165237427,-1.2849208116531372,-0.8290983438491821
1733768673123765200,11.25376513671875,-1.376583218574524,-1.6790356636047363,-1.0375537872314453
1733768673133725200,11.26372509765625,-1.3307619094848633,-1.818315029144287,-1.2152085304260254
1733768673143686100,11.27368603515625,-1.2446515560150146,-1.7812013626098633,-1.3128933906555176
1733768673153646300,11.283646240234376,-1.0756995677947998,-1.4453333616256714,-1.3198375701904297
1733768673163606300,11.293606201171874,-0.8225647211074829,-0.822024405002594,-1.3228839635849
1733768673173567000,11.30356689453125,-0.5218307375907898,-0.11144563555717468,-1.374794840812683
1733768673183527200,11.313527099609376,-0.27387097477912903,0.48915085196495056,-1.3764572143554688
1733768673193487000,11.323487060546874,-0.1218915656208992,0.8475958108901978,-1.2763111591339111
1733768673203448000,11.333447998046875,-0.0703430324792862,0.8891422152519226,-1.0914843082427979
1733768673213408300,11.343408203125,-0.012852570042014122,0.6995408535003662,-0.9263219833374023
1733768673223369200,11.353369140625,0.1364964246749878,0.40809476375579834,-0.8247931599617004
1733768673233329200,11.3633291015625,0.258452445268631,0.14047904312610626,-0.7500534057617188
1733768673243289300,11.373289306640626,0.30968838930130005,-0.05301470682024956,-0.6485989689826965
1733768673253250000,11.38325,0.3426958918571472,-0.14039167761802673,-0.5198659896850586
1733768673263210000,11.3932099609375,0.36379820108413696,-0.18514235317707062,-0.4263626039028168
1733768673273171200,11.403171142578126,0.3980928063392639,-0.25562527775764465,-0.3686255216598511
1733768673283131100,11.413131103515624,0.4510767459869385,-0.3427220284938812,-0.33218061923980713
1733768673293091000,11.423091064453125,0.5059165358543396,-0.3901593089103699,-0.28508180379867554
1733768673303052300,11.43305224609375,0.5176793932914734,-0.32417717576026917,-0.24531158804893494
1733768673313012200,11.44301220703125,0.5312055945396423,-0.171516552567482,-0.19980375468730927
1733768673322973200,11.45297314453125,0.5452327132225037,0.06325061619281769,-0.1937188357114792
1733768673332933000,11.46293310546875,0.548190712928772,0.2533710300922394,-0.23089656233787537
1733768673342893000,11.47289306640625,0.5338960289955139,0.41847264766693115,-0.22176338732242584
1733768673352854300,11.482854248046875,0.5587848424911499,0.5956245064735413,-0.15073688328266144
1733768673362814200,11.492814208984376,0.6049210429191589,0.752295196056366,-0.09072809666395187
1733768673372775200,11.502775146484375,0.4830276072025299,0.8439044952392578,-0.20770105719566345
1733768673382735400,11.5127353515625,0.18407414853572845,0.8764031529426575,-0.4877462387084961
1733768673392695300,11.5226953125,-0.12109029293060303,0.7771958708763123,-0.7793160676956177
1733768673402656000,11.532656005859375,-0.2857048213481903,0.6793979406356812,-0.9058257937431335
1733768673412616200,11.5426162109375,-0.333549827337265,0.5733098983764648,-0.8485076427459717
1733768673422577200,11.5525771484375,-0.3831000328063965,0.46786993741989136,-0.7498041987419128
1733768673432537000,11.562537109375,-0.43268489837646484,0.3693588078022003,-0.7021384239196777
1733768673442497300,11.572497314453125,-0.4477417767047882,0.23306205868721008,-0.7555277943611145
1733768673452458200,11.582458251953126,-0.44574734568595886,0.056691549718379974,-0.9017409086227417
1733768673462418200,11.592418212890625,-0.43017295002937317,-0.14141346514225006,-1.0880720615386963
1733768673472379100,11.602379150390625,-0.40832650661468506,-0.2652224898338318,-1.2556257247924805
1733768673482339000,11.612339111328126,-0.3929741382598877,-0.15433897078037262,-1.3114099502563477
1733768673492299000,11.622299072265625,-0.37556692957878113,0.15901628136634827,-1.240226149559021
1733768673502260200,11.63226025390625,-0.3145447075366974,0.6298971176147461,-1.085093379020691
1733768673512220200,11.64222021484375,-0.19399218261241913,1.3060473203659058,-0.7223691344261169
1733768673522181400,11.652181396484375,0.010358009487390518,2.816838026046753,0.9867421388626099
1733768673532141300,11.662141357421875,0.0018428191542625427,2.773940324783325,1.3405603170394897
1733768673542101200,11.672101318359376,-0.0688403993844986,2.1633458137512207,1.087161898612976
1733768673552062200,11.682062255859375,-0.04925817251205444,1.9182307720184326,1.3915817737579346
1733768673562022100,11.692022216796875,-0.0046917167492210865,1.462803840637207,1.8305143117904663
1733768673571982000,11.701982177734376,0.12151335179805756,0.8468078970909119,2.171199321746826
1733768673581943300,11.711943359375,0.32862594723701477,0.4510795772075653,2.432324171066284
1733768673591903200,11.7219033203125,0.568115770816803,0.5627040863037109,2.630985975265503
1733768673601864200,11.7318642578125,0.6802597045898438,1.3970541954040527,2.811262607574463
1733768673611824400,11.741824462890625,0.5748001337051392,2.5434396266937256,2.7583811283111572
1733768673621784300,11.751784423828125,0.25765708088874817,3.2474584579467773,2.279177665710449
1733768673631745000,11.7617451171875,-0.06320402026176453,3.1408305168151855,1.5756652355194092
1733768673641705200,11.771705322265625,-0.3024621307849884,2.512331962585449,1.035183072090149
1733768673651666200,11.781666259765625,-0.561202883720398,1.691044569015503,0.8289989829063416
1733768673661626000,11.791626220703124,-0.817753791809082,0.6711812019348145,0.8806983828544617
1733768673671586300,11.80158642578125,-0.9820281863212585,-0.457541823387146,1.0192461013793945
1733768673681547300,11.81154736328125,-0.9774264693260193,-1.3815174102783203,1.075360894203186
1733768673691507200,11.821507080078124,-0.8165366649627686,-1.9208121299743652,0.9572781324386597
1733768673701468200,11.83146826171875,-0.5973904728889465,-1.969543695449829,0.6615092158317566
1733768673711428000,11.841427978515625,-0.40346255898475647,-1.5899324417114258,0.30896979570388794
1733768673721388000,11.851387939453126,-0.27724891901016235,-1.0138599872589111,0.0700019896030426
1733768673731349200,11.861349365234375,-0.12907810509204865,-0.3442361354827881,-0.03914420306682587
1733768673741309200,11.87130908203125,0.10879790037870407,0.23342624306678772,-0.03831774368882179
1733768673751270100,11.881270263671874,0.29541730880737305,0.5649352073669434,0.0899539440870285
1733768673761230300,11.891230224609375,0.37330228090286255,0.7456558346748352,0.40226003527641296
1733768673771190300,11.901190185546875,0.44542282819747925,0.5295469760894775,0.7250654697418213
1733768673781151000,11.91115087890625,0.5667293667793274,0.21905814111232758,0.8968242406845093
1733768673791111200,11.921111083984375,0.6520860195159912,0.03201022371649742,0.872406005859375
1733768673801072000,11.931072021484376,0.7102398872375488,-0.001020598690956831,0.6886861324310303
1733768673811032000,11.941031982421874,0.7627454400062561,0.05920892208814621,0.43274861574172974
1733768673820992300,11.9509921875,0.8271680474281311,0.13723807036876678,0.19326914846897125
1733768673830953200,11.960953125,0.8856246471405029,0.16319961845874786,0.019480589777231216
1733768673840913200,11.9709130859375,0.9179909229278564,0.16424961388111115,-0.05665549635887146
1733768673850873600,11.98087353515625,0.9598275423049927,0.26750487089157104,-0.07272474467754364
1733768673860833500,11.99083349609375,0.9861771464347839,0.5146569013595581,-0.07155455648899078
1733768673870793500,12.00079345703125,0.9712807536125183,0.7358713150024414,-0.047191422432661057
1733768673880754700,12.010754638671875,0.8809048533439636,0.8635692596435547,0.06004517152905464
1733768673890714600,12.020714599609375,0.7395613193511963,0.9151469469070435,0.21187277138233185
1733768673900674600,12.030674560546874,0.6149203777313232,0.8147971034049988,0.3444327414035797
1733768673910635800,12.0406357421875,0.4864569902420044,0.6627622842788696,0.4267995357513428
1733768673920595700,12.050595703125,0.34986382722854614,0.6123804450035095,0.4641624391078949
1733768673930556700,12.060556640625,0.22117562592029572,0.6183640360832214,0.4481315612792969
1733768673940516600,12.0705166015625,0.1621667742729187,0.3801756799221039,0.34505924582481384
1733768673950476500,12.0804765625,0.17892631888389587,0.031108250841498375,0.23621827363967896
1733768673960437800,12.090437744140624,0.20724309980869293,-0.24105969071388245,0.18893250823020935
1733768673970397700,12.100397705078125,0.2538926303386688,-0.5398618578910828,0.14331363141536713
1733768673980358700,12.110358642578126,0.2743009328842163,-0.9601322412490845,0.1410612165927887
1733768673990318800,12.12031884765625,0.20239503681659698,-1.293802261352539,0.1409192830324173
1733768674000278800,12.13027880859375,0.15593811869621277,-1.3825281858444214,0.07991532981395721
1733768674010239500,12.140239501953126,0.2161809504032135,-1.3820637464523315,0.007372685708105564
1733768674020199700,12.15019970703125,0.33159181475639343,-1.4288142919540405,-0.011357409879565239
1733768674030160600,12.16016064453125,0.38546836376190186,-1.5763726234436035,-0.0020762942731380463
1733768674040120600,12.17012060546875,0.3981838524341583,-1.7898595333099365,0.06882813572883606
1733768674050080800,12.180080810546874,0.4039765000343323,-2.063188314437866,0.21150991320610046
1733768674060041700,12.190041748046875,0.3885786533355713,-2.283421754837036,0.37328001856803894
1733768674070001700,12.200001708984376,0.35608649253845215,-2.4071359634399414,0.5542553663253784
1733768674079962600,12.209962646484374,0.31743571162223816,-2.497340202331543,0.6166618466377258
1733768674089922600,12.219922607421875,0.30046072602272034,-2.489197015762329,0.4707115590572357
1733768674099882500,12.229882568359375,0.34578248858451843,-2.2935240268707275,0.24643316864967346
1733768674109843700,12.23984375,0.4372229278087616,-1.9923326969146729,0.086619533598423
1733768674119803600,12.2498037109375,0.5058806538581848,-1.670329213142395,0.06715090572834015
1733768674129763600,12.259763671875,0.4780287742614746,-1.456945538520813,0.3145492374897003
1733768674139724800,12.269724853515624,0.4054238200187683,-1.3197788000106812,0.5520357489585876
1733768674149684700,12.279684814453125,0.40062108635902405,-1.148906946182251,-0.057586342096328735
1733768674159645400,12.2896455078125,0.3320351243019104,-0.46966034173965454,-0.9421374201774597
1733768674169605600,12.299605712890624,0.18989582359790802,0.643513560295105,-1.2711683511734009
1733768674179565600,12.309565673828125,0.2227911800146103,2.2706780433654785,-0.9098448157310486
1733768674189526500,12.319526611328126,0.45256713032722473,3.8859453201293945,-0.15021061897277832
1733768674199486700,12.32948681640625,0.4902473986148834,4.391081809997559,0.404432088136673
1733768674209447700,12.33944775390625,0.10271669924259186,3.8888509273529053,0.42369765043258667
1733768674219407600,12.34940771484375,-0.4882557690143585,2.7571449279785156,0.13712255656719208
1733768674229367800,12.359367919921874,-1.0541319847106934,1.4566550254821777,-0.15302059054374695
1733768674239328500,12.36932861328125,-1.539265751838684,0.21932341158390045,-0.28009799122810364
1733768674249288400,12.379288330078126,-1.8400418758392334,-0.9571253657341003,-0.2890126705169678
1733768674259249700,12.389249755859375,-2.0083868503570557,-1.9975674152374268,-0.2270592749118805
1733768674269209600,12.399209716796875,-2.025869369506836,-2.8348350524902344,-0.047632791101932526
1733768674279169500,12.40916943359375,-1.8951241970062256,-3.419959545135498,0.1894633024930954
