time,seconds_elapsed,z,y,x
1733512566903207700,0.017207763671875,-0.17553835321366787,0.009233107769489287,0.01485613528303802
1733512566913282800,0.02728271484375,-0.2218821712374687,-0.005121580797433853,0.06762476218994706
1733512566923358000,0.03735791015625,-0.15168255359083413,-0.03618482758104801,0.06652790686395019
1733512566933432800,0.047432861328125,-0.02356996841877699,-0.04483049085140228,0.00478354448210448
1733512566943507000,0.0575068359375,0.004196867167949677,-0.011218728628754615,-0.04818937282525003
1733512566953581800,0.067581787109375,0.04792378069162369,0.01646481258869171,-0.08520648651197552
1733512566963657000,0.077656982421875,0.18922507939115166,0.003146481332182884,-0.09881854001805186
1733512566973732000,0.087732177734375,0.1901569534137845,0.01570142700076103,-0.13034589718207718
1733512566983806000,0.097805908203125,0.10519348187744616,0.05308101732432842,-0.20221578612849114
1733512566993881000,0.107881103515625,0.06971081121638417,0.06716214964687824,-0.26580376708302644
1733512567003956000,0.1179560546875,0.02621931388378143,0.05567337190508842,-0.28004074755441394
1733512567014030000,0.128030029296875,-0.09007160833030939,0.037010757011175156,-0.24392566074132918
1733512567024105000,0.13810498046875,-0.17182313208281993,-0.005981997019052505,-0.17640213043615222
1733512567034179800,0.148179931640625,-0.11630115134716033,-0.03202127816081047,-0.0890522752199322
1733512567044254700,0.158254638671875,-0.09764496619403362,-0.06557634176015853,0.004773863338306546
1733512567054328800,0.168328857421875,-0.15365779918655753,-0.11613631617426871,0.1082828992601484
1733512567064403700,0.17840380859375,-0.20530030814036726,-0.14171090241372583,0.19407690333649516
1733512567074478800,0.188478759765625,-0.21741204008609055,-0.14819851086735725,0.19734153115563094
1733512567084553000,0.198552978515625,-0.22321707310304045,-0.13972002085745333,0.10852379534393548
1733512567094627800,0.2086279296875,-0.18646175215765834,-0.09508125318586826,0.001315539577975869
1733512567104703000,0.218702880859375,-0.11645195799469947,-0.047937224695086475,-0.06323350496105849
1733512567114777900,0.22877783203125,-0.047585927039384836,-0.0598527034163475,-0.03153619805760682
1733512567124852000,0.23885205078125,0.04223462913930416,-0.05168634809553623,0.08586699624732136
1733512567134926800,0.2489267578125,0.03062953154146671,-0.050013446447253224,0.20084055225253103
1733512567145002000,0.259001953125,-0.03808730020150542,-0.051452539339661596,0.2714879136666655
1733512567155075800,0.269075927734375,-0.06133139766678214,-0.011282441514730453,0.3252720377590507
1733512567165151000,0.27915087890625,-0.09705226099789142,0.02780979794561863,0.3118415513649583
1733512567175225900,0.289225830078125,-0.09836948107630014,0.06789338653087616,0.260083453207463
1733512567185300700,0.29930078125,-0.1457099089220166,0.08609422913193703,0.18828867532387375
1733512567195374800,0.309374755859375,-0.12300415611714124,0.04076514110863209,0.16355558140985665
1733512567205449700,0.31944970703125,-0.07147066049575805,-0.058770168876647946,0.16435338072404265
1733512567215524900,0.32952490234375,-0.09803469616398215,-0.18153788588941097,0.1318685036394745
1733512567225600000,0.33960009765625,-0.13448270472586155,-0.2450093643248081,0.059923942021653055
1733512567235673900,0.349673828125,-0.07837590983957052,-0.26105039854347706,-0.03672324530668557
1733512567245749000,0.3597490234375,-0.0557778551928699,-0.23472879332900046,-0.10803089726045727
1733512567255824000,0.369823974609375,-0.05841989413425326,-0.15718378135561942,-0.15930851842463015
1733512567265897200,0.379897216796875,0.00027720950618386267,-0.09554068739116191,-0.1464165228214115
1733512567275972400,0.389972412109375,0.052797524207830425,-0.0705149672061205,-0.10944003340601921
1733512567286047200,0.400047119140625,0.08422726621627807,-0.07244096683263779,-0.037420945247262714
1733512567296122400,0.410122314453125,0.10151932340934872,-0.08908288955390453,0.10346052060499787
1733512567306196200,0.4201962890625,-0.0013163432955741882,-0.09202245013713836,0.224129438707605
1733512567316271400,0.430271240234375,-0.2050799433879554,-0.062168579143285746,0.315714739536494
1733512567326346200,0.44034619140625,-0.4176924742378294,0.002709258958697319,0.35471542825587093
1733512567336420400,0.45042041015625,-0.5445265639066695,0.07956862675547599,0.30474070638380946
1733512567346495200,0.4604951171875,-0.6113156424574554,0.11477847182452677,0.1787682750456035
1733512567356570400,0.4705703125,-0.5947627131938934,0.12955869232714176,0.09148666276000439
1733512567366645200,0.480645263671875,-0.5489630850493907,0.11978607085347175,0.024487448589876292
1733512567376719400,0.49071923828125,-0.6295113704919815,0.14843407318890095,-0.026523995918780564
1733512567386794200,0.500794189453125,-0.8541856566660105,0.19017478133141993,-0.04438661954142153
1733512567396869000,0.510869140625,-0.9749268362872302,0.13803601329326629,-0.04054762590043247
1733512567406943200,0.520943115234375,-0.9793471369475125,0.07071487369239329,-0.09230126707851886
1733512567417018000,0.53101806640625,-1.0085480969905853,0.013924480456113815,-0.1921126905914396
1733512567427093200,0.54109326171875,-1.0420597598396242,-0.02968377512395382,-0.3229942290201783
1733512567437168400,0.55116845703125,-0.9252684868879616,-0.10052490554451941,-0.44737961036264895
1733512567447242200,0.5612421875,-0.8474293142735958,-0.19136252981126306,-0.515397353925556
1733512567457317400,0.5713173828125,-0.7500285320989787,-0.27038170599043365,-0.43545645979158576
1733512567467392300,0.581392333984375,-0.6097732353210449,-0.3358621861606836,-0.20397154375463722
1733512567477467400,0.59146728515625,-0.4959954649716615,-0.34021336710751054,0.10609233041331172
1733512567487541200,0.601541259765625,-0.3600825813122093,-0.2802121951311827,0.365955126607418
1733512567497616400,0.611616455078125,-0.0968449018575251,-0.18758301127254962,0.5005628459524363
1733512567507691300,0.621691162109375,0.160810155159235,-0.05714169089198112,0.5189977165050804
1733512567517765400,0.631765380859375,0.2756270592980087,0.07918167326450347,0.4395793849404901
1733512567527840300,0.64184033203125,0.34155426032245156,0.20549334649443626,0.34297998227663334
1733512567537915100,0.6519150390625,0.42482583324909207,0.23068039472103116,0.32611016908362506
1733512567547990300,0.661990234375,0.5343124822758137,0.19044833757579324,0.23438838239349424
1733512567558064000,0.672064208984375,0.6766435624144971,0.0738081635326147,0.1172338290873915
1733512567568139300,0.68213916015625,0.7975866943486034,-0.047860652327537535,0.02347776009067893
1733512567578214100,0.692214111328125,0.8904976177580655,-0.09819967746734619,0.014789134461432695
1733512567588288300,0.702288330078125,0.9007154987812042,-0.1181459024310112,0.05683510916084051
1733512567598363100,0.712363037109375,0.8059810132063925,-0.11387421646118163,0.10161613484732807
1733512567608438300,0.722438232421875,0.5994616846650839,-0.1125730707347393,0.10103552194777876
1733512567618513400,0.732513427734375,0.3170331286586821,-0.10462065042555331,0.10086882361136376
1733512567628587300,0.742587158203125,0.08648878140747547,-0.010594459250569344,0.09896956586129962
1733512567638662400,0.752662353515625,0.015518617779761552,0.1912567313492298,0.11555990452580153
1733512567648737300,0.7627373046875,0.2342443708129227,0.3444201711475849,0.23887977552860973
1733512567658812200,0.772812255859375,0.5332723255731165,0.3338888402611017,0.41160087936446066
1733512567668886300,0.78288623046875,0.7584130602151155,0.16555530385971068,0.4966232414811849
1733512567678961200,0.792961181640625,0.9545242458581924,-0.10236731854081153,0.4839892757596448
1733512567689036300,0.803036376953125,1.0469313113987446,-0.3460696919202804,0.4298329573540017
1733512567699110100,0.813110107421875,1.00859968104735,-0.40875031223893166,0.2977817175587639
1733512567709185300,0.823185302734375,0.8797482602067291,-0.327636794129014,0.09240918443240224
1733512567719260200,0.83326025390625,0.5789870519131421,-0.1660334427654743,-0.22901666275989263
1733512567729334300,0.843334228515625,0.032633272579312325,0.06714461399018765,-0.6583635170973837
1733512567739409200,0.8534091796875,-0.744046096688509,0.3118032651811838,-1.1267890572939068
1733512567749484300,0.863484375,-1.55795132702291,0.48235272406637664,-1.5453110411584376
1733512567759559200,0.87355908203125,-2.043237620323151,0.5538105250805616,-1.6231671649076043
1733512567769633300,0.88363330078125,-1.7705875310093164,0.4579284769058227,-1.0105402206558733
1733512567779708200,0.893708251953125,-1.1644552825391292,0.28346213683784005,-0.2568458229931071
1733512567789783300,0.903783203125,-0.7422313023515045,0.12708324212431907,0.18501206480599938
1733512567799858400,0.9138583984375,-0.40291912186741824,-0.05723989056944847,0.45189252120982853
1733512567809932300,0.923932373046875,-0.04847089318037033,-0.34718846681714055,0.6559240149907768
1733512567820007400,0.93400732421875,0.2531656366430223,-0.5950941371053456,0.7427795838840305
1733512567830082300,0.944082275390625,0.4572441479034722,-0.7348521518856287,0.7438461902022361
1733512567840156400,0.954156494140625,0.6128386142410338,-0.8037257816255092,0.6276541252527386
1733512567850231300,0.964231201171875,0.7519768896877765,-0.8004097889453172,0.42140480929184704
1733512567860306200,0.97430615234375,0.9357096552729606,-0.5821984151750803,0.12340480933990329
1733512567870381300,0.98438134765625,1.1145688234724103,-0.13533552216291428,-0.29795290940720587
1733512567880455200,0.994455078125,1.2698727824307978,0.404338925537467,-0.8120677857741713
1733512567890530300,1.0045302734375,1.338186294069886,0.81200494967103,-1.427202401997894
1733512567900605200,1.014605224609375,1.250227440109849,0.8995645751804113,-2.0504168643027545
1733512567910680300,1.024680419921875,0.9801099380135536,0.9321417336583137,-2.4770056155711413
1733512567920754200,1.034754150390625,0.47994332483708857,0.9602215807169675,-2.7520056290119883
1733512567930829300,1.044829345703125,-0.10180968465805053,0.8240630517333746,-2.7146736772224305
1733512567940904400,1.054904541015625,-0.4123572506897151,0.5010165080040693,-2.3692314695507286
1733512567950978300,1.064978271484375,-0.6140595343381167,0.39950025333464145,-2.125619989325106
1733512567961053400,1.075053466796875,-0.9288134660184383,0.4275274934232235,-1.775704143370688
1733512567971128300,1.08512841796875,-1.0437063580028711,0.43205987615585323,-1.3229413786649704
1733512567981203200,1.095203125,-0.6802579535193741,0.39281507648229597,-0.8494019295208156
1733512567991277300,1.10527734375,0.022125176437944174,0.32334757250249385,-0.3222103851661086
1733512568001352200,1.115352294921875,0.7089590012162923,0.22692484157979487,0.2220750634610653
1733512568011427000,1.125427001953125,1.270797934451699,0.13212474342286587,0.6723164929956197
1733512568021501200,1.135501220703125,1.7452058369934558,0.10169394932389259,0.9494633092068135
1733512568031576000,1.145576171875,2.0562620831996203,0.14517945530712603,1.0898771575473247
1733512568041651200,1.155651123046875,2.1914000369638202,-0.08480126671195029,0.9790158591665327
1733512568051726300,1.165726318359375,2.10325998121798,-0.30873744786977764,0.9177912098098546
1733512568061800200,1.17580029296875,1.7476598060168325,-0.36390520834028717,1.0121144111700355
1733512568071875300,1.185875244140625,1.162587881232053,-0.35509120276570316,1.1414216129541397
1733512568081950200,1.1959501953125,0.4097510137140751,-0.26966040597856045,1.1247646387942134
1733512568092024300,1.2060244140625,-0.2625074654839933,-0.07583937709927559,0.804028637029603
1733512568102099200,1.21609912109375,-0.4936398417562246,0.1368546945542097,0.35125714102815836
1733512568112174300,1.22617431640625,-0.20485782506987452,0.30035131231844425,0.15340685663279144
1733512568122249500,1.23624951171875,0.34453649100363254,0.3247346429467201,0.14656068053245544
1733512568132323300,1.2463232421875,0.7518180458642542,0.25949440127313134,0.14585041337125002
1733512568142398500,1.2563984375,0.8707939693786203,0.21603753686249255,0.14406279930211602
1733512568152473000,1.26647314453125,0.7197165420740842,0.2369271801561117,0.14768340095207094
1733512568162548200,1.27654833984375,0.38676206005364655,0.23874212062358854,0.08311817246321589
1733512568172622000,1.2866220703125,-0.010755202770233153,0.18949030619859694,-0.06405983624998479
1733512568182697200,1.296697265625,-0.2874495990388095,0.049990650093555446,-0.2741264454767108
1733512568192772000,1.306772216796875,-0.2290110002040863,-0.1128606555044651,-0.45853133816979824
1733512568202846200,1.31684619140625,-0.08788798068091273,-0.21946283513605594,-0.6541410770967603
1733512568212921300,1.32692138671875,-0.08236366430148481,-0.2056266174852848,-0.8965534106656908
1733512568222996200,1.336996337890625,-0.16928689160346985,-0.13148936812877654,-1.2095052613601087
1733512568233071400,1.3470712890625,-0.2312577562175691,-0.03944178355038166,-1.505909151227027
1733512568243145200,1.357145263671875,-0.2546035604916513,0.06500935552716255,-1.6110022414699197
1733512568253220400,1.367220458984375,-0.24029811789393424,0.09174304867386818,-1.4173618298545478
1733512568263295200,1.377295166015625,-0.24068507138490675,-0.011763503029942512,-1.0774472264979034
1733512568273369300,1.387369384765625,-0.20124664883539078,-0.22081366522312162,-0.8643169553842395
1733512568283444500,1.397444580078125,-0.1453844763599336,-0.43712242024242876,-0.7782885580301284
1733512568293519600,1.40751953125,-0.07560834482237697,-0.5438783291310072,-0.6206565945155919
1733512568303594200,1.41759423828125,0.00027837854996323584,-0.5072662160485982,-0.43592959372866896
1733512568313668600,1.427668701171875,0.0077574822589755055,-0.40005262652039525,-0.2495925273966044
1733512568323743200,1.4377431640625,-0.1724824727743864,-0.26534488086700436,-0.03218630056336987
1733512568333818400,1.447818359375,-0.5863835919052363,-0.1437958919942379,0.2216892607475631
1733512568343892200,1.457892333984375,-1.0221760787181555,-0.06231938579082489,0.4821770752385258
1733512568353967400,1.46796728515625,-1.2576587591543793,-0.09298749577701092,0.6074017569493502
1733512568364042500,1.47804248046875,-1.2307011941239236,-0.15147884771227835,0.6438013232596218
1733512568374117400,1.488117431640625,-1.0549991747811436,-0.09674538700580597,0.6179637021698058
1733512568384191500,1.49819140625,-0.8205522671334445,0.03556172724664211,0.5111277503149584
1733512568394266400,1.508266357421875,-0.5798606198772788,0.09380757998824119,0.30680655287243425
1733512568404341500,1.518341552734375,-0.5028893161386251,0.09260521846115588,0.11045127454148605
1733512568414416400,1.52841650390625,-0.5096515037499368,-0.04292085783779621,-0.2210274541042745
1733512568424490500,1.538490478515625,-0.578316020783782,-0.21280396176874636,-0.5656940012283623
1733512568434565600,1.548565673828125,-1.0203981092602015,-0.167276136302948,-0.8643570681989192
1733512568444640500,1.558640625,-1.1102419001840054,0.14084756358265876,-1.222403321377933
1733512568454714600,1.568714599609375,-0.4386665809445083,0.631179595965147,-1.6071984652727842
1733512568464789500,1.57878955078125,0.3561008181996643,1.0476152020096778,-2.1305605144672093
1733512568474864400,1.588864501953125,0.8099737361043691,1.2485948704719543,-2.7257576735556124
1733512568484939300,1.598939208984375,1.0222224020779132,1.0214584319680928,-3.356732686859369
1733512568495013400,1.609013427734375,1.1111923327766358,0.4424363087415695,-3.9334699140191076
1733512568505088300,1.619088134765625,1.0046978513032196,-0.12385258964002131,-4.3196375153109425
1733512568515163400,1.629163330078125,0.6317882293827831,-0.5072101019471883,-4.517127003569901
1733512568525237200,1.6392373046875,-0.15586641514673827,-0.8084323518812656,-4.62228687543869
1733512568535312400,1.6493125,-1.610441246586293,-1.0984387957960366,-4.47851436432004
1733512568545387500,1.659387451171875,-3.6722517576932905,-1.1358698240458964,-3.8687557420462366
1733512568555462400,1.66946240234375,-5.336287377953529,-0.7662731260657311,-3.173289551870525
1733512568565536500,1.67953662109375,-5.7722115283221,-0.28847324299812316,-2.6175270159393547
1733512568575611400,1.689611328125,-5.679897986283898,0.23183131832182405,-1.9917799664169549
1733512568585686500,1.6996865234375,-6.0216509840488435,0.7499509368181229,-1.2672403881005943
1733512568595761700,1.70976171875,-6.481577941295504,1.1196090095967053,-0.5468145287133753
1733512568605835500,1.71983544921875,-6.3138371100902555,1.2983949664294718,-0.02425466274730861
1733512568615910700,1.72991064453125,-5.413554742029309,1.2850848184794186,0.05454619450606405
1733512568625985300,1.7399853515625,-4.46379961026907,1.240288229897618,-0.4651275946296751
1733512568636059600,1.7500595703125,-3.8479987852215767,1.4164222109168767,-1.36973527854383
1733512568646134300,1.76013427734375,-3.0525863661721346,1.8296598977029324,-2.378632335102558
1733512568656209400,1.77020947265625,-1.7533491036996245,2.4176345581918954,-3.2587551277101037
1733512568666284300,1.7802841796875,-0.13520721960812807,2.9933284137785434,-3.961240841259062
1733512568676358400,1.7903583984375,1.3175900807648897,3.378019805037975,-4.364310769774019
1733512568686433300,1.800433349609375,2.246593516397476,3.3656314481079574,-4.131135635627806
1733512568696508400,1.81050830078125,2.444651306063682,2.8762878422409295,-3.5275907733023164
1733512568706582500,1.82058251953125,2.1864159649409354,2.0690333019673823,-2.7839181861013174
1733512568716657400,1.830657470703125,1.90763979396224,1.0217354953438043,-2.0835192156985403
1733512568726732500,1.840732666015625,1.7853474393762647,-0.05116203196048736,-1.582316683603078
1733512568736807400,1.850807373046875,1.7934110649749635,-1.1473895814478396,-1.201774374847114
1733512568746881500,1.860881591796875,1.698850620792806,-2.0712427947103977,-1.0116187366075813
1733512568756956400,1.870956298828125,1.6017385924316943,-2.662771932810545,-0.7987371795579791
1733512568767031600,1.881031494140625,1.7187936308860778,-2.8806279172718523,-0.3681160309683531
1733512568777106400,1.8911064453125,2.0988792819157243,-2.860113537031412,0.26972265755981206
1733512568787180500,1.9011806640625,2.8713176526129245,-2.597992294386029,0.9106205144628882
1733512568797255400,1.91125537109375,3.932366921213269,-2.070416280758381,1.3861653120800852
1733512568807330300,1.921330322265625,5.174715006250143,-1.7187217346936463,1.6176359803959726
1733512568817404400,1.931404296875,6.213724876999855,-1.501904445630312,1.6030129962816833
1733512568827479300,1.941479248046875,6.652921180906891,-1.2658926267534494,1.4690556306041775
1733512568837554400,1.951554443359375,6.370180344080925,-1.1436696841418743,1.2650883246332407
1733512568847629600,1.961629638671875,5.465212448552251,-1.0254974782258273,1.0791878596201538
1733512568857703400,1.971703369140625,4.3632045620977875,-0.8341513150274753,1.0016511770837009
1733512568867778600,1.981778564453125,3.4578830308258532,-0.5408440760016441,0.9775359228070825
1733512568877853400,1.991853515625,2.6249083583623167,-0.1967646811157465,1.0432535727340728
1733512568887927600,2.001927490234375,1.7369126404225825,0.2799778018534183,1.0540647434752435
1733512568898002400,2.01200244140625,0.8531620127066969,0.7078776357203722,1.040322779979184
1733512568908077600,2.02207763671875,-0.029569208833575247,0.7142518469274044,1.131874105473235
1733512568918152400,2.03215234375,-0.9309709363132714,0.26219547692537304,1.3921929018065333
1733512568928226600,2.0422265625,-2.728492066955566,-0.4074479974687099,1.9534367917582391
1733512568938301400,2.052301513671875,-6.556787788319587,-0.950326794168353,2.77725463655889
1733512568948376300,2.062376220703125,-7.9443293571889395,-1.5855711553543805,3.423872916935384
1733512568958451500,2.072451416015625,-6.319737274044752,-2.1766028653264042,3.6556197718441483
1733512568968525300,2.082525390625,-4.381082748615741,-2.2329168732225892,3.3505507833540435
1733512568978600400,2.092600341796875,-2.9751427687466143,-2.078369870111346,2.8453029213905334
1733512568988675300,2.10267529296875,-2.2911533736139535,-1.9506483300834894,2.397918050330877
1733512568998749400,2.11274951171875,-2.0829069290190936,-1.9400550398766994,1.7818349012106656
1733512569008824300,2.12282421875,-1.8911163830541073,-1.834502077037096,1.0990853500712663
1733512569018899500,2.1328994140625,-1.390702517118305,-1.6087462792366742,0.46384171953760084
1733512569028974600,2.142974609375,-0.5212567474782467,-1.2302806306242942,-0.17851941485106945
1733512569039048400,2.15304833984375,0.38292087445557116,-0.6900538097381591,-0.8292588668107986
1733512569049123600,2.16312353515625,1.0097989738345146,-0.10866320381462573,-1.4301111290514468
1733512569059198500,2.173198486328125,1.167331714758277,0.7147440143585204,-1.840011195847392
1733512569069272600,2.1832724609375,0.7890642190665006,2.0168734911412,-2.043565390972793
1733512569079347500,2.193347412109375,0.19435981193110347,3.655363166734576,-1.688595184238255
1733512569089422600,2.203422607421875,-0.12449907085001467,5.04650071426928,-0.7563467022698372
1733512569099497200,2.213497314453125,-0.33213366715684534,6.00738923446238,0.3867800341017544
1733512569109571600,2.223571533203125,-0.8117074280291795,6.900076909610629,1.555777928506583
1733512569119646200,2.233646240234375,-1.1897404573779553,7.527604997330903,2.642958102054894
1733512569129721300,2.243721435546875,-1.2356722605347632,7.8654609876573085,3.6088849086761474
1733512569139795500,2.25379541015625,-0.9145007899623364,7.266035543349385,4.372209121808409
1733512569149870300,2.263870361328125,-0.5738520271122455,4.55283398450613,4.634532609027624
1733512569159945500,2.273945556640625,-0.468915223409608,0.5436527036815881,4.2226062971010805
1733512569170020400,2.284020263671875,-0.48737851633913815,-2.3697020096719266,3.6537414107516404
1733512569180094500,2.294094482421875,-0.3327425928354263,-3.805724993115663,3.026917964169383
1733512569190169300,2.30416943359375,0.10639861988350749,-4.521778921028972,2.207997243760526
1733512569200244500,2.314244384765625,0.702984676047042,-5.003741768994927,1.1594530903376639
1733512569210319600,2.324319580078125,2.3642314693063495,-5.167395038625598,-0.13505206557903437
1733512569220393500,2.3343935546875,4.569477076271176,-4.867479779636859,-1.1785462056033313
1733512569230468600,2.344468505859375,5.5200400172829625,-4.128559939920902,-1.6345022133924065
1733512569240543500,2.35454345703125,5.417120910078287,-2.802244700908661,-1.6511698550768195
1733512569250617600,2.36461767578125,4.957959091985225,-0.936542598965764,-1.7771077265582977
1733512569260692500,2.3746923828125,4.496288505941629,0.5531242963820695,-2.3330711918890477
1733512569270768000,2.38476806640625,3.9179298150599,1.598313732549548,-2.769675141215324
1733512569280843000,2.394843017578125,2.982919832488894,2.3675234965890644,-2.96543386015892
1733512569290917000,2.404917236328125,1.765726062452793,2.6957395519107576,-2.917385868565738
1733512569300992300,2.4149921875,0.6833546043604612,2.552231244686246,-2.6189988420575854
1733512569311067100,2.425067138671875,-0.011990334055759012,1.9423077872395513,-2.301038515551388
1733512569321142300,2.435142333984375,-0.38326632689237594,0.9905834012329577,-1.9237332890205083
1733512569331216100,2.445216064453125,-0.5550941351503134,0.016794482934474945,-1.38511200363487
1733512569341291300,2.455291259765625,-0.5933306345641612,-0.6152823541313409,-0.8409342531658709
1733512569351366100,2.4653662109375,-0.6647662237465382,-0.8244792313188314,-0.31258005823995916
1733512569361440300,2.475440185546875,-0.8927017036736011,-0.621390023356676,0.007960548816714435
1733512569371515100,2.48551513671875,-1.207326456016302,-0.09896773923039436,0.05749967401679605
1733512569381590000,2.495590087890625,-1.4249930553853511,0.40707156537175176,-0.06920430473266169
1733512569391665200,2.5056650390625,-1.5068904173493385,0.8150058850526809,-0.14093600905109196
1733512569401739000,2.515739013671875,-1.4874164860725403,1.0395108060091733,-0.21337666535647584
1733512569411814100,2.525814208984375,-1.3362708158373833,0.9635282210469245,-0.3449259287126362
1733512569421889000,2.535888916015625,-1.0539385598123072,0.6589373714625835,-0.429241128940694
1733512569431964200,2.545964111328125,-0.7183762333810328,0.3159989633053541,-0.4789936594294384
1733512569442038000,2.5560380859375,-0.3439221584975719,0.07932137399613856,-0.5990558803431689
1733512569452113200,2.566113037109375,0.06728665737595875,-0.15325111808180808,-0.7459397284153848
1733512569462188300,2.576188232421875,0.5344821397542954,-0.3386006712138653,-0.9072798257328569
1733512569472262100,2.58626220703125,0.9970166491508483,-0.5219137500822544,-1.0788228987652808
1733512569482337300,2.596337158203125,1.4198340651869774,-0.7196756255418062,-1.1915542288016527
1733512569492412200,2.606412109375,1.8223200563341377,-0.8018868757605552,-1.2444083785675466
1733512569502487300,2.6164873046875,2.272149982458353,-0.8463841891348362,-1.2410919474959372
1733512569512561200,2.62656103515625,2.7257904067814347,-0.8811293393015861,-1.214060294315964
1733512569522636300,2.63663623046875,3.0401860265433784,-0.8304267415463924,-1.1698356604032218
1733512569532711000,2.6467109375,3.040338002234697,-0.7383435011327266,-0.9746887897476554
1733512569542785300,2.656785400390625,2.7423054882526396,-0.5859498766630887,-0.6648459379192442
1733512569552860000,2.66685986328125,2.2300784349262712,-0.40078386340439315,-0.3473904191300273
1733512569562935000,2.67693505859375,1.5967103890061378,-0.24294600205421446,-0.08426904126508161
1733512569573010200,2.68701025390625,0.9476011685967445,-0.1957791772097349,0.12095034712618216
1733512569583084000,2.697083984375,0.41893977088518436,-0.20095394949913023,0.3201790985342115
1733512569593159200,2.7071591796875,-0.020399740884825587,-0.21179040081202982,0.5494950730342417
1733512569603234000,2.717234130859375,-0.39133039088249205,-0.19635551579296587,0.7990317785903811
1733512569613309200,2.72730908203125,-0.7109061166960745,-0.1198012684226036,1.0381494545280934
1733512569623383000,2.737383056640625,-1.0352608204144984,-0.008192658805847167,1.25211383837834
1733512569633458200,2.747458251953125,-1.3845090693056583,0.14791092609763146,1.3992248462699353
1733512569643533300,2.757533203125,-1.865720222121477,0.42201252939403056,1.4952581394836306
1733512569653607200,2.767607177734375,-2.460274845522642,0.7502449513286352,1.505774272800982
1733512569663682300,2.777682373046875,-3.0736802998661994,1.0523381388783455,1.3685124587506055
1733512569673757200,2.787757080078125,-3.6299405561864373,1.342957161733508,1.0422560861293226
1733512569683832000,2.79783203125,-4.111481963869929,1.5341022494018077,0.5831873531471937
1733512569693906200,2.80790625,-4.567719418948888,1.5727601890981195,0.05661230585617013
1733512569703981000,2.81798095703125,-4.9953696619689465,1.4940753594398497,-0.43416462988276033
1733512569714056200,2.82805615234375,-5.329707999563217,1.3552017262786626,-0.8811098308835178
1733512569724131000,2.838131103515625,-5.737441243714094,1.1473819826632738,-1.2135149353928862
1733512569734205200,2.848205078125,-6.173452487844228,0.8975269318729638,-1.3454931099519132
1733512569744280000,2.858280029296875,-6.5344286569952965,0.7585995226979255,-1.4276961768642067
1733512569754355200,2.868355224609375,-6.854051071494817,1.1382084961265324,-1.5152236536696553
1733512569764429000,2.878428955078125,-7.01922935873568,2.220754141741991,-1.7979511926226317
1733512569774504200,2.888504150390625,-6.816861450785398,3.6462200753360983,-2.3548428787142037
1733512569784579000,2.8985791015625,-6.213347860381007,4.866615856283903,-3.0887758699283
1733512569794654200,2.908654296875,-5.38005637705326,5.489126992624998,-3.988337230238318
1733512569804728000,2.91872802734375,-4.409353442071378,5.482751612374186,-4.84002478647828
1733512569814803200,2.92880322265625,-3.4175521894812584,4.940613989430665,-5.456416563156247
1733512569824878300,2.93887841796875,-2.548573891222477,3.8950194795936346,-5.692939838686585
1733512569834953000,2.948952880859375,-1.8555714608117937,2.6557886497944594,-5.325909191802144
1733512569845027300,2.95902734375,-1.410937495895475,1.3697656736820936,-4.378441294196247
1733512569855102000,2.96910205078125,-1.2041339435853062,0.1238876609534025,-3.1552494527891275
1733512569865177000,2.979177001953125,-1.0840494743071496,-0.6767775640577077,-2.1130064453370867
1733512569875251000,2.9892509765625,-0.9912287133991717,-0.8106348303616047,-1.2693939128726721
1733512569885326000,2.999326171875,-1.1116846463382244,-0.6123761112958193,-0.2644856336891651
1733512569895401200,3.009401123046875,-1.5873687062956392,-0.4346323569923639,1.216689473775774
1733512569905476000,3.01947607421875,-2.44464458406195,-0.361014747595787,2.8711928571894765
1733512569915550200,3.02955029296875,-3.2237679854810235,-0.5736877764612436,4.239836833365262
1733512569925625000,3.039625,-3.6574563396215436,-1.1555062524080275,4.9685500441044566
1733512569935700200,3.0497001953125,-3.752529994022846,-1.6080664802789688,4.778671030849218
1733512569945775000,3.059775146484375,-3.212002728885412,-1.3662199638992547,3.3903611079558726
1733512569955849200,3.06984912109375,-2.1474457444250583,-0.46165772656202314,1.7335057545885442
1733512569965924000,3.079924072265625,-0.8176584453880786,0.6479004291415215,0.42992180468123403
1733512569975999200,3.089999267578125,0.5544412241995335,1.716566602486372,-0.5755928428975865
1733512569986073300,3.1000732421875,1.6351508865594864,2.7403695517539974,-1.603310225662589
1733512569996148200,3.110148193359375,2.6635148601323366,3.877922214320302,-2.7184558261096474
1733512570006223000,3.12022314453125,3.6647254538416862,5.163623703393339,-3.879622880758345
1733512570016298000,3.130298095703125,4.687382155683636,6.239027660560607,-4.9807782420367
1733512570026372000,3.1403720703125,5.595718066340685,6.790320065340399,-5.749592869278788
1733512570036447000,3.150447021484375,6.224023568174243,6.838270734038948,-6.309225232380628
1733512570046522000,3.160522216796875,6.364596990990639,6.344869961735606,-6.814494721654057
1733512570056597200,3.17059716796875,6.007934008863568,5.241045381247997,-7.208081367030739
1733512570066671000,3.180671142578125,5.397018033248186,3.748143157240748,-7.2240329694002865
1733512570076746200,3.190746337890625,4.381127172279357,1.9688965189576149,-6.521407847380638
1733512570086821000,3.200821044921875,3.1593694553285836,0.35168577823638913,-5.212406731262803
1733512570096895200,3.210895263671875,2.3429490273028613,-0.6551210280448198,-3.956229735098779
1733512570106970000,3.22097021484375,2.1009657328009603,-1.0630980178236962,-2.8013895453840494
1733512570117045200,3.231045166015625,2.061536224210262,-1.1896154427587986,-1.6315214440159498
1733512570127120400,3.241120361328125,2.208942269525677,-1.2504717702597379,-0.47652989966440945
1733512570137194200,3.2511943359375,2.4204363177396355,-1.3394693196177483,0.6556826805155724
1733512570147269400,3.261269287109375,2.709199337464571,-1.4793109210282562,1.6551801136314868
1733512570157344000,3.271343994140625,3.071465838687122,-1.6596300787776708,2.506058983837068
1733512570167419100,3.281419189453125,3.4468522259846326,-1.923483259782195,3.0856653366923332
1733512570177493000,3.291492919921875,3.839501882772147,-2.2924065885454414,3.384821009485423
1733512570187568000,3.301568115234375,4.286988460640609,-2.7157804694205523,3.479719015058875
1733512570197643000,3.31164306640625,4.803590660311281,-3.0110861887872216,3.4698309505119918
1733512570207717000,3.321717041015625,5.392535919398069,-3.230169669216871,3.4278143480375407
1733512570217792000,3.3317919921875,5.918726031625271,-3.3016923521608113,3.46562911490798
1733512570227867100,3.3418671875,6.278740077745914,-3.234308084195852,3.5841301143869755
1733512570237942300,3.3519423828125,6.373839451110363,-3.1294770058900117,3.7377512348249553
1733512570248016100,3.36201611328125,6.2831158086121075,-3.055448477604985,3.9101945446327324
1733512570258091300,3.37209130859375,6.090135906732082,-2.9982307988673447,4.0911487854152915
1733512570268166100,3.382166259765625,5.805100236967205,-2.8697809445649383,4.309522364009917
1733512570278241000,3.392240966796875,5.300348049566149,-2.699170695403218,4.499723741087317
1733512570288315100,3.402315185546875,4.711293777146935,-2.4832944865822792,4.654696860656142
1733512570298390000,3.41239013671875,4.024499845987558,-2.2555396239191294,4.70936427038908
1733512570308465000,3.42246484375,3.25261677108556,-2.005431475150585,4.815251872010529
1733512570318540000,3.4325400390625,1.9555606520444153,-1.5291215383797883,4.777016249379515
1733512570328614000,3.44261376953125,0.16988368845283985,-0.6901064167082309,4.674455161832273
1733512570338689000,3.45268896484375,-9.227446090465783,0.9310153599768877,3.2024066330224272
1733512570348764000,3.462763916015625,-18.035118954896927,2.5757851387530564,-0.07520180984809995
1733512570358838000,3.472838134765625,-13.63365743511915,2.3346359569877384,-0.9214966401990502
1733512570368913000,3.482912841796875,-9.657516254109144,1.2842945448845624,-1.5530178161434829
1733512570378988000,3.492988037109375,-7.451583249402046,0.8218348542898893,-2.6327032500222325
1733512570389063200,3.503063232421875,-5.260200748094916,0.7203051556169986,-3.6409289831906553
1733512570399137000,3.513136962890625,-2.4898174586102364,0.5001835643112659,-3.9041798143878577
1733512570409212200,3.523212158203125,-0.059315381669253105,0.30262919412255285,-3.3306928211957216
1733512570419287000,3.533287109375,1.3209271162331104,0.46732115915119643,-2.3925953940033913
1733512570429362200,3.543362060546875,1.412950735414028,1.081504027608037,-1.492984057071805
1733512570439436000,3.55343603515625,1.0460872617900372,1.9725462736368178,-0.5501403486678377
1733512570449511200,3.56351123046875,0.7951403241097926,3.353282254144549,0.13498152109347283
1733512570459585800,3.573585693359375,0.8486696697235107,5.362260608121752,0.6010393823105842
1733512570469660200,3.58366015625,1.2759803055256604,7.945560944810509,0.9085229576617478
1733512570479734800,3.59373486328125,1.8984674764692782,10.223955374616384,1.098692259100452
1733512570489810000,3.603809814453125,2.6805308768630027,10.46635660226941,1.1038028070472181
1733512570499885000,3.613885009765625,3.645360828158259,7.071485031151771,0.5513264166472479
1733512570509959000,3.623958984375,4.210312924978137,2.0417636022478343,0.2955140648877248
1733512570520034000,3.634033935546875,4.207325433599949,-1.1961012976467609,0.3762141068259254
1733512570530109000,3.64410888671875,3.9260944168150425,-2.9718057332783934,0.3050648055053316
1733512570540184000,3.65418408203125,3.988756916955113,-4.259978580901026,0.34282259975783524
1733512570550258000,3.6642578125,4.5271422016277905,-5.3224757102221245,0.5426074324123561
1733512570560333000,3.6743330078125,5.053872704342007,-6.043326809284091,0.5667380669211969
1733512570570408200,3.684408203125,5.038357155302166,-6.2236225861579175,0.5926933230413124
1733512570580483000,3.694483154296875,4.188032704108953,-5.535856595095992,0.6888864464592188
1733512570590557200,3.70455712890625,3.0716712981313465,-4.089336767557263,0.7596236781138926
1733512570600632000,3.714632080078125,2.287153490322828,-2.3076772229135036,0.8372817220076918
1733512570610707000,3.72470703125,1.7422266750521958,-0.3748930508226156,0.8018479319896549
1733512570620781000,3.734781005859375,1.3872446317493914,1.295052670264244,0.6596811755672097
1733512570630856000,3.74485595703125,1.1096464185088872,2.5301088447272777,0.4123386921197176
1733512570640931000,3.75493115234375,0.9588515344727784,3.3818016616642472,0.15848689984343944
1733512570651006000,3.765005859375,0.624917028439045,3.7635435554683205,-0.3168918204918504
1733512570661080000,3.775080078125,-0.17355097878873346,3.293835793441534,-0.7921694185402244
1733512570671155000,3.785155029296875,-1.2006161447227,2.0412194123685357,-1.0755288987211882
1733512570681230000,3.79522998046875,-1.9337720140844583,0.7411649882942438,-1.2044842913929372
1733512570691305000,3.805304931640625,-2.347600652500987,-0.2963514290273189,-1.133035769663751
1733512570701379000,3.815379150390625,-2.4857050548553463,-0.8506354168385267,-0.9638924512494355
1733512570711454000,3.825453857421875,-2.186475440043211,-0.8538543788850307,-0.9744503048166632
1733512570721529000,3.835529052734375,-1.575461849272251,-0.44841304506361485,-1.4369447744637727
1733512570731604200,3.845604248046875,-1.097160446423292,0.167462598785758,-2.192638931109011
1733512570741678000,3.855677978515625,-0.8090145356833934,0.7103314586132764,-3.048391252569854
1733512570751753200,3.865753173828125,-0.5396551584780216,0.944054874292016,-3.765825528925657
1733512570761827800,3.875827880859375,-0.22391163123846053,0.885314516031742,-4.196838526377082
1733512570771902200,3.885902099609375,0.1224760405898094,0.6368459511637687,-4.253387512072921
1733512570781976800,3.895976806640625,0.4850467854559421,0.3020692221522331,-4.051618739059567
1733512570792052000,3.906052001953125,0.8048480636537074,-0.1042898110359907,-3.765888949550688
1733512570802127000,3.916127197265625,0.9825602537751197,-0.5853337905913591,-3.4555887824088334
1733512570812201000,3.926200927734375,1.0673813942313193,-1.0005874933749437,-3.2397979137837885
1733512570822276000,3.936276123046875,1.0833213061630724,-1.2574480390131473,-2.932464487493038
1733512570832351000,3.94635107421875,1.0977718563199044,-1.36516548641026,-2.419707565073669
1733512570842426000,3.956426025390625,1.1136930635511875,-1.3602040646106004,-1.843476533870399
1733512570852500000,3.9665,1.0828548576951027,-1.2785732446283102,-1.4005856132291257
1733512570862575000,3.9765751953125,0.9697568863034248,-1.053588431200385,-1.1276980618976056
1733512570872650000,3.98664990234375,0.7759621609091758,-0.7890180418372154,-0.9174746912065893
1733512570882725000,3.99672509765625,0.5549918438196182,-0.4773714285224676,-0.680891794443503
1733512570892799000,4.006799072265625,0.3932522257905453,-0.13120119883716105,-0.34076446165163066
1733512570902874000,4.0168740234375,0.3115864075601101,0.15162147105336188,0.09999772159894928
1733512570912949000,4.026948974609375,0.22580076945330946,0.3147890029937029,0.6050576049759984
1733512570923024000,4.03702392578125,0.06278115808367729,0.3147229520201683,1.1413663756355643
1733512570933098000,4.047097900390625,-0.24098317754864693,0.3080120562046766,1.6871192664667962
1733512570943172900,4.0571728515625,-0.5996330957092344,0.18786708891093729,2.079176071927696
1733512570953248000,4.067248046875,-1.034410925586894,0.0077495912134647365,2.321644227337092
1733512570963321900,4.07732177734375,-1.4850981261275709,-0.15733224991559983,2.43245277261734
1733512570973397000,4.08739697265625,-1.8434367863819001,-0.1888736356049776,2.5033202065229414
1733512570983472000,4.09747216796875,-2.1697969847038387,0.05206278019249439,2.574390761785209
1733512570993547000,4.107547119140625,-2.456694064426422,0.432384870326519,2.643317583017051
1733512571003621000,4.11762109375,-2.7906033629536626,0.7502192323654889,2.618453775395453
1733512571013696000,4.127696044921875,-3.180965785586834,0.8208902669161557,2.4078270115353164
1733512571023771100,4.137771240234375,-3.5162452034235,0.5647247178047895,1.8939748412251471
1733512571033846000,4.147845947265625,-3.81632471306324,0.313218392676115,1.2632044105827807
1733512571043920100,4.157920166015625,-4.188581277902424,0.44804128914177416,0.7099453819051385
1733512571053995000,4.1679951171875,-4.6670177053079005,0.6998164943397045,0.25111794686559585
1733512571064070000,4.17806982421875,-5.018327343708276,0.7683247978985309,-0.275420613473095
1733512571074145000,4.18814501953125,-5.132546428084373,0.984379870417714,-0.8980549012698232
1733512571084219000,4.198218994140625,-4.984284788852929,1.8192489783257244,-1.4916048776730895
1733512571094294000,4.2082939453125,-4.652308504214883,3.1813024701952934,-2.0450196814343333
1733512571104369000,4.218368896484375,-4.257133712863922,4.54390073646605,-2.64261995614171
1733512571114443000,4.228443115234375,-3.8596807474479076,5.37395981374383,-3.372460125084221
1733512571124518000,4.238517822265625,-3.37585678178519,5.528722505432367,-4.31956795720607
1733512571134593000,4.248593017578125,-2.8419629633128642,5.194408717757463,-5.390524579575658
1733512571144668200,4.258668212890625,-2.34496504330039,4.443945739763975,-6.167385150629282
1733512571154742000,4.268741943359375,-1.8604082333184777,3.3372885661989447,-6.2122904602825635
1733512571164817200,4.278817138671875,-1.5243490632809698,1.952877696570754,-5.445748454147577
1733512571174892000,4.28889208984375,-1.4591677121877669,0.6300163974046706,-4.143667492681741
1733512571184967200,4.29896728515625,-1.522379955165088,-0.3956593599975109,-2.9260502365365624
1733512571195041000,4.309041015625,-1.708174037194252,-1.0802040509253739,-2.0098098363652825
1733512571205116200,4.3191162109375,-2.014558053805679,-1.257829147285223,-1.1828045937001705
1733512571215191000,4.32919091796875,-2.640574129527807,-1.1293512359321116,-0.06669808493223972
1733512571225266000,4.339265869140625,-4.81326420532465,-0.8512439041256904,1.965892514836043
1733512571235340000,4.349340087890625,-9.29177740060091,-0.5944336273699998,4.560306804604828
1733512571245415000,4.359414794921875,-12.530483427494763,-0.8723656026095151,6.565646802079677
1733512571255490000,4.369489990234375,-11.563395468139648,-1.2837410026550293,6.551963144642114
1733512571265565000,4.37956494140625,-7.686836943387985,-0.8435837447613477,4.9310401053994894
1733512571275639000,4.38963916015625,-3.9512779579102992,0.28059681053459645,2.896350387060642
1733512571285714000,4.3997138671875,-1.3753858516514301,1.4218588490128516,1.1101681773606686
1733512571295789000,4.4097890625,0.6377490374833346,2.4485516745030877,-0.5510778121810406
1733512571305863000,4.41986279296875,2.3373908086538315,3.3294594800084827,-1.9562239382587372
1733512571315938000,4.42993798828125,3.8991111328214405,4.290841921198368,-3.0610426443502305
1733512571326013200,4.44001318359375,5.342139611113071,5.56211799455583,-3.7846769443899393
1733512571336088000,4.450088134765625,6.617640024167299,6.768156164327263,-4.0791123106628655
1733512571346163000,4.460162841796875,7.918039900678396,7.4743158902138465,-4.247078475056588
1733512571356237000,4.470237060546875,8.973098404431342,7.769560234782099,-4.3216298581719395
1733512571366312000,4.48031201171875,9.404690663075446,7.558011826032399,-4.33060840665847
1733512571376387000,4.490386962890625,8.742051514485478,6.871324277856946,-4.30951593426913
1733512571386461000,4.5004609375,8.099756065744161,5.282979566136002,-4.578728888741136
1733512571396536000,4.5105361328125,7.464682969471812,3.4543396591305733,-4.331474960359931
1733512571406611000,4.52061083984375,6.5558145593732595,1.8114134623944758,-3.6246292980358
1733512571416686000,4.53068603515625,5.502281073230504,0.30750059955120085,-2.896087936732173
1733512571426760000,4.540760009765625,4.485574804225564,-0.8741220908880233,-2.3507729989267885
1733512571436835000,4.5508349609375,3.5957010174542665,-1.6078431929171084,-1.9286217917144297
1733512571446910000,4.560909912109375,2.7246348070055246,-1.9617156675428151,-1.5030463091418147
1733512571456985000,4.570985107421875,2.0225395540788766,-2.155914882084727,-0.9537143907800316
1733512571467059000,4.581058837890625,1.8043398707464335,-2.31167476811707,-0.3939643561152741
1733512571477134000,4.591134033203125,2.054796979083121,-2.4096096571683883,0.08069330167016014
1733512571487209000,4.601208984375,2.7888135569274426,-2.503109778642654,0.44944542031865564
1733512571497283800,4.611283935546875,3.7618238920688625,-2.5830384708821774,0.6488371254697441
1733512571507358000,4.62135791015625,4.673749936172366,-2.6211282553017137,0.6786456229519099
1733512571517432800,4.631432861328125,5.335490674617886,-2.6532307820051906,0.6526224161621182
1733512571527508000,4.641508056640625,5.623132142966985,-2.72113702801764,0.6231409586772322
1733512571537583000,4.6515830078125,5.586520029884577,-2.8432682006925343,0.7169757189333439
1733512571547657000,4.661656982421875,5.457868515530229,-3.0033395201832054,0.9588030191559344
1733512571557732000,4.671732177734375,5.2435003731846805,-3.159236768859625,1.3370780405670404
1733512571567807000,4.681806884765625,4.894934480534493,-3.1780303166568276,1.8467190229229629
1733512571577882000,4.691882080078125,4.3955476195588705,-2.9248119269132613,2.499291097137332
1733512571587956000,4.7019560546875,3.7825831869810815,-2.423263503989577,3.26841347515434
1733512571598031000,4.712031005859375,2.674007904835045,-1.7936685468673705,3.973436598226428
1733512571608106000,4.72210595703125,-1.437309808383882,-0.8354933772861957,4.879472999769449
1733512571618180000,4.73218017578125,-10.592070894128083,1.0108177954882382,5.9815521978944535
1733512571628255200,4.742255126953125,-10.664506015741825,1.7535744368880986,5.22975592547059
1733512571638329900,4.752329833984375,-7.779542699614167,1.5477373915225265,4.049231259401142
1733512571648405000,4.762405029296875,-4.790820318326354,1.1504273417085409,3.2939404228597877
1733512571658478800,4.772478759765625,-2.3861864037439227,0.7557897259742021,2.710500775451958
1733512571668554000,4.782553955078125,-1.0079308418750763,0.17002105109691618,2.007087717925012
1733512571678628900,4.79262890625,-0.26742460975050925,-0.5826631100773811,1.3451976341366767
1733512571688704000,4.8027041015625,0.4693769226372242,-1.2475970916062593,0.6544048425994813
1733512571698777900,4.81277783203125,1.4445581720769405,-1.707739152908325,-0.04699588872436434
1733512571708853000,4.82285302734375,2.244650273375213,-1.9628496400088071,-0.737962392860651
1733512571718928100,4.83292822265625,2.488276074387133,-1.97720491309762,-1.3585890306293964
1733512571729003000,4.8430029296875,2.1060759154215454,-1.8516583790212868,-1.7974455811880528
1733512571739077000,4.8530771484375,1.3084031502246856,-1.5736971776872872,-2.0127768694773316
1733512571749152000,4.863152099609375,0.3410769981995225,-1.2931740169107913,-1.931530664898455
1733512571759227100,4.87322705078125,-0.5644359639912844,-1.020803767451644,-1.512982596744597
1733512571769302000,4.883302001953125,-1.2840627819553017,-0.7840414224684238,-1.3113207912370561
1733512571779376000,4.893376220703125,-1.6266332335829734,-0.6020861879497766,-1.5601944297745822
1733512571789451000,4.903450927734375,-1.4525570618763566,-0.47325171824395657,-1.8436586124390362
1733512571799526000,4.91352587890625,-0.8313251516908406,-0.25756840164661404,-1.8751186034552751
1733512571809601000,4.92360107421875,-0.14437500705644488,0.19868191291391848,-1.7755141737565396
1733512571819675000,4.9336748046875,0.30237390418723226,0.9762865803331137,-1.7880721881650388
1733512571829750000,4.94375,0.45108270266428585,1.9498159709125755,-1.8666848293699323
1733512571839825000,4.953824951171875,0.5149481488533317,2.931740264871716,-1.8249528890557587
1733512571849900000,4.963900146484375,0.7703802691236138,3.6329613653123376,-1.607196711707115
1733512571859974000,4.973973876953125,1.1122142231702803,4.040565430125594,-1.1637252146989105
1733512571870049000,4.984049072265625,1.3627034802109002,4.471592456102371,-0.44900209699794646
1733512571880124200,4.994124267578125,1.6441712283611296,5.260376689183712,0.286753159473557
1733512571890199000,5.004198974609375,2.0872873360604047,6.212791395542025,0.8401667028594761
1733512571900273200,5.014273193359375,2.5564111607193944,6.706482675224542,1.2842838773600755
1733512571910348000,5.02434814453125,2.755169646000862,6.024257951676845,1.56629260051921
1733512571920423000,5.0344228515625,2.2392190421067175,3.1216999421477314,1.5499714341849087
1733512571930497000,5.0444970703125,1.1445355071909724,-0.07485504223704338,1.9109326980277894
1733512571940572000,5.054572021484375,0.11310038254447281,-1.517143515816331,2.9429367816686627
1733512571950647000,5.06464697265625,-0.6339396352630108,-2.2777327510267495,3.9920740786790847
1733512571960722000,5.074721923828125,-1.0883838502496481,-2.8279350224822757,4.766409515169262
1733512571970796000,5.084796142578125,-1.218148805738613,-3.308009280222654,5.198169531595707
1733512571980871000,5.094870849609375,-1.2178051068674771,-3.5030309170633553,5.556814627450704
1733512571990946000,5.104946044921875,-1.4001298322856426,-3.028556963548064,6.39154345010519
1733512572001021000,5.11502099609375,-1.6311913352787493,-2.092575505596399,7.423149766600131
1733512572011095000,5.125094970703125,-1.7549726132482288,-1.0756173076570033,8.310665592068434
1733512572021170000,5.135169921875,-1.6954741300970315,-0.4231517625570297,8.317074290066957
1733512572031245000,5.1452451171875,-1.4277268642634153,-0.0788408970028162,7.450668472644686
1733512572041320200,5.1553203125,-1.1258604712069034,0.2011339822411537,6.494471909660101
1733512572051394000,5.16539404296875,-0.7985790663868189,0.28479133961498737,5.646400205829739
1733512572061469200,5.17546923828125,-0.4257172656634822,0.13015958082973955,4.844298810535669
1733512572071543800,5.185543701171875,0.12329499228987842,-0.10540507880151272,4.017814084613323
1733512572081619000,5.195618896484375,1.0431033506084233,-0.12514905919134617,3.0703865190178155
1733512572091692800,5.20569287109375,2.29433083460629,0.3019353666394949,2.0173063296005127
1733512572101768000,5.215767822265625,4.506947262600064,1.125917169830203,0.8045452082496136
1733512572111843000,5.225843017578125,7.113788049352169,1.9898218180865048,-0.549634481504932
1733512572121918000,5.23591796875,8.123376595306397,2.579458274307847,-1.9687574027478694
1733512572131992000,5.245991943359375,8.051970816740393,3.014557079768181,-2.927774283850193
1733512572142067000,5.25606689453125,7.628492306447028,3.2405589612841603,-3.5017642581284045
1733512572152142000,5.26614208984375,6.975722225442528,2.978363484358787,-4.00456911085397
1733512572162217000,5.276217041015625,5.654000743961334,2.3852573062002658,-4.4605631125658745
1733512572172291000,5.286291015625,4.627849185740947,1.8180840261995792,-5.213226815474033
1733512572182366000,5.296365966796875,3.9482559797406194,1.3451800984799862,-6.197323192775249
1733512572192441000,5.306441162109375,3.250859990546107,1.2917629810690878,-7.436507260823249
1733512572202516000,5.316515869140625,1.6651193238437174,1.67404789570868,-8.744310107067227
1733512572212590000,5.326590087890625,-0.7571067268569022,1.8778864607334136,-9.286747589740157
1733512572222665000,5.3366650390625,-2.745812619590759,1.6244792704194784,-8.708654856318235
1733512572232739800,5.34673974609375,-4.2096740425527095,0.8911766860634088,-7.702620787975191
1733512572242815000,5.35681494140625,-5.188317999666929,-0.20829262182414532,-6.312611952209473
1733512572252888800,5.366888916015625,-5.347931053996086,-1.257818041369319,-5.084729030376672
1733512572262964000,5.3769638671875,-5.0960734312117095,-1.921004302448034,-4.093054034514725
1733512572273038600,5.38703857421875,-4.649697444933652,-2.013326027792692,-3.3679251120030878
1733512572283112400,5.397112548828125,-4.237849166679382,-1.7230583025932311,-2.9541011497616765
1733512572293187600,5.4071875,-4.014208753597736,-1.1436375354379416,-2.42643833463341
1733512572303262500,5.417262451171875,-3.860687586402893,-0.5157067121356725,-1.775892359419167
1733512572313337600,5.427337646484375,-3.8506151051998136,0.12818623493015766,-1.1437317895926535
1733512572323411500,5.437411376953125,-3.904295257461071,0.5675789381921291,-0.5708489728387445
1733512572333486600,5.447486572265625,-3.9648540633201597,0.8389999241024255,0.10912671140683815
1733512572343561500,5.4575615234375,-4.026092083615064,1.015046226838231,0.770693645921722
1733512572353636600,5.46763671875,-4.052810579192638,1.060397526693344,1.1877847202003002
1733512572363710500,5.47771044921875,-4.004340855056047,0.8973726180940866,1.3307090900570153
1733512572373785600,5.48778564453125,-3.7711961160480976,0.6704366705983876,1.1637869548235087
1733512572383860500,5.497860595703125,-3.4138884062767025,0.5458849927783012,0.9788968358967453
1733512572393935400,5.507935302734375,-3.0526433570563793,0.4097837469398975,0.938653234444186
1733512572404009500,5.518009521484375,-2.7272774304687974,0.22914193310737607,0.9742237295191735
1733512572414084400,5.52808447265625,-2.4572177960395813,0.07676701333820819,0.9874250102672726
1733512572424159500,5.538159423828125,-2.318251223897934,0.04339139795899391,0.9719495740421116
1733512572434234600,5.548234619140625,-2.308324727036804,0.1368377434194088,0.93282460135594
1733512572444308500,5.55830859375,-2.4281135743692515,0.2871118915170431,0.8557174693431705
1733512572454383600,5.568383544921875,-2.5766473085403443,0.39203532428145405,0.7123500318940729
1733512572464458500,5.57845849609375,-2.648226105585694,0.4371025464981794,0.4385148244488984
1733512572474533600,5.58853369140625,-2.6364941667377946,0.475436661067605,0.023928225538227706
1733512572484607500,5.598607421875,-2.5240496908187864,0.5697586203187703,-0.504823170278035
1733512572494682600,5.6086826171875,-2.2968368260778487,0.6363958693087101,-1.0956744456492364
1733512572504757500,5.618757568359375,-2.085938697930425,0.7905114952653646,-1.7487331343367696
1733512572514832400,5.628832275390625,-1.844885377755016,1.1074567995101212,-2.5292992819100615
1733512572524906500,5.638906494140625,-1.5424761099934576,1.5860697525262832,-3.3368063356399533
1733512572534981400,5.6489814453125,-1.1815819200374185,2.073429491099715,-4.011390773567557
1733512572545056500,5.659056396484375,-0.9155062406778335,2.410514497053623,-4.45093019182384
1733512572555131400,5.66913134765625,-0.8923625348471105,2.5245178928524252,-4.603315632987022
1733512572565205500,5.67920556640625,-1.0928453597031533,2.4572885231882333,-4.431894359703362
1733512572575280400,5.6892802734375,-1.426966401284933,2.4020956282764674,-4.046796141208708
1733512572585355500,5.69935546875,-1.7251145044706762,2.3278736232459543,-3.6594036742970344
1733512572595430700,5.7094306640625,-1.905363519593328,2.185622622606158,-3.4418206615582108
1733512572605504500,5.71950439453125,-1.8336809699125587,1.9830209059000015,-3.311920023925602
1733512572615579600,5.72957958984375,-1.675318061774969,1.7411030778497456,-3.068977236741781
1733512572625654500,5.739654541015625,-1.6751637479960917,1.4808295088976622,-2.721198695077002
1733512572635729700,5.749729736328125,-1.8142754276968538,1.1317372542858124,-2.3723465328313407
1733512572645803500,5.759803466796875,-2.0114405063070357,0.6078419749975205,-1.9836396223202346
1733512572655878700,5.769878662109375,-2.257037899652868,0.033906361255049706,-1.573638871628791
1733512572665953300,5.779953369140625,-2.530941203898191,-0.48374680877327914,-1.1625912422329188
1733512572676028400,5.7900283203125,-2.9485926154732702,-0.8031336609512567,-0.7276746614716947
1733512572686102500,5.8001025390625,-3.7243805888593196,-0.8223574168592691,-0.021896080389805138
1733512572696177400,5.810177490234375,-6.865715790325403,-0.4609621455132961,1.6920809805274009
1733512572706252500,5.82025244140625,-14.494896663558482,0.20867840627133846,4.883166593590379
1733512572716327400,5.830327392578125,-18.607880264163015,0.6718167267799378,6.9530328392505645
1733512572726401500,5.840401611328125,-14.875404047131537,1.1469722328186034,6.297782047346234
1733512572736476400,5.850476318359375,-8.715766149628163,1.870411010286212,4.355540603341162
1733512572746551600,5.860551513671875,-3.3208675927519797,2.478057170450687,2.1514744154192504
1733512572756626700,5.870626708984375,-0.674546444004774,2.7486516424089666,0.6352460416864604
1733512572766700500,5.880700439453125,0.9744593649059533,3.194934689706564,-0.3415444695807993
1733512572776775700,5.890775634765625,2.2735493278622627,3.807307293871045,-1.023015598282218
1733512572786850600,5.9008505859375,3.709535486426949,4.634064406993985,-1.5976979387387633
1733512572796925400,5.910925537109375,5.714977482971548,5.5606099280804395,-2.049824159106612
1733512572806999600,5.92099951171875,7.941080584526062,6.598501023933291,-2.2609381219618023
1733512572817074400,5.931074462890625,9.812437935751676,7.50830934523046,-1.9423890357822178
1733512572827149600,5.941149658203125,10.826412733966112,8.20874952442646,-1.2279302681058644
1733512572837224400,5.951224365234375,11.153152286994457,8.390661504325271,-0.8896105327252298
1733512572847298600,5.961298583984375,11.038739141350984,7.998031136760115,-0.8566239897288381
1733512572857373400,5.97137353515625,10.03770565777421,6.42423751296103,-0.7805730887707323
1733512572867448600,5.981448486328125,8.38420838266313,3.8664971494644877,-0.3040776393651962
1733512572877523500,5.9915234375,7.093164948040246,1.5301047041982412,0.2600583918314427
1733512572887597600,6.00159765625,6.0024605458885425,-0.45993455603122707,0.6047269117169082
1733512572897672400,6.01167236328125,4.962940387529135,-2.077388457858562,0.5446120502330363
1733512572907747600,6.02174755859375,3.893761296226084,-3.2914643881350756,0.25455179377179593
1733512572917822700,6.03182275390625,2.6677505980059504,-4.1077796022206545,-0.08294519051648676
1733512572927896600,6.041896484375,1.4468664490193128,-4.643406235834956,-0.3327649142650887
1733512572937971700,6.0519716796875,0.48160599735230203,-4.942852708268165,-0.46443223277665674
1733512572948046300,6.06204638671875,0.3448892499640584,-5.020564308980107,-0.41391682815663516
1733512572958121500,6.07212158203125,1.3452519946724175,-4.905627431723476,-0.07101685231365264
1733512572968195300,6.0821953125,2.723041400334239,-4.665777057597041,0.33822909795511513
1733512572978270500,6.0922705078125,3.929958983288705,-4.34078230240941,0.7380326816178858
1733512572988345600,6.102345703125,4.888483989220857,-3.982759137845039,1.0820039399541914
1733512572998420500,6.11242041015625,5.558960407307744,-3.672407240515947,1.3521313789226115
1733512573008494600,6.12249462890625,5.873758762651682,-3.468699608394503,1.6266884709015488
1733512573018569500,6.132569580078125,5.83580809444189,-3.4255765059828756,1.8845662307582796
1733512573028644600,6.14264453125,5.636492559799551,-3.491101409816742,2.033464560458064
1733512573038719500,6.152719482421875,5.323319175308942,-3.5476743609100576,2.1483932544082402
1733512573048793600,6.162793701171875,4.957369893920421,-3.530575342071056,2.2144717004716394
1733512573058868500,6.172868408203125,4.485300955720246,-3.435443820002675,2.247398987561464
1733512573068943600,6.182943603515625,3.8035230991572138,-3.1570202618539334,2.1030147742852567
1733512573079018500,6.1930185546875,3.1384836114272474,-2.6847534629940983,1.856694035100937
1733512573089092600,6.203092529296875,2.7851301922395826,-1.8813649504989385,1.5329806980259715
1733512573099167500,6.21316748046875,2.721711028513312,-0.8245680786460637,1.1163392672110348
1733512573109242400,6.223242431640625,2.5136644904047247,0.4777238952219486,1.148189572719112
1733512573119317500,6.2333173828125,1.5323440075576304,2.583883105012774,1.026871177731827
1733512573129391400,6.243391357421875,-18.28863778889179,8.160255834892391,-3.624308980040252
1733512573139466500,6.253466552734375,-40.89731787450313,13.540657664382456,-8.90294233366549
1733512573149541600,6.263541748046875,-25.84783151818514,8.13478295546174,-6.3522296768486495
1733512573159616500,6.273616455078125,-13.835718469077348,3.7798382721871135,-5.068423207741976
1733512573169690600,6.283690673828125,-5.60339166970849,2.444737669172883,-2.4142250420093534
1733512573179765500,6.293765625,-1.1935855154335497,1.740402820625901,-0.6239481834068894
1733512573189840600,6.303840576171875,0.9732442900277674,1.0399410141199827,0.09988229679204523
1733512573199915500,6.31391552734375,1.9017679793193936,0.06788929487764835,0.7929881875772029
1733512573209989600,6.32398974609375,2.577883572337031,-0.7815753246158361,1.3509350087448955
1733512573220064500,6.334064453125,3.266563171112537,-1.3736585894674063,1.6533981986507773
1733512573230139400,6.344139404296875,4.107275159829855,-1.7562533007085321,1.906215752508491
1733512573240214500,6.354214599609375,5.150757792079449,-1.34739192931056,2.5425050927028057
1733512573250288400,6.364288330078125,6.264912627923488,0.31673662993013857,3.524402790915966
1733512573260363500,6.374363525390625,7.1069795383811,2.873373416098952,4.4850145399942996
1733512573270438400,6.3844384765625,7.833809711852669,5.656136002424359,5.226061162605881
1733512573280513500,6.394513427734375,8.418682899194955,7.198591654151677,5.110008433061838
1733512573290587400,6.40458740234375,8.095258754324913,6.501486756858229,4.094207003942132
1733512573300662500,6.41466259765625,7.571987744414806,3.6032016023427245,2.4897055226683613
1733512573310737700,6.424737548828125,6.932606721815467,0.10274258159399031,1.3551613942682743
1733512573320812500,6.4348125,6.0490896105945104,-1.9688018264114855,1.3834326722458004
1733512573330886700,6.44488671875,4.8446407558411355,-2.5998645179986952,1.7516516521319745
1733512573340961500,6.45496142578125,3.3882559523701667,-2.8792081136018037,1.782264086408168
1733512573351036700,6.46503662109375,1.8833793590612709,-3.1448043388813733,1.5774527308285236
1733512573361111300,6.475111328125,0.6287333718568087,-3.2890438829898834,1.2303430283360182
1733512573371185700,6.485185546875,-0.20009638282172382,-3.152370974743366,0.8025326263181864
1733512573381260300,6.49526025390625,-0.5781025972288102,-2.5410417421519753,0.4890188308920711
1733512573391335400,6.50533544921875,-0.6390336704663931,-1.59247260530591,0.35686782051678745
1733512573401410600,6.51541064453125,-0.46227308198139067,-0.3707435299277305,0.26514882857194166
1733512573411484400,6.525484375,-0.08017587193362415,0.8870774340510368,0.045726028618752024
1733512573421559600,6.5355595703125,0.8914712120305747,2.431852468636632,-0.2216539154395461
1733512573431634400,6.545634521484375,1.2335212199807166,3.699492815840244,-0.8782087756797671
1733512573441709600,6.55570947265625,-0.10251578710079193,3.9150831934571264,-1.7078170404501258
1733512573451783400,6.565783447265625,-1.802213087850809,3.511119530972838,-2.3574641671285033
1733512573461858600,6.575858642578125,-3.05685659083724,2.7244652956575153,-2.7147484960243102
1733512573471933700,6.58593359375,-3.762423611527681,1.415567639914155,-2.767463602645695
1733512573482008600,6.596008544921875,-3.9596284376263617,-0.2196428678780794,-2.47204653185904
1733512573492082700,6.606082763671875,-3.7305052092194555,-1.4883616579681633,-2.255390570837259
1733512573502157600,6.616157470703125,-3.1719606413543224,-1.7611907571107148,-2.3252299768693745
1733512573512232400,6.626232421875,-2.2917314657628536,-1.0954285080641508,-2.7196085032761097
1733512573522307300,6.636307373046875,-1.2971218777537346,0.04335808021128178,-3.3858091437399387
1733512573532381400,6.64638134765625,-0.4325543816745281,1.0619915178865194,-4.118476937323808
1733512573542456600,6.65645654296875,0.19857492714179678,1.61912329634428,-4.679646885256469
1733512573552531500,6.666531494140625,0.5604875186264514,1.772447479662299,-5.125457931128144
1733512573562606600,6.676606689453125,0.85633625882864,1.568242419412732,-5.825137647345662
1733512573572680400,6.686680419921875,1.1813760222017764,1.07396369523108,-6.245751415857672
1733512573582755600,6.696755615234375,1.380100605213642,0.3628285190194845,-6.122843998113274
1733512573592830500,6.70683056640625,1.4300538459062575,-0.41076749728024003,-5.525409435361624
1733512573602905600,6.716905517578125,1.4305121110677719,-1.0805921734601258,-4.705272909422218
1733512573612979500,6.7269794921875,1.512659648400545,-1.6808377019792795,-3.930470147681236
1733512573623054600,6.7370546875,1.6063386335730552,-2.1145067668974398,-3.2482147367343304
1733512573633129500,6.74712939453125,1.6694985618412495,-2.1975258263677357,-2.5407734466046095
1733512573643204400,6.757204345703125,1.6166437544882297,-1.8988807334452866,-1.8174385679028928
1733512573653278500,6.767278564453125,1.2381775213539599,-1.3927011435896157,-1.1698243352916091
1733512573663353300,6.777353271484375,1.0478653773784636,-0.908496654176712,-0.6453047135598957
1733512573673428500,6.787428466796875,0.8657014685451984,-0.3463859182626009,-0.13524977097506635
1733512573683503600,6.797503662109375,0.7963923699975013,0.26131518695950506,0.4558755994966253
1733512573693577500,6.807577392578125,0.7421452315032482,0.7416863818198443,1.0185806845746934
1733512573703652600,6.817652587890625,0.7180734510421752,1.0223545040249824,1.6466674290910361
1733512573713727500,6.8277275390625,0.4288473438501358,1.1634656869798898,2.560685477037728
1733512573723802600,6.837802734375,-0.23871647472567856,1.1943705283313988,3.3453038226112723
1733512573733876500,6.84787646484375,-1.111948923297599,1.0420920546740293,3.881844356200099
1733512573743951600,6.85795166015625,-1.992085671365261,0.703482031109929,4.154880083830655
1733512573754026500,6.868026611328125,-2.624662274646759,0.2807715825796127,4.139037202532589
1733512573764101600,6.8781015625,-2.989000613707304,-0.02347965978682041,4.014059115993977
1733512573774175500,6.888175537109375,-3.2025241219222544,-0.008750877210497856,3.9077646871373055
1733512573784250600,6.898250732421875,-3.438848660010099,0.4836661447525024,3.532384437319636
1733512573794325500,6.908325439453125,-3.6739001094222066,1.1262322271287442,2.7338997712180015
1733512573804400400,6.918400390625,-4.013236985956132,1.5140928960740565,1.7868254029743373
1733512573814474500,6.928474609375,-4.48719422212094,1.6695669509023428,0.44116731171905993
1733512573824549400,6.93854931640625,-4.898681558108329,1.795761719754338,-0.7652274894703179
1733512573834624500,6.94862451171875,-5.267035562551022,2.070917800539732,-1.7099891237922011
1733512573844699600,6.95869970703125,-5.766715268993377,2.1648937228322027,-2.3392038494251666
1733512573854774500,6.9687744140625,-6.3579702663272615,2.0467355454415084,-2.56833657631278
1733512573864848600,6.9788486328125,-6.954875252246857,2.0194050554454326,-2.636439221680164
1733512573874923500,6.988923583984375,-7.578124055212736,2.4291128145396708,-2.9301959580391643
1733512573884998700,6.99899853515625,-7.9577651773452756,3.343502618408203,-3.4263995128035543
1733512573895073500,7.009073486328125,-7.997102331477403,4.58778430185616,-4.015386565205454
1733512573905147600,7.019147705078125,-7.628111198174953,5.645306565374136,-4.625054586586356
1733512573915222500,7.029222412109375,-6.834091987049579,6.023997839435935,-5.096862535762787
1733512573925297400,7.03929736328125,-5.685923822444677,5.722998876863718,-5.255185550281405
1733512573935372500,7.04937255859375,-4.664446101254224,5.101992884388566,-5.121121363228559
1733512573945446400,7.0594462890625,-3.956011416172981,4.221871845346689,-4.743938447903097
1733512573955521500,7.069521484375,-3.7136475979208945,3.268743437761068,-4.106247570347786
1733512573965596400,7.079596435546875,-4.212904110515117,2.1017396397829056,-2.781412048499286
1733512573975671600,7.089671630859375,-4.952092830300331,1.1928344048053026,-1.1839913192667066
1733512573985745400,7.099745361328125,-5.413971506136655,0.6826204448670149,0.30029907067455347
1733512573995820500,7.109820556640625,-4.937091660523414,0.3015291239261627,1.3635669651724398
1733512574005895700,7.119895751953125,-3.649803779041767,-0.17810908048450946,1.9716309123575686
1733512574015970600,7.129970458984375,-2.236796929526329,-0.5176490783751011,2.0917254646383223
1733512574026044700,7.140044677734375,-0.9894599501609802,-0.8712509193658828,2.008253254573047
1733512574036119600,7.15011962890625,0.3844493991971016,-1.0435498522669076,1.7011961610056459
1733512574046194400,7.1601943359375,1.851594666135311,-0.9851952784538268,0.9573720365047454
1733512574056269300,7.170269287109375,2.835631422203779,-0.5962140810459852,0.07398943838365375
1733512574066343400,7.180343505859375,3.803084707739949,0.25570377681851386,-1.1039775790922344
1733512574076418300,7.190418212890625,5.129331557691097,1.6748814239233731,-2.8942399707779285
1733512574086493400,7.200493408203125,6.394097226241231,3.4450329016029833,-4.874726097503304
1733512574096568600,7.210568603515625,7.429859493371844,5.1040743668377395,-7.18355482853949
1733512574106642400,7.220642333984375,8.515362235227228,6.691115010222792,-10.006011711871624
1733512574116717600,7.230717529296875,8.978816197556256,7.64652480674386,-12.06360358237028
1733512574126792400,7.24079248046875,8.11217949398756,7.335024323901534,-12.992836735105513
1733512574136867600,7.25086767578125,6.000196108087897,6.024437399896979,-13.48334061692357
1733512574146941400,7.26094140625,3.4964977159023283,4.106411820998788,-13.119260636538266
1733512574157016600,7.2710166015625,1.8272997444428503,1.8793653011143205,-11.941014144533872
1733512574167091700,7.281091796875,1.034164476545155,0.015438976672291755,-10.048138204461335
1733512574177166300,7.291166259765625,1.0904121412068606,-1.1301163750857115,-7.979220637828111
1733512574187240700,7.30124072265625,1.5639502751767635,-1.5717103877842424,-5.677076499122381
1733512574197315300,7.3113154296875,2.028938315205276,-1.5429823059499264,-3.4481492800578475
1733512574207390500,7.321390380859375,2.4365590388923883,-1.1887918514162301,-1.3381937467239797
1733512574217465300,7.33146533203125,3.055594608077407,-0.5114169059872627,0.5096617328830063
1733512574227539500,7.34153955078125,3.8075101229667663,0.14324585689604283,2.0306477494716644
1733512574237614300,7.3516142578125,4.816735096305608,0.42201136035025116,3.1947596254006028
1733512574247689500,7.361689453125,5.96281593324244,0.09271277048885822,3.9334228600069876
1733512574257764600,7.3717646484375,6.9404831542789935,-0.7390519416630268,4.260253306189179
1733512574267838500,7.38183837890625,7.641708346372842,-1.8249597571879623,4.362555742800235
1733512574277913900,7.391913818359375,8.047794407838582,-2.863364647781849,4.32628294467479
1733512574287988700,7.40198876953125,8.230946158665418,-3.601884090003371,4.228892245502769
1733512574298064000,7.41206396484375,8.222361870193481,-4.01298885641396,4.045181691749394
1733512574308138800,7.422138671875,7.975662068563699,-4.076982312896847,3.886389013892412
1733512574318212900,7.432212890625,7.581045495617389,-3.9606051737040278,3.850241303451359
1733512574328287700,7.442287841796875,6.947300433078408,-3.6061926008522507,3.9281884664848445
1733512574338362600,7.452362548828125,6.262986628296971,-2.836071567186713,4.1277661591947075
1733512574348437800,7.462437744140625,5.5396928122580045,-1.8572060762763023,4.451619343131781
1733512574358511600,7.47251171875,4.813992227338254,-0.8709177418887615,4.8605993724733585
1733512574368586800,7.482586669921875,3.75204688668102,0.1404191090375185,5.443940527942776
1733512574378662000,7.492661865234375,1.4911837296515702,1.6164292349547147,6.117651105645298
1733512574388736800,7.50273681640625,-5.785793478950858,3.79513813264966,7.069035884433984
1733512574398811000,7.512810791015625,-20.688927829051018,4.837940965941548,7.315288526818156
1733512574408885800,7.5228857421875,-17.67383883436322,2.2604829255402086,5.172963778668642
1733512574418961000,7.5329609375,-10.61748006067276,-0.39083354727625846,3.7959091170221564
1733512574429035800,7.543035888671875,-7.857357176178693,-1.6291636288434266,2.3730738241925833
1733512574439110000,7.55310986328125,-5.238284684363007,-2.243022672173381,1.1869492922894656
1733512574449184800,7.563184814453125,-2.2416171892896295,-2.076372558814287,0.8960136047005652
1733512574459259600,7.573259765625,0.18257833485305308,-1.3660785096019505,0.7880566494591533
1733512574469334800,7.583334716796875,1.5343793127775192,-0.6866969005256891,0.22338442902658134
1733512574479408600,7.59340869140625,2.251970240999758,0.11682663652598857,-0.8433914370596408
1733512574489483800,7.60348388671875,2.5877093853026625,1.061309380841255,-1.9587354826882482
1733512574499558700,7.61355859375,2.737804669702053,2.0593916133970023,-2.691707227654755
1733512574509633800,7.6236337890625,2.709542451813817,2.836690575867891,-2.7387413660302755
1733512574519707600,7.633707763671875,2.3606438200779256,3.3839456879556176,-2.374181054782122
1733512574529782800,7.64378271484375,2.0596536253340543,4.3108758244454854,-2.229078756364435
1733512574539858000,7.65385791015625,1.967605310103297,6.322577465906739,-2.473354691848159
1733512574549932800,7.663932861328125,1.891054569864273,9.038057491075993,-2.5803520082771776
1733512574560007000,7.6740068359375,2.060259043881297,10.680164188122749,-2.6323303250566124
1733512574570081800,7.684081787109375,2.6121453229010103,9.595907062414287,-2.9834283665329218
1733512574580157000,7.694156982421875,3.5094735173314806,5.759337433701753,-3.2742411583945152
1733512574590231600,7.7042314453125,4.081750257951021,1.0888099667072295,-2.744546837438643
1733512574600306000,7.714305908203125,4.087091034457087,-2.194876773163676,-2.249526939500868
1733512574610380500,7.724380615234375,4.0066175678163765,-4.281650314483047,-1.7931319557726382
1733512574620455700,7.73445556640625,3.828098152965307,-5.767762147697806,-1.14862423780933
1733512574630530800,7.74453076171875,3.2947751201182602,-6.969032956936955,-0.3465338023006916
1733512574640604700,7.754604736328125,2.684903685119748,-7.776526566663384,0.27093004232188683
1733512574650679800,7.7646796875,2.195156759148836,-7.996237823602557,0.7799408552818
1733512574660754700,7.774754638671875,1.777964197257161,-7.195978256782889,1.291333942002058
1733512574670829800,7.784829833984375,1.4083248291790484,-5.257971381607652,1.6324124015063046
1733512574680905000,7.794905029296875,1.0793686230145394,-2.7368407931059595,1.7992331952571867
1733512574690978800,7.804978759765625,0.9705441642235964,-0.06674363197386264,1.6910022453799842
1733512574701054000,7.815053955078125,0.9271259513229131,2.5939187613368033,1.3505147375062108
1733512574711128800,7.82512890625,0.9388572325836867,4.8663043061166995,0.8457817662622779
1733512574721203700,7.83520361328125,0.7808820085894316,6.175677178156375,0.44808447069637475
1733512574731277800,7.84527783203125,0.12066460725367069,6.319115342754126,0.45257060313448305
1733512574741352700,7.855352783203125,-0.7550842080533504,4.83424561855495,0.5951934692939743
1733512574751427600,7.865427490234375,-1.3330413323968648,2.587529937082529,0.556001349655725
1733512574761502700,7.875502685546875,-1.7222446481227873,0.947353915837407,0.1722242054306902
1733512574771576800,7.885576904296875,-1.9301614223718642,-0.167746091902256,-0.5418287031248211
1733512574781651700,7.895651611328125,-1.8907365899562834,-0.7531815893024205,-1.2650893475465477
1733512574791726800,7.905726806640625,-1.6211609396517275,-0.9786550630301236,-1.937726304668188
1733512574801801700,7.9158017578125,-1.164886659693718,-0.9097837713778019,-2.685260243472457
1733512574811875800,7.925875732421875,-0.7011036115407944,-0.685225658929348,-3.4045018615111706
1733512574821950700,7.93595068359375,-0.3560509877085686,-0.47488428788185116,-4.017527961148321
1733512574832025900,7.94602587890625,-0.21092592946980146,-0.3951011415928602,-4.465027106237411
1733512574842100700,7.956100830078125,-0.13953472741842268,-0.4632780212402344,-4.491571706552803
1733512574852174800,7.9661748046875,-0.08475918113589287,-0.6815466781556606,-4.2193291751265525
1733512574862249700,7.976249755859375,-0.013199673312902449,-0.9488625668346882,-3.8298125556677576
1733512574872324600,7.98632470703125,0.15083945383019745,-1.305548929837346,-3.351160439684987
1733512574882399700,7.996399658203125,0.4231880029141903,-1.5195412246078253,-2.9021090967178345
1733512574892473600,8.0064736328125,0.750718998581171,-1.4802712904930113,-2.472358666548133
1733512574902548700,8.016548828125,0.936215778164193,-1.2600070758461952,-1.9669497688040136
1733512574912623600,8.02662353515625,1.0159890606462956,-1.049405008035898,-1.4562313664749265
1733512574922698800,8.03669873046875,1.0129308421194554,-0.8975923983246088,-1.0394227623995393
1733512574932772900,8.04677294921875,0.8895196395713836,-0.6572293985009193,-0.7351351335454732
1733512574942847700,8.05684765625,0.6228559311907738,-0.37251989195048807,-0.4649096410300582
1733512574952923000,8.0669228515625,0.31247473470196124,-0.07490940277278423,-0.17202428067810832
1733512574962997800,8.076997802734375,0.05076338803172111,0.17333529021143912,0.20606995907230302
1733512574973072600,8.08707275390625,-0.16939575880542396,0.40561259873509403,0.6117746382713317
1733512574983146800,8.097146728515625,-0.4367385354913771,0.5603174227565526,1.0967159175261854
1733512574993221600,8.1072216796875,-0.9471827970542013,0.6479056898385286,1.6654983862891792
1733512575003296800,8.117296875,-1.7630055514477192,0.48402211858332156,1.9965081639826296
1733512575013371600,8.12737158203125,-2.473541154330969,0.17497312054634093,2.0278433595754204
1733512575023445800,8.13744580078125,-3.1596064789548515,0.135582190400362,1.8842999810375272
1733512575033520600,8.147520751953126,-3.7604353603199123,0.42482583324909207,1.6513908043511212
1733512575043595800,8.157595703125,-4.255148384265602,0.8326794889092445,1.509381795773655
1733512575053670700,8.167670654296876,-4.758688857789338,1.243067631483078,1.3358824010416865
1733512575063744800,8.177744873046874,-5.394702157521247,1.7475000854104756,0.9523449290577322
1733512575073820000,8.18781982421875,-6.034269642603397,1.9032804297089576,0.27935221730098125
1733512575083894800,8.197894775390624,-6.536183391708136,1.8453233307808636,-0.5884156822547316
1733512575093970000,8.207969970703125,-6.9622460732758045,2.4793676685273645,-1.4588696060240267
1733512575104043800,8.218043701171876,-7.492953370666504,4.156241727572679,-2.3320609919331967
1733512575114119000,8.228118896484375,-8.296419040051102,6.423285326802731,-3.355607189960778
1733512575124193800,8.23819384765625,-9.357581705898045,8.246839308845997,-4.670974918501079
1733512575134268700,8.2482685546875,-10.330105718827246,8.945005113369225,-6.195458567947149
1733512575144342800,8.2583427734375,-11.237067418521642,8.603928407430649,-7.908143360564112
1733512575154417700,8.268417724609375,-11.111263110291958,7.0307561304003,-9.066990155571698
1733512575164492800,8.278492919921876,-9.597039281314611,4.843429041963815,-8.984114888486266
1733512575174567700,8.288567626953125,-8.036111568829417,3.1111779636114836,-7.794584201401472
1733512575184641800,8.298641845703125,-7.175911035788059,1.9971493844956159,-5.59027967467904
1733512575194716700,8.308716552734374,-6.379539708578586,1.4285469484746456,-3.113541770133376
1733512575204791800,8.318791748046875,-5.101525851398706,1.2789479231595993,-1.3880559481322765
1733512575214867000,8.328866943359374,-3.4339351690053936,1.146809151211381,-0.07536484578954987
1733512575224941800,8.33894189453125,-1.5150444977104662,0.8224427570551633,1.4186514312736689
1733512575235016000,8.349015869140626,0.1868132690090686,0.7417541863590479,3.187996122615039
1733512575245090800,8.3590908203125,1.7248130373060702,1.3129331948697567,4.88769546919167
1733512575255165700,8.369165771484376,3.3742578221559523,1.8229864112883805,5.671755596360564
1733512575265240600,8.379240478515625,4.576691829955577,2.14028067510128,6.113289987826347
1733512575275314700,8.389314697265625,5.979081423866749,2.3095810107082126,5.596514769676327
1733512575285389600,8.3993896484375,7.299457335957884,2.623506090348959,4.451982623486221
1733512575295464700,8.409464599609375,8.106147812607883,2.9600656111240387,2.9809672371163964
1733512575305539800,8.419539794921874,8.869527555319666,3.6512048780113457,1.4843895394667983
1733512575315613700,8.42961376953125,8.51649445412755,4.763595626792311,0.5231291172213852
1733512575325688800,8.439688720703124,7.952663470292091,6.385316538414359,-0.09663029099246487
1733512575335763700,8.449763671875,7.988003663742542,7.7642428391516205,-1.088063605319336
1733512575345838800,8.4598388671875,7.955088067090511,8.230802950802445,-2.3319584083415568
1733512575355912700,8.46991259765625,7.4203861471056936,7.746177605628967,-3.789315710106492
1733512575365987800,8.47998779296875,6.283856397846341,6.545189704984426,-5.193887324231863
1733512575376063000,8.49006298828125,4.204974486559629,4.731604743769765,-6.362102251565456
1733512575386137600,8.5001376953125,1.4190560665518044,2.430228082305193,-7.162666354289651
1733512575396212000,8.5102119140625,-1.1260568705618381,0.1096364327609539,-7.329190210920572
1733512575406286600,8.52028662109375,-2.2462664764001965,-1.8626134882777927,-6.249726164707541
1733512575416361700,8.53036181640625,-2.3070202203094956,-3.071239920976758,-4.482984495471418
1733512575426436600,8.5404365234375,-1.100825398671627,-3.3982805027782916,-2.762881243291497
1733512575436511700,8.55051171875,0.6966612451791763,-3.480537345704436,-1.479631385154277
1733512575446585600,8.560585693359375,2.5677465014651415,-3.548531270000338,-0.567591030488722
1733512575456660700,8.57066064453125,4.292476244401931,-3.3816163682252167,0.14867522500101477
1733512575466735900,8.58073583984375,5.924047518908977,-3.5003286723673344,0.8714645621165633
1733512575476810800,8.590810791015626,7.462493934994936,-3.9263071827828884,1.5690060972616076
1733512575486884900,8.600884765625,8.798402347260714,-4.445482447811961,2.297423393794149
1733512575496959700,8.610959716796875,9.732873400649428,-4.954601598250866,3.147971863001585
1733512575507035000,8.621034912109375,10.0582399117589,-5.327216182747483,3.9809982656523584
1733512575517109800,8.63110986328125,9.951147318261862,-5.572234899422526,4.7295104018390175
1733512575527184000,8.641183837890624,9.558112461549044,-5.783741807118058,5.314251487234235
1733512575537258800,8.6512587890625,8.861002303558587,-5.867302718380094,5.742797802311181
1733512575547333600,8.661333740234374,7.900492553550005,-5.753467080363631,6.035330549833178
1733512575557408800,8.67140869140625,6.9489324181944125,-5.549318718737363,6.3174892028570175
1733512575567482600,8.681482666015626,5.945260987329482,-5.174155034279823,6.55279199668169
1733512575577557800,8.691557861328125,4.9267690039515495,-4.557411375424266,6.6730971229732035
1733512575587632600,8.701632568359376,4.011429059751332,-3.6173867795616386,6.920940833941102
1733512575597707800,8.711707763671875,2.8327362852841613,-2.155781611093879,7.295409521871805
1733512575607781600,8.72178173828125,1.3128601296335458,0.0579530072748661,7.432136206132173
1733512575617856800,8.731856689453124,-1.6695771800354122,2.926944262766838,6.742634769579768
1733512575627932000,8.741931884765625,-23.55731936508417,8.232798508533834,1.3079261803627014
1733512575638006800,8.7520068359375,-39.79384809880256,14.091355610400438,-4.518690307363867
1733512575648081000,8.762080810546875,-26.231406472635268,11.934451132756472,-4.491383198243379
1733512575658155800,8.77215576171875,-10.284191524392366,6.98666739782691,-2.7674580496877432
1733512575668230700,8.782230712890625,-0.7951122670590877,3.542724629548192,-1.22386827936396
1733512575678305800,8.792305908203126,2.801190807941556,1.7831915765166282,-0.7998704944368451
1733512575688380700,8.802380615234375,2.744721317222714,0.514240146714449,-0.4230236061327159
1733512575698454800,8.812454833984376,2.1982278371572495,0.21824235343039033,-0.089288568193838
1733512575708529700,8.82252978515625,2.5357933201044798,0.8282569962918758,0.31892792942933734
1733512575718604800,8.832604736328125,3.4356425574451683,1.7738374727159738,1.0132491142883897
1733512575728679700,8.8426796875,4.236536330515146,2.5268250007510185,1.6249392891466616
1733512575738753800,8.85275390625,4.6994168768703934,3.5533868933379646,2.2409968654341994
1733512575748828700,8.86282861328125,5.103861600869894,5.183958050891757,2.7544764030396935
1733512575758903800,8.87290380859375,5.522015701270103,6.43746056714952,2.653894214349985
1733512575768979000,8.88297900390625,6.008913667550683,5.937639406409859,1.5973285209044814
1733512575779052800,8.893052734375,6.519545560640096,3.7056004850655793,0.00987695863097906
1733512575789128000,8.9031279296875,6.799509918490052,0.9611077159017324,-0.8394318857789039
1733512575799202600,8.91320263671875,6.443380020326376,-1.5348077673226594,-0.6756769093394279
1733512575809277700,8.923277587890626,6.016311961108446,-3.243267635720968,-0.2719560426350683
1733512575819351600,8.9333515625,5.570638570141792,-4.46803213327229,0.2665127373362891
1733512575829426700,8.9434267578125,5.172783161404729,-5.305218285951018,0.6242326263714582
1733512575839501800,8.953501708984374,4.9087984629750245,-5.867819435730576,0.6941264660045504
1733512575849576700,8.96357666015625,4.3709991614967585,-5.927602581042051,0.5151394336417318
1733512575859651800,8.97365185546875,3.388648751080036,-4.9330508607000105,0.18270734979389233
1733512575869725700,8.9837255859375,2.335729597443342,-2.9390812752842903,-0.06337547071501612
1733512575879800800,8.99380078125,1.5273673881888388,-0.8467688045382499,-0.36328503061532974
1733512575889875700,9.003875732421875,1.0726854189235717,0.9685375736415386,-0.6561039016023278
1733512575899950800,9.013950927734374,0.887084448313713,2.6169360643088817,-0.8453063307702541
1733512575910025000,9.02402490234375,0.9064492201276123,4.005132882216572,-0.9054643007434904
1733512575920099800,9.034099853515626,1.1148049703158438,5.052491479116678,-0.9031917527016252
1733512575930174700,9.0441748046875,1.7420067486912012,5.460965312501788,-1.0034296579983084
1733512575940249600,9.05424951171875,2.19470141659677,4.59613945774734,-1.5041661069519816
1733512575950323700,9.06432373046875,1.394291627651453,2.6650211730420588,-2.433583968604356
1733512575960398600,9.074398681640625,0.37477497740089893,1.426985105985403,-3.4297412244468926
1733512575970473700,9.0844736328125,-0.4094488158971071,0.7565472663432359,-3.877705356699228
1733512575980548900,9.094548828125,-1.0893769529402255,0.42984220010638235,-4.046948993682861
1733512575990622700,9.104622802734376,-1.6263292822003363,0.2535761171400547,-4.01883553661555
1733512576000697900,9.11469775390625,-1.722027205979824,0.20163784011006355,-4.090625346063077
1733512576010772700,9.124772705078126,-1.583024393481016,0.2640080793052912,-4.616058502443135
1733512576020847900,9.134847900390625,-1.6436545110106466,0.23081951093077657,-5.336905217590928
1733512576030922800,9.1449228515625,-1.8137515499532222,-0.08124620457887649,-5.90136222437024
1733512576040996900,9.154996826171875,-1.9472797304332254,-0.7169359714448451,-5.8706876846432685
1733512576051071700,9.16507177734375,-1.975548378062248,-1.4131453812032937,-5.392604892981052
1733512576061146600,9.175146728515625,-1.8148738319814204,-1.7882605503439901,-4.510370807307958
1733512576071221800,9.1852216796875,-1.500811389696598,-1.9193331543654202,-3.4564056517496704
1733512576081295600,9.195295654296874,-1.1841045703828335,-1.9741642302274702,-2.6340847675085066
1733512576091370800,9.205370849609375,-0.8224562010586262,-1.8806956729352473,-2.0171488009512424
1733512576101445600,9.215445556640624,-0.41789800674729044,-1.7079677009671925,-1.5399838547863065
1733512576111520800,9.225520751953125,0.08870353484749793,-1.5843565188676119,-1.2057151483621447
1733512576121594600,9.2355947265625,0.5777566333353519,-1.5658482177525759,-0.9533170620255171
1733512576131669800,9.245669677734375,0.8690168767035007,-1.5391905124515295,-0.6913923648655415
1733512576141745000,9.255744873046876,0.9816844938538968,-1.2926736661732197,-0.45364871722739186
1733512576151819800,9.26581982421875,0.7439058114349841,-0.8443617433965206,-0.20680355231016873
1733512576161894000,9.275893798828125,0.050372927409410476,-0.269392694953084,0.017739444767544046
1733512576171968800,9.28596875,-0.21673604052066803,0.4976216048687696,0.7744058713778853
1733512576182044000,9.2960439453125,-0.6852935365337878,1.246594052043557,1.2700151135109363
1733512576192118500,9.306118408203124,-0.8470588004607706,1.878094550526142,1.5892472135186195
1733512576202193000,9.31619287109375,-0.9310090763665735,2.274016360852122,1.9795104135610162
1733512576212267800,9.326267822265624,-1.0229552463971079,2.2904139534234997,2.357586332203448
1733512576222342700,9.3363427734375,-1.7722503496550022,2.046865893822908,2.764212784156203
1733512576232417800,9.346417724609376,-3.189544521100819,2.0657044498056174,3.179283531588316
1733512576242492700,9.35649267578125,-4.418094090148807,2.1255162366896867,3.1963454332873225
1733512576252566800,9.36656689453125,-5.261750315624475,1.7383277679175138,2.598346806912124
1733512576262641700,9.3766416015625,-5.842351232475042,1.1110615460038185,1.5518036180481314
1733512576272716800,9.386716796875,-6.30233956452012,0.754678549861908,0.5160733534909785
1733512576282792000,9.3967919921875,-6.894077961456775,1.0249977120101452,-0.24752028769981116
1733512576292865800,9.40686572265625,-7.2913921029239885,2.235500459975004,-1.0142810876846313
1733512576302941000,9.41694091796875,-7.471776142603159,3.9051398915916677,-1.9445403685972094
1733512576313015800,9.427015869140625,-7.426368144124746,5.616082224455475,-2.9360984600812197
1733512576323090700,9.437090576171874,-7.270306644797325,6.851356425583362,-3.8506022457182407
1733512576333164800,9.447164794921875,-7.158865208441019,7.262235566544533,-4.699480882017314
1733512576343239700,9.45723974609375,-7.3328013871550555,6.937759282273054,-5.5433945893853895
1733512576353314800,9.467314697265625,-7.851191639286279,6.180501237311959,-6.44161827135086
1733512576363389700,9.4773896484375,-8.508074416306615,4.992071789467334,-7.272083006820083
1733512576373464800,9.48746484375,-8.550800043833256,3.230141612166166,-7.426749252396822
1733512576383538700,9.49753857421875,-7.784287263792753,1.2904565746456385,-6.735761376678943
1733512576393613800,9.50761376953125,-7.08386988095045,-0.1455775147140026,-5.531790660831332
1733512576403688700,9.517688720703125,-6.774669491744041,-0.8494909229785204,-3.658765084132552
1733512576413763800,9.527763916015624,-5.881272207021713,-0.7835831573069095,-1.8196034908518195
1733512576423837700,9.537837646484375,-4.296528150141239,-0.5096756152778864,-0.36088801594357933
1733512576433912800,9.547912841796874,-2.6615432677984234,-0.30625264531672,1.0871545276504009
1733512576443988000,9.557988037109375,-1.1570306854963301,-0.17037702492773532,2.6888527150064707
1733512576454062600,9.5680625,0.09618768005780876,0.15489011746048925,4.356842918111384
1733512576464137000,9.578136962890625,1.0532254431068897,0.9655483286976814,5.655561417406797
1733512576474211600,9.588211669921876,1.718586125615239,1.6910463767826556,5.9889902389407155
1733512576484286700,9.59828662109375,2.7771780641913413,1.993544053480029,5.036573779016733
1733512576494361900,9.60836181640625,4.124938242292404,2.2708464986443517,3.591693535378575
1733512576504435700,9.618435791015624,5.393377630919217,2.955556609266996,1.9283242700725793
1733512576514510800,9.6285107421875,6.709913818717003,4.245787558463215,0.16309921594448387
1733512576524585700,9.638585693359374,8.003799783289432,5.888908400988578,-1.1414119683429598
1733512576534660900,9.648660888671875,8.663312324291468,7.2777575453251595,-1.7361758505806326
1733512576544735700,9.65873583984375,8.8638126848042,8.329185583621262,-2.055968945471942
1733512576554809900,9.668809814453125,8.857812567606567,8.848690518996118,-2.5456296544641255
1733512576564884700,9.678884765625,7.995506002196669,8.198186629357933,-3.408710711377859
1733512576574959900,9.6889599609375,6.767409729874133,6.385765451225638,-3.9706601192504167
1733512576585034800,9.69903466796875,5.351271012073755,4.1769636130839585,-4.134050646291673
1733512576595108900,9.70910888671875,3.527410740560293,2.2268512895733115,-4.422948252181708
1733512576605183700,9.719183837890625,1.5209563521027565,0.4743395134806633,-4.80501104850322
1733512576615258600,9.729258544921874,-0.9379010278373956,-0.9843863001585006,-4.672649281454086
1733512576625333800,9.739333740234375,-2.4581214668810367,-1.6635247481286524,-3.855310569539666
1733512576635407600,9.74940771484375,-1.8102922032795845,-1.6980734989404678,-2.640113526278734
1733512576645482800,9.759482666015625,-0.04574585213065147,-1.4534955117702484,-1.3911030607432127
1733512576655558000,9.769557861328124,1.9484753699585795,-1.2151064423680304,-0.32133177570067345
1733512576665632800,9.7796328125,3.630689328727126,-0.9769085116237402,0.6088120256060734
1733512576675707000,9.789706787109376,5.269820224833488,-0.872998055294156,1.4371433657757937
1733512576685781800,9.79978173828125,6.763849991565943,-1.2736299430072306,2.1027093615978956
1733512576695857000,9.80985693359375,7.987041540712117,-2.0353455518990753,2.621444773904979
1733512576705931800,9.819931884765625,9.003812691646814,-2.943434209796786,3.1537004697814583
1733512576716006700,9.830006591796876,9.45079015094936,-3.96030239136517,3.622109716430306
1733512576726080800,9.840080810546874,9.579870704370737,-4.912244804036617,4.0459675814300775
1733512576736155600,9.85015576171875,9.592988544619082,-5.814428037282824,4.388314745695888
1733512576746230800,9.860230712890624,9.363836090117692,-6.688637806454301,4.648045878334343
1733512576756305700,9.8703056640625,8.811522525596619,-7.3781275525689125,4.796113748559355
1733512576766379800,9.8803798828125,8.101369930681585,-7.579012528485059,4.820647301313281
1733512576776454700,9.89045458984375,7.375206112164259,-7.441876094380021,4.968560565498471
1733512576786529800,9.90052978515625,6.094312900155782,-7.150027237468957,5.0906321169406175
1733512576796605000,9.91060498046875,4.990160402888059,-6.430571392157673,5.282662170749902
1733512576806678800,9.9206787109375,4.158867399901151,-5.3340498281598085,5.739246247309446
1733512576816754000,9.93075390625,3.4117449645072218,-3.853745804440975,6.349383639767765
1733512576826828800,9.940828857421875,2.4118454533964395,-1.181255610692501,7.034920848864316
1733512576836904000,9.950904052734375,-1.2756740160554647,3.0094249775767326,6.6640405408143994
1733512576846978600,9.960978515625,-37.78432263233661,12.390866867011784,-0.9743591194018721
1733512576857053000,9.971052978515624,-46.72886831150055,18.968674062484503,-4.3583489387601615
1733512576867127600,9.98112744140625,-19.744417612206934,12.984547045665979,-1.6230046678222716
1733512576877202700,9.99120263671875,-5.250870025169849,6.943145066964626,-0.5272117834251374
1733512576887277800,10.00127783203125,1.642162226626277,3.3954625227481126,-0.1276390493761748
1733512576897351700,10.0113515625,3.575602816799283,1.1505366473019123,-0.15682729606814683
1733512576907426800,10.0214267578125,3.2997453097462652,0.2551753690302372,0.09558847205564379
1733512576917501700,10.031501708984376,3.1506001656785605,0.6498907261759043,0.7010912635158747
1733512576927576800,10.041576904296875,3.6537881725028156,1.914100514408946,1.6125062162920831
1733512576937650700,10.051650634765625,4.502059490558505,3.1851977240681646,2.5856325790286063
1733512576947725800,10.061725830078124,5.173326182240247,3.7434453548133373,3.2734383175790307
1733512576957801000,10.071801025390625,5.430144642302394,3.7946366128683087,3.4660289278805254
1733512576967875800,10.081875732421874,5.42718637701869,4.170370206168294,3.459279453620314
1733512576977950700,10.09195068359375,5.281310756140947,4.501836787718534,3.1223531453594564
1733512576988024800,10.10202490234375,5.290527497297525,3.6911528575181958,2.028869049361348
1733512576998099700,10.112099609375,5.489344434767961,1.6596347549527883,0.7594307858902961
1733512577008174600,10.122174560546876,5.94798953551054,-0.5374497573882341,0.14750987101607024
1733512577018249700,10.132249755859375,5.776605379366875,-2.198491456529498,-0.10919248838573693
1733512577028323600,10.142323486328126,5.385918547084927,-3.401843748217821,-0.04822586891073733
1733512577038398700,10.152398681640625,5.157700158563256,-4.148387506940961,0.36966961708590385
1733512577048473900,10.162473876953126,4.568153134191036,-4.459897926655412,0.543919172598049
1733512577058548700,10.172548828125,4.205730857884884,-4.530063349771499,0.42861799207367
1733512577068622800,10.182622802734375,4.153907147145271,-4.324535516485572,-0.08505789008783177
1733512577078697700,10.19269775390625,4.224995530325174,-3.5054099211543797,-0.7683890953063964
1733512577088772900,10.20277294921875,4.238232028517126,-1.8926327789664268,-1.422983907520026
1733512577098847700,10.21284765625,3.7636031767010687,0.07246551675200462,-1.8498147969812153
1733512577108922600,10.222922607421875,2.9142449401915074,1.6842080551952123,-1.9528566537827252
1733512577118996700,10.232996826171876,2.1945630310393867,3.0870073989510534,-1.991400903971493
1733512577129071600,10.243071533203125,1.556466641423106,4.269513301965594,-1.8971103627718984
1733512577139146800,10.253146728515626,1.1110849999446422,5.059485283526778,-1.892762835086882
1733512577149221600,10.2632216796875,1.437076876410842,5.010809223163128,-2.0788784041553736
1733512577159295700,10.273295654296875,1.650755867448449,4.185048719862103,-2.9831764375984666
1733512577169370600,10.28337060546875,0.5567343035727739,3.109194680839777,-4.622132561659813
1733512577179445800,10.29344580078125,-0.6361562153339385,2.397768997249007,-6.0463300827533
1733512577189521000,10.30352099609375,-1.5223521903753279,1.5755302383333443,-6.474700456741452
1733512577199594800,10.3135947265625,-2.3338334084331986,0.5838888524800538,-5.990482523325086
1733512577209670000,10.323669921875,-2.8466286170363424,-0.12620704381167888,-5.211461559367179
1733512577219744800,10.333744873046875,-3.022625819933414,-0.5801251160323619,-4.704090129378438
1733512577229819600,10.343819580078126,-3.157354608374834,-0.798681357717514,-4.762961712802946
1733512577239893800,10.353893798828125,-3.4437995604157448,-0.8529144676864147,-5.082822904494405
1733512577249968600,10.36396875,-3.6904935168266295,-0.9661948099076747,-5.204042807543278
1733512577260043800,10.374043701171875,-3.666282620155811,-1.1711071416437626,-4.81775800961256
1733512577270118700,10.38411865234375,-3.399398108631372,-1.2884832287460566,-3.763660167585313
1733512577280194000,10.394194091796875,-3.095874596017599,-1.3501444428890943,-2.496078564831614
1733512577290268000,10.404267822265625,-2.846256861114502,-1.186811491253972,-1.4030059722438455
1733512577300343000,10.414343017578124,-2.6281673601582645,-0.942100233092904,-0.4983195240050554
1733512577310418000,10.42441796875,-2.4097768304288385,-0.9630927522391081,0.15253657660428432
1733512577320493000,10.4344931640625,-2.1764497205913065,-1.2215268308043479,0.42556660514641553
1733512577330567000,10.44456689453125,-1.8375659946523606,-1.4975538492053746,0.4047190108962357
1733512577340642000,10.45464208984375,-1.3567195834957062,-1.6324083098530768,0.26610355374719946
1733512577350717000,10.464717041015625,-0.6607669249773025,-1.5144634829521177,0.20765152917532248
1733512577360791800,10.474791748046876,0.11495908908843994,-1.2263584887444972,0.320117577605322
1733512577370867000,10.484866943359375,0.4945347447693348,-0.805911893492937,0.41355643387902524
1733512577380940800,10.49494091796875,0.7992471018414944,-0.17160452089607714,0.5526856857690959
1733512577391016000,10.505015869140625,1.630149717271328,0.6812900730460881,1.2407058707877994
1733512577401090800,10.5150908203125,1.5774609141349791,1.3285136258393526,1.5663454997502266
1733512577411166000,10.525166015625,1.1456009444653987,1.8080992232799529,1.736424856905639
1733512577421239800,10.53523974609375,0.45666021053567524,1.945786861526966,1.597036990612
1733512577431315000,10.54531494140625,-0.5088353650614619,1.4200626132458447,0.9992442620724439
1733512577441390000,10.55539013671875,-1.4370178396999835,0.6214104816228151,0.3821551507800817
1733512577451465000,10.56546484375,-2.3225965596258638,0.2418634675145149,0.10448517834446393
1733512577461539000,10.5755390625,-3.225276051956415,0.5019815536439418,0.08956965015754104
1733512577471614000,10.585614013671876,-4.246396045750379,1.1860954519391058,0.09299896701909602
1733512577481689000,10.595689208984375,-5.283308067438006,1.8501281007140873,-0.1277697448174469
1733512577491763700,10.605763671875,-6.122863871857524,2.4187445652604103,-0.7214107057061045
1733512577501838800,10.6158388671875,-6.628125177824497,3.2413439741820094,-1.7269342672437429
1733512577511912700,10.62591259765625,-7.297855161458253,4.4532472365945575,-2.8920468446478247
1733512577521987800,10.63598779296875,-8.69624311851263,5.517407915213703,-4.012456356972455
1733512577532063000,10.64606298828125,-10.502802711135148,6.094905605351925,-5.097390943551063
1733512577542137900,10.656137939453124,-12.355070746487378,6.463959867018461,-6.480854303196073
1733512577552212000,10.6662119140625,-12.689053694772719,6.612238457384705,-7.50469173925519
1733512577562286800,10.676286865234376,-11.34449669662714,6.33609628817141,-7.763588174635172
1733512577572362000,10.686362060546875,-9.745111535453796,5.616735719928145,-7.432196411886811
1733512577582437000,10.69643701171875,-8.661533039659261,4.834900867593288,-6.0446910833746195
1733512577592511000,10.706510986328125,-8.298739007431267,4.296206663101911,-3.598008417613804
1733512577602586000,10.716586181640626,-6.50228696732521,3.8709757561832663,-1.544619405632466
1733512577612661000,10.726660888671875,-4.303232616215944,3.271886411961913,0.14718114138520322
1733512577622736000,10.73673583984375,-2.2986042741417885,2.575518596771359,1.694344541545212
1733512577632810800,10.746810791015625,-0.5022189425963908,2.139980815371871,3.342275706961751
1733512577642884900,10.756884765625,1.3952806386888026,1.9823942984342573,5.157313789594173
1733512577652959700,10.766959716796874,3.0569243953764436,1.9457091201156376,6.34044162389934
1733512577663035000,10.777034912109375,4.279220456987619,2.139483971765637,6.574079114860296
1733512577673110000,10.787110107421874,5.263585714358091,2.4183044202774764,5.874001339235901
1733512577683183900,10.797183837890625,6.253126328539848,2.7607331253468987,4.81413865007162
1733512577693259000,10.807259033203126,7.300164022922515,3.0273066712260244,4.123391012850403
1733512577703334000,10.817333984375,8.027510913744567,2.983783755841851,3.3451240821301935
1733512577713409000,10.827408935546876,8.218251512265205,3.083399729847908,2.35739577806741
1733512577723483000,10.83748291015625,7.677510312116145,3.3501077157616614,1.248522682018578
1733512577733558000,10.84755810546875,7.047795528006553,3.7083372165530917,0.00011518734488636254
1733512577743633200,10.857633056640625,6.814577723762393,4.093081214782595,-1.4000456611335277
1733512577753707800,10.867707763671875,7.063839484834671,4.366665516206622,-2.619835292881727
1733512577763783000,10.877782958984374,7.119905655449628,4.317855015808344,-3.645028819724917
1733512577773856800,10.887856689453125,6.531006281331181,3.8966543873190878,-4.203715426409245
1733512577783932000,10.897931884765624,5.446612377500534,3.1103333294808864,-4.562989175556599
1733512577794006800,10.9080068359375,3.859764334078133,1.9881085844278334,-4.783030102841556
1733512577804082000,10.91808203125,2.024042067596316,0.6710954267680644,-4.657067973701656
1733512577814155800,10.92815576171875,0.3554372397243976,-0.5531944390088319,-3.8974379389122125
1733512577824231000,10.93823095703125,-0.35841157936006784,-1.3356255036711693,-2.6600126972302793
1733512577834306000,10.94830615234375,0.5140601139724255,-1.5798510241419077,-1.5749047999113797
1733512577844381000,10.958380859375,1.8523048602312802,-1.6071861903131006,-0.7249347151137888
1733512577854455000,10.968455078125,3.566174770979583,-1.7072499080866574,-0.09651616309350355
1733512577864530000,10.978530029296875,5.300273815286159,-1.713155332738161,0.4364875564049929
1733512577874605000,10.98860498046875,6.799962922954559,-1.8574889848709106,0.8752695804227143
1733512577884680000,10.998679931640625,8.026950941774249,-2.331557864716649,1.2102288994595407
1733512577894754800,11.0087548828125,8.870496108090878,-3.016445669993758,1.5982906439349054
1733512577904829000,11.018828857421875,9.380312593144177,-3.764294081574678,2.1022107644259926
1733512577914903800,11.02890380859375,9.589490765631199,-4.533727132976055,2.5759318537473677
1733512577924979000,11.03897900390625,9.51294762417674,-5.253533106899261,2.9934529169410466
1733512577935053800,11.0490537109375,9.300603096613287,-5.934884554743767,3.403433063235879
1733512577945128000,11.0591279296875,8.809980556851626,-6.334771761569381,3.6826103623613715
1733512577955202800,11.069202880859375,8.174912136754394,-6.33369039607346,3.9257247067198153
1733512577965278000,11.07927783203125,7.310967156487703,-6.038174248826503,4.356576083868742
1733512577975353000,11.08935302734375,5.92827478121519,-5.648026345726847,4.647620054137707
1733512577985428000,11.099427978515624,4.974790984320641,-4.976534028595686,4.84864297721982
1733512577995502000,11.109502197265625,4.17498442196548,-4.095138731834292,5.196788306370377
1733512578005577000,11.119576904296874,3.147100925385952,-2.8294237997353076,5.6597945249319075
1733512578015651800,11.12965185546875,0.55541737575531,-0.3992652755349874,5.764518635731935
1733512578025727000,11.13972705078125,-18.620622841358184,5.201199108549952,1.0873638595521449
1733512578035800800,11.14980078125,-30.63188599563837,11.138660820305347,-3.34033743237555
1733512578045876000,11.1598759765625,-22.81376309773922,10.653816279423236,-2.7588199852019546
1733512578055950800,11.169950927734375,-12.897367943906783,6.978457787886262,-2.184535411891341
1733512578066026000,11.18002587890625,-4.812378362400829,4.2551989454090595,-1.7940858954966068
1733512578076099800,11.190099853515624,0.31947803759276866,2.8610458494454623,-1.291453184467554
1733512578086175000,11.200175048828125,2.4910312183141707,2.793587347200513,-0.01935520026795566
1733512578096249900,11.210249755859374,2.362610005584359,3.5010330212444063,1.3904443045735357
1733512578106325000,11.220324951171875,1.8514625641882418,4.1412095781356095,3.2081063059687613
1733512578116400000,11.230400146484374,1.5623349489346146,4.755183187755942,4.631115201799571
1733512578126474000,11.240473876953125,1.52991093519181,5.103617855241894,5.3133261890828605
1733512578136549000,11.250549072265626,1.7069219913065432,5.29641129463911,5.781195629766583
1733512578146623700,11.260623779296875,2.2782921384751798,5.617049023661017,6.008816636916995
1733512578156699000,11.270698974609376,2.858126747128367,5.412445319482684,5.516584908393025
1733512578166772700,11.280772705078125,3.2029210122853518,3.334615547597408,4.020378674404323
1733512578176848000,11.290847900390625,3.4487437388196587,0.1821113018631935,2.315438504564762
1733512578186923000,11.300923095703125,3.4933842600569127,-2.270023491823673,1.176153757508844
1733512578196998000,11.310997802734375,3.2123271385341883,-3.5186575252622365,0.8032961580365896
1733512578207073000,11.321072998046875,3.023991263067722,-4.389706200054287,0.7219647593922912
1733512578217147000,11.33114697265625,3.285156227901578,-5.159178998944163,0.7525082200855017
1733512578227222000,11.341221923828124,3.977250603556633,-5.443647682476043,0.7583954514931887
1733512578237297000,11.351296875,4.630237542182207,-5.389011836925149,0.7751981177341193
1733512578247372000,11.3613720703125,4.6617806814372535,-5.102677944043278,0.872053979377076
1733512578257446000,11.37144580078125,3.9306192007631062,-4.429254951110482,0.9443909743785858
1733512578267521000,11.38152099609375,3.0301959629267454,-3.075558368697762,0.6008865298364311
1733512578277596000,11.391595947265625,2.4471247104398905,-1.2694558721929787,-0.20168708607926963
1733512578287670800,11.4016708984375,2.075423295265436,0.4202724077284336,-0.8505722154092044
1733512578297745000,11.411744873046874,1.9678923103511332,1.9553981549590824,-1.2192734989196061
1733512578307819800,11.42181982421875,2.0556175016857683,3.35059520701766,-1.556839858649671
1733512578317895000,11.43189501953125,2.3726468309521676,4.599947617858648,-1.8964029451549052
1733512578327970000,11.441969970703125,2.88796191342175,5.400699936631321,-2.266773988508433
1733512578338045000,11.452044921875,3.0091245333254335,5.03406033489108,-3.0094375447973607
1733512578348119000,11.462119140625,2.68057296243906,3.7458547540426252,-4.017575307421386
1733512578358194000,11.47219384765625,1.9699977581977843,2.1702748313486575,-4.589048038181662
1733512578368269000,11.48226904296875,1.1740127999573946,0.8067237943977117,-4.6854020877823235
1733512578378344000,11.492343994140626,0.36624972563982006,-0.15656477267444133,-4.667472171077132
1733512578388418000,11.50241796875,-0.30761286428663875,-0.5986439385414123,-4.599792719557881
1733512578398493000,11.512492919921876,-0.8465700670957564,-0.5426081630647183,-4.838875908704102
1733512578408567800,11.52256787109375,-1.437395440840721,-0.1934966192305088,-5.1264802599132056
1733512578418643000,11.532642822265625,-2.0651824717581273,0.1496031169682741,-4.974665896636247
1733512578428717800,11.5427177734375,-2.5290835933327673,0.37560090683102604,-4.480722103497386
1733512578438792000,11.5527919921875,-2.6537293791770935,0.4061562040925026,-3.854303730584681
1733512578448866800,11.56286669921875,-2.5431974588811395,0.1652624583929777,-3.241306272520125
1733512578458942000,11.57294189453125,-2.331471939998865,-0.23241174855828284,-2.7954157316714525
1733512578469017000,11.58301708984375,-2.0963924335360526,-0.6331424204707146,-2.3908979424357413
1733512578479091000,11.593091064453125,-1.8935681601203977,-0.8436807753950357,-1.9076905012361705
1733512578489166000,11.603166015625,-1.6873042676448822,-0.7565326532959937,-1.3853613022208213
1733512578499241000,11.613240966796875,-1.5085622960843146,-0.7023235087245703,-0.6743201609682291
1733512578509315800,11.62331591796875,-1.4549813664138316,-0.7341694303184747,0.00546426588841714
1733512578519390700,11.633390625,-1.403509391721338,-0.9400666814386844,0.4717462090518325
1733512578529465000,11.643465087890625,-1.3355062612056732,-1.205509761983156,0.6919800285603851
1733512578539539700,11.653539794921874,-1.2338614117205142,-1.3891864134669303,0.8139087374657392
1733512578549614800,11.66361474609375,-1.0107375698588787,-1.3727484888851642,0.9619382484417408
1733512578559690000,11.67368994140625,-0.699520726263523,-1.2664052524507046,1.1908943035881965
1733512578569763800,11.683763916015625,-0.631935821159929,-1.2877449775993823,1.3083189790725707
1733512578579839000,11.6938388671875,-0.8239021620832383,-1.2607248687267303,1.2724929018013178
1733512578589913900,11.703913818359375,-0.3925158012747764,-0.8147714917749166,2.062391964256763
1733512578599989000,11.713989013671876,-0.21362404597997664,-0.2710352014631033,2.594249016204476
1733512578610064100,11.724064208984375,-0.24167539759650825,0.5131330622553825,2.8301526985317467
1733512578620138000,11.734137939453126,-0.5540706373214721,1.2463678420722484,2.661634453213215
1733512578630213000,11.744213134765625,-1.2653377693496644,1.695870435938239,2.214134577471763
1733512578640288000,11.7542880859375,-2.1145278096854687,1.8525369154214857,1.6150898030444978
1733512578650363000,11.76436279296875,-2.8526138289257883,1.6361276226371526,1.1502322575278578
1733512578660437000,11.77443701171875,-3.422088079345226,1.3437141175806522,0.706000882063061
1733512578670511900,11.784511962890624,-4.001179760676622,1.269218556305766,0.36190417071618136
1733512578680586800,11.794586669921875,-4.707370173962414,1.4497452193260192,0.04370458296085707
1733512578690662000,11.804661865234374,-5.382603723448515,1.6217723495483398,-0.4159194001507014
1733512578700736000,11.814736083984375,-5.993106442087888,1.599192268949747,-1.077384755720943
1733512578710811000,11.824810791015626,-6.378360143405199,1.7128800229281187,-1.8943188323572278
1733512578720886000,11.834885986328125,-6.5621385016977785,2.4123656778782605,-2.8106226531535383
1733512578730961000,11.8449609375,-6.6904819730162615,3.8035511562079187,-3.7742578417062758
1733512578741036000,11.8550361328125,-6.809148099929094,5.350109567078948,-4.618040031649172
1733512578751110000,11.86510986328125,-7.0496005316019055,6.25504414485991,-5.322475125700235
1733512578761185000,11.87518505859375,-7.460125452297926,6.272173558837175,-5.9670911263436075
1733512578771260000,11.885260009765625,-7.928210581558942,5.789402317097783,-6.581231324702501
1733512578781334800,11.895334716796874,-8.20990687776804,5.07496108507812,-7.177972059971093
1733512578791409000,11.905408935546875,-8.014806330472231,4.20223132533133,-7.523799175307154
1733512578801483800,11.91548388671875,-7.434673031133413,3.3429566749632356,-7.32764531956613
1733512578811559000,11.925558837890625,-6.93528617015779,2.602479668933153,-6.380144688734412
1733512578821633800,11.9356337890625,-7.429529238504171,2.1118764183938503,-4.180157732950151
1733512578831709000,11.945708984375,-7.7012617745816705,1.7395745531082152,-1.6684226031728089
1733512578841783000,11.955782958984376,-6.206503693574667,1.2816016525387763,0.16142748333998025
1733512578851858000,11.96585791015625,-4.09726814507842,1.0341922413349152,1.869843001139909
1733512578861933000,11.97593310546875,-2.0376631811916828,0.9334884720921516,3.615114158454537
1733512578872008000,11.986008056640625,-0.4757985531825572,0.9741974990993738,5.041165782982111
1733512578882082000,11.99608203125,0.8692050927519798,1.4146055168837308,6.072880820548534
1733512578892157000,12.006156982421874,2.11717335575819,2.3965508536309,6.712655226379632
1733512578902231800,12.016231689453125,3.351715735480189,3.0661732852369545,6.2938622435539955
1733512578912307000,12.026306884765624,4.906340548428893,3.6347149309813975,5.589540839010477
1733512578922381800,12.0363818359375,6.614811522743105,4.481846139091253,4.767355563847721
1733512578932456000,12.0464560546875,8.359713408353924,5.505201344591379,3.9300805638417597
1733512578942530800,12.05653076171875,9.35104675117135,6.324085532382131,3.0853268985182045
1733512578952606000,12.06660595703125,8.897869852706789,7.021839248973131,2.571937815675139
1733512578962680800,12.076680908203125,8.022066676864027,7.702757566097378,1.851309127192199
1733512578972755000,12.0867548828125,7.836411418783665,7.677105238446593,-0.04643522263430059
1733512578982830000,12.096830078125,7.852661127316951,6.778600985974073,-2.04025597416386
1733512578992905000,12.106905029296875,7.508761180651187,5.489940647095442,-3.306212167672813
1733512579002980000,12.11697998046875,6.626304976660013,3.9903409712761637,-3.5411288847893476
1733512579013054700,12.1270546875,5.344335075330734,2.4380226817041635,-3.7715441988334057
1733512579023129000,12.137129150390624,3.350847135952115,1.0041185901105403,-4.4972281248793005
1733512579033204000,12.147203857421875,0.6312438933730125,-0.5394914923489094,-5.392805968511104
1733512579043278800,12.15727880859375,-1.976072694197297,-2.0029460880756376,-5.514445558276772
1733512579053354000,12.16735400390625,-1.8700249335780739,-3.0118232708901167,-4.590134372113645
1733512579063427800,12.177427734375,-0.538852317662537,-3.5397266167759893,-3.493018641614914
1733512579073503000,12.1875029296875,1.2923495487853884,-3.9340760632187126,-2.475833356921375
1733512579083577900,12.197577880859376,3.3044270378217098,-4.070241606464982,-1.5613041445821523
1733512579093653000,12.207653076171875,5.110869433805346,-3.9695559574007984,-0.683373601321876
1733512579103726800,12.217726806640625,6.666524758845568,-3.974258436003327,0.07258784622373059
1733512579113802000,12.227802001953124,8.03754189389348,-4.080321101930737,0.6543515780422836
1733512579123876900,12.237876953125,9.175956141725182,-4.294446083170175,1.2446218751877545
1733512579133952000,12.247951904296874,9.908576589035988,-4.495049319535494,1.8500348694726825
1733512579144027000,12.25802685546875,10.01232337923646,-4.598407987201213,2.4471206187866628
1733512579154101000,12.26810107421875,9.53409621066749,-4.657640512892604,3.022109687104821
1733512579164176000,12.27817578125,8.694226517993211,-4.834819034528732,3.394657636106014
1733512579174250800,12.288250732421876,7.845437605804205,-5.123817762705683,3.5819384495615956
1733512579184326000,12.298325927734375,7.126333058148622,-5.311072272676229,3.6987516420841215
1733512579194399700,12.308399658203125,6.395434027802944,-5.237295673325658,3.849029297313094
1733512579204475000,12.318474853515625,5.658277106106281,-4.927328391399979,4.120255637434124
1733512579214550000,12.328550048828125,5.116888255703449,-4.256579586112499,4.364460699638724
1733512579224625000,12.338625,4.3792420891851185,-3.019337884303927,4.804074936696887
1733512579234700000,12.348699951171875,3.1396129077181216,-1.180528465461731,5.3248582214444875
1733512579244774000,12.35877392578125,0.8697235636681317,1.280287647330761,5.8072278966456645
1733512579254849000,12.36884912109375,-16.343684455579517,5.683069602057337,4.279477354358137
1733512579264924000,12.378923828125,-28.159115241158005,9.547019989648462,2.1093881087094544
1733512579274998800,12.388998779296875,-23.732414066183566,8.414782384625077,1.3343161746382712
1733512579285073000,12.399072998046876,-17.26247687832117,5.946346444478631,-1.1633009979374707
1733512579295147800,12.409147705078125,-8.723796311348677,3.8647850848495957,-1.9345994048193096
1733512579305222700,12.41922265625,-2.914120729289949,2.4527263298392294,-1.0696363335512578
1733512579315297800,12.4292978515625,-0.09694353992640972,1.4301678276747465,-0.37988172595538194
1733512579325372700,12.43937255859375,1.545280646020174,0.5388333207011222,-0.120121294157207
1733512579335446800,12.44944677734375,2.1010031422019004,-0.21252982100248335,-0.0569214722700417
1733512579345521700,12.459521728515625,2.139987829634547,-0.6260463247299194,0.17739209132157266
1733512579355596800,12.4695966796875,2.1019690646246074,-0.19746902999281882,0.7153092470258474
1733512579365672000,12.479671875,2.530810563255846,0.7615145333617925,1.149808040766418
1733512579375745800,12.489745849609376,3.4141423810377716,1.7635948956429957,1.3796869098462163
1733512579385821000,12.499821044921875,4.198516688722372,2.6763006919473407,1.5841519362062215
1733512579395895800,12.509895751953126,4.645493563503027,3.957283920326829,2.053527689799666
1733512579405970700,12.519970703125,4.83949433286339,5.448087126228213,2.781042922925949
1733512579416045600,12.530045654296876,4.900643213570118,6.794278447577357,3.3645369308695194
1733512579426119700,12.54011962890625,4.798777414810657,7.383121707594395,3.2820164685711264
1733512579436194600,12.550194580078125,4.982407304543257,5.973115793460607,2.3446301122575997
1733512579446269700,12.560269775390625,4.8351206478238105,2.557261055546999,1.4219520802542567
1733512579456344800,12.5703447265625,4.316976479408145,-0.8146686159223318,0.7358478849247098
1733512579466418700,12.580418701171874,4.18722752520591,-2.9451439363241194,0.545255535768345
1733512579476493800,12.590493896484375,3.9192835677564144,-4.297147158822417,0.753030271198228
1733512579486568700,12.600568603515624,3.3682799167901276,-5.086245864680409,1.240834319473058
1733512579496643800,12.610643798828125,2.70778362544775,-5.548048552671075,1.5700379245273768
1733512579506719000,12.620718994140624,1.876890873824805,-5.718166634401679,1.6720695813730357
1733512579516792800,12.630792724609375,1.195249137796834,-5.0781321163296695,1.4490548989742993
1733512579526868000,12.640867919921876,0.8745528835207224,-3.285471285200119,1.0305273621518165
1733512579536942800,12.65094287109375,0.9172879364628345,-1.195776303476095,0.48202400356866415
1733512579547017700,12.661017822265626,1.3239675068423151,0.939330768379569,-0.25777239978611466
1733512579557091800,12.671091796875,1.887697660651803,2.9413895522266627,-1.0976152044534682
1733512579567166700,12.681166748046875,2.6221084985107184,4.591359237733483,-1.8280204599328338
1733512579577241600,12.69124169921875,3.5229935086399315,5.674978065538406,-2.314827240798622
1733512579587316700,12.701316650390625,3.3869805256068704,5.419985067337751,-3.3637612703219055
1733512579597392000,12.711391845703124,2.245830715331435,4.052602489399909,-4.439357242929935
1733512579607465700,12.7214658203125,1.0606599770218132,2.273384492689371,-4.6223917971178885
1733512579617540900,12.731540771484376,-0.0327823256611824,0.43766719464361664,-3.8728704838886854
1733512579627615700,12.74161572265625,-0.7081821716248988,-0.8094242855280638,-3.3641806647777557
1733512579637691000,12.75169091796875,-1.0823837330520152,-1.4544804311543702,-3.4673262742146846
