time,seconds_elapsed,z,y,x
1733511864803968300,0.03796826171875,-0.027018360793590546,-0.1465112268924713,0.07406137883663177
1733511864814043400,0.04804345703125,-0.024746419861912727,-0.1038322001695633,0.0561409667134285
1733511864824118000,0.058117919921875,-0.02426844835281372,-0.0935659185051918,0.03416941687464714
1733511864834193200,0.068193115234375,-0.032660335302352905,-0.11902813613414764,0.01978887803852558
1733511864844267000,0.07826708984375,-0.03701504319906235,-0.15802328288555145,0.006480546202510595
1733511864854342100,0.088342041015625,-0.04570067673921585,-0.1811150312423706,-0.009405742399394512
1733511864864417000,0.0984169921875,-0.059072744101285934,-0.18215544521808624,-0.027922527864575386
1733511864874492200,0.1084921875,-0.06991926580667496,-0.17316915094852448,-0.044773947447538376
1733511864884566300,0.118566162109375,-0.07448933273553848,-0.1574162095785141,-0.05270587280392647
1733511864894641200,0.12864111328125,-0.0783514529466629,-0.14852683246135712,-0.059446070343256
1733511864904716300,0.13871630859375,-0.08302266895771027,-0.14709880948066711,-0.062375783920288086
1733511864914791200,0.148791259765625,-0.08524347841739655,-0.15155480802059174,-0.06258510798215866
1733511864924865300,0.158865234375,-0.09142088890075684,-0.15688279271125793,-0.05707007274031639
1733511864934940200,0.168940185546875,-0.09144192934036255,-0.1529277265071869,-0.05176985263824463
1733511864945015300,0.179015380859375,-0.09562528133392334,-0.1499830186367035,-0.04271046817302704
1733511864955090200,0.189090087890625,-0.09150855988264084,-0.14989912509918213,-0.04150139167904854
1733511864965164300,0.199164306640625,-0.0790853276848793,-0.14056754112243652,-0.05109800025820732
1733511864975239200,0.2092392578125,-0.062075987458229065,-0.11296466737985611,-0.05734577402472496
1733511864985314000,0.21931396484375,-0.05320361629128456,-0.0946459025144577,-0.05890503525733948
1733511864995389200,0.22938916015625,-0.04697341471910477,-0.09459716826677322,-0.045586567372083664
1733511865005463000,0.239463134765625,-0.04706545174121857,-0.10576498508453369,-0.033361125737428665
1733511865015538200,0.2495380859375,-0.05288898944854736,-0.11144497245550156,-0.022104743868112564
1733511865025613000,0.259613037109375,-0.05653078481554985,-0.10590459406375885,-0.014471515081822872
1733511865035688200,0.269688232421875,-0.06305233389139175,-0.09996920078992844,-0.006752608343958855
1733511865045762300,0.27976220703125,-0.06715821474790573,-0.11867570877075195,-0.001824396662414074
1733511865055837200,0.289837158203125,-0.0795123502612114,-0.14431902766227722,-0.006320877932012081
1733511865065912300,0.299912353515625,-0.09046123176813126,-0.15881584584712982,-0.009258893318474293
1733511865075987200,0.3099873046875,-0.09586558490991592,-0.1677185297012329,-0.005621547810733318
1733511865086062000,0.32006201171875,-0.10540085285902023,-0.17648689448833466,0.0033510492648929358
1733511865096136200,0.33013623046875,-0.12238356471061707,-0.19590958952903748,0.018864229321479797
1733511865106211000,0.340211181640625,-0.14297352731227875,-0.22060108184814453,0.031515151262283325
1733511865116286200,0.3502861328125,-0.1632351279258728,-0.24094071984291077,0.03619512543082237
1733511865126361000,0.360361083984375,-0.179390087723732,-0.23770847916603088,0.025584684684872627
1733511865136435200,0.370435302734375,-0.18365567922592163,-0.21326491236686707,0.010456864722073078
1733511865146510000,0.380510009765625,-0.1764843761920929,-0.16595220565795898,-0.013955047354102135
1733511865156585200,0.390585205078125,-0.16286949813365936,-0.10792272537946701,-0.03753680735826492
1733511865166660000,0.40066015625,-0.14473307132720947,-0.05100513622164726,-0.05710297450423241
1733511865176734200,0.410734130859375,-0.1293935328722,-0.015577639453113079,-0.07318820059299469
1733511865186809300,0.420809326171875,-0.13321168720722198,-0.005667229648679495,-0.0837426483631134
1733511865196884200,0.43088427734375,-0.14900130033493042,-0.017181405797600746,-0.09076646715402603
1733511865206959400,0.44095947265625,-0.16991539299488068,-0.03943290188908577,-0.10496450215578079
1733511865217033200,0.451033203125,-0.18487730622291565,-0.028745904564857483,-0.12048966437578201
1733511865227108400,0.4611083984375,-0.1804169863462448,-0.0023236549459397793,-0.15574592351913452
1733511865237183000,0.471182861328125,-0.14900021255016327,-0.021317319944500923,-0.19491888582706451
1733511865247258000,0.481258056640625,-0.10810156166553497,-0.0990176796913147,-0.23037126660346985
1733511865257332000,0.49133203125,-0.0806659385561943,-0.1940789520740509,-0.27218690514564514
1733511865267407000,0.501406982421875,-0.0659148171544075,-0.28016868233680725,-0.3263400197029114
1733511865277482200,0.511482177734375,-0.058766625821590424,-0.34596875309944153,-0.3939584791660309
1733511865287557000,0.52155712890625,-0.04435001686215401,-0.3766186535358429,-0.4710278809070587
1733511865297631200,0.53163134765625,-0.015289871953427792,-0.3792165517807007,-0.5471189022064209
1733511865307706000,0.5417060546875,0.025269251316785812,-0.35596635937690735,-0.6084181666374207
1733511865317781200,0.55178125,0.057833582162857056,-0.3082182705402374,-0.6532511115074158
1733511865327856400,0.5618564453125,0.07850195467472076,-0.2116582691669464,-0.6972797513008118
1733511865337931300,0.57193115234375,0.10181713104248047,-0.10009632259607315,-0.7279378175735474
1733511865348005400,0.58200537109375,0.1213238388299942,0.00641215406358242,-0.7238801717758179
1733511865358080300,0.592080322265625,0.14553676545619965,0.1059158444404602,-0.6927520632743835
1733511865368155100,0.602155029296875,0.15861332416534424,0.1966506391763687,-0.6376292109489441
1733511865378230000,0.61222998046875,0.15896034240722656,0.26183363795280457,-0.5848019123077393
1733511865388304100,0.62230419921875,0.15879519283771515,0.31830865144729614,-0.5656478404998779
1733511865398379000,0.63237890625,0.1594652533531189,0.3613530695438385,-0.5799415111541748
1733511865408454100,0.6424541015625,0.15141688287258148,0.3765847384929657,-0.6212440729141235
1733511865418529300,0.652529296875,0.1383460909128189,0.3697875738143921,-0.6688419580459595
1733511865428603100,0.66260302734375,0.12569932639598846,0.33805885910987854,-0.7141537070274353
1733511865438678300,0.67267822265625,0.1254173070192337,0.2964988946914673,-0.7689189314842224
1733511865448753200,0.682753173828125,0.13923406600952148,0.25511205196380615,-0.8285585641860962
1733511865458828300,0.692828369140625,0.15804077684879303,0.2181260734796524,-0.9025214910507202
1733511865468902100,0.702902099609375,0.16735176742076874,0.1912107765674591,-0.9699128270149231
1733511865478977300,0.712977294921875,0.1751905083656311,0.18819554150104523,-1.014541506767273
1733511865489052400,0.723052490234375,0.17878255248069763,0.20033001899719238,-1.0316689014434814
1733511865499127000,0.733126953125,0.177414208650589,0.2323894202709198,-1.0181647539138794
1733511865509201400,0.743201416015625,0.17661787569522858,0.2469753473997116,-0.9933643937110901
1733511865519276000,0.753276123046875,0.17244389653205872,0.22244390845298767,-0.958627462387085
1733511865529351200,0.76335107421875,0.15011107921600342,0.18973663449287415,-0.910767674446106
1733511865539426000,0.773426025390625,0.12120272219181061,0.17509537935256958,-0.8579500317573547
1733511865549501200,0.783501220703125,0.10009445995092392,0.14957541227340698,-0.8038191795349121
1733511865559575000,0.793574951171875,0.08557596802711487,0.09524133801460266,-0.734563410282135
1733511865569650200,0.803650146484375,0.06366594135761261,0.041384171694517136,-0.6384796500205994
1733511865579725300,0.813725341796875,0.028075192123651505,0.025112256407737732,-0.4947425127029419
1733511865589800000,0.823800048828125,-0.00489339604973793,0.040283482521772385,-0.32248225808143616
1733511865599874000,0.8338740234375,-0.020756248384714127,0.05933813378214836,-0.1651693433523178
1733511865609949000,0.843948974609375,-0.023314209654927254,0.06379465758800507,-0.04418283328413963
1733511865620024000,0.854024169921875,-0.02232244983315468,0.07670140266418457,0.03237798437476158
1733511865630099000,0.864098876953125,-0.03220561519265175,0.11276210844516754,0.09065302461385727
1733511865640173000,0.874173095703125,-0.05241208150982857,0.18235395848751068,0.14286217093467712
1733511865650248000,0.884248046875,-0.08657772094011307,0.2578180432319641,0.1807633638381958
1733511865660322800,0.89432275390625,-0.10973949730396271,0.3253089487552643,0.19359420239925385
1733511865670398000,0.90439794921875,-0.12466639280319214,0.36652281880378723,0.19418089091777802
1733511865680471800,0.914471923828125,-0.13186171650886536,0.3792189061641693,0.18306991457939148
1733511865690547000,0.924546875,-0.14517277479171753,0.3766482174396515,0.16007153689861298
1733511865700622000,0.9346220703125,-0.15879963338375092,0.35845962166786194,0.134216770529747
1733511865710697000,0.944697021484375,-0.1634395718574524,0.32407012581825256,0.11216191947460175
1733511865720771000,0.95477099609375,-0.1589398980140686,0.27827760577201843,0.08581047505140305
1733511865730846000,0.964845947265625,-0.1392972320318222,0.211660236120224,0.053959835320711136
1733511865740921000,0.974921142578125,-0.10618188232183456,0.14118820428848267,0.03058154322206974
1733511865750996000,0.984995849609375,-0.07158160954713821,0.08433110266923904,0.0251753106713295
1733511865761070800,0.99507080078125,-0.03709767013788223,0.0394618958234787,0.04417935758829117
1733511865771145000,1.00514501953125,-0.005312812514603138,0.02974664978682995,0.0693986639380455
1733511865781219800,1.0152197265625,0.013138099573552608,0.04156655818223953,0.09910809248685837
1733511865791295000,1.025294921875,0.01974649727344513,0.0911007970571518,0.12738054990768433
1733511865801369900,1.035369873046875,0.007512999698519707,0.16885311901569366,0.14035093784332275
1733511865811444000,1.04544384765625,-0.016363093629479408,0.24837647378444672,0.11304699629545212
1733511865821518800,1.055518798828125,-0.053233493119478226,0.30321791768074036,0.04469271004199982
1733511865831594000,1.065593994140625,-0.08579783141613007,0.275224894285202,-0.06240604445338249
1733511865841669000,1.075669189453125,-0.1102999746799469,0.14559923112392426,-0.19636358320713043
1733511865851743000,1.085742919921875,-0.1319381594657898,-0.04572199657559395,-0.3435848355293274
1733511865861818000,1.095818115234375,-0.14382730424404144,-0.2805057466030121,-0.4773500859737396
1733511865871893000,1.10589306640625,-0.15103274583816528,-0.5493422746658325,-0.5755944848060608
1733511865881968000,1.115968017578125,-0.16055195033550262,-0.837058424949646,-0.6270939111709595
1733511865892042000,1.1260419921875,-0.16749268770217896,-1.0860378742218018,-0.6214629411697388
1733511865902117000,1.1361171875,-0.16526469588279724,-1.2539126873016357,-0.5868125557899475
1733511865912191700,1.146191650390625,-0.14867612719535828,-1.3345699310302734,-0.5346132516860962
1733511865922267000,1.156266845703125,-0.12849096953868866,-1.334608793258667,-0.48317644000053406
1733511865932341000,1.166341064453125,-0.08217619359493256,-1.2575678825378418,-0.45269790291786194
1733511865942416000,1.176415771484375,-0.010771254077553749,-1.1171585321426392,-0.4327199161052704
1733511865952491000,1.186490966796875,0.07164609432220459,-0.9043972492218018,-0.3999432921409607
1733511865962566000,1.19656591796875,0.13453318178653717,-0.6459435820579529,-0.34699246287345886
1733511865972641000,1.20664111328125,0.17773708701133728,-0.3564387857913971,-0.30607840418815613
1733511865982715000,1.21671484375,0.22638849914073944,-0.06987493485212326,-0.3145904242992401
1733511865992790000,1.2267900390625,0.2577861547470093,0.17930716276168823,-0.39383891224861145
1733511866002865200,1.236865234375,0.22441141307353973,0.3524794578552246,-0.5122126936912537
1733511866012940000,1.24693994140625,0.13082946836948395,0.4409604072570801,-0.6136431097984314
1733511866023014100,1.25701416015625,0.03350397199392319,0.4394296109676361,-0.6616295576095581
1733511866033089000,1.267089111328125,-0.019841209053993225,0.34746819734573364,-0.6376776695251465
1733511866043164000,1.277163818359375,-0.02697288803756237,0.18242307007312775,-0.5657308101654053
1733511866053238800,1.28723876953125,-0.05403590574860573,-0.017615502700209618,-0.4583098590373993
1733511866063313000,1.29731298828125,-0.11426275968551636,-0.23965789377689362,-0.34230148792266846
1733511866073387800,1.3073876953125,-0.16518430411815643,-0.46701350808143616,-0.22772587835788727
1733511866083463000,1.317462890625,-0.17715653777122498,-0.6334728002548218,-0.11235908418893814
1733511866093538000,1.3275380859375,-0.12507838010787964,-0.6820385456085205,0.022250939160585403
1733511866103612000,1.33761181640625,-0.03483504056930542,-0.5666981339454651,0.1818656325340271
1733511866113687000,1.34768701171875,0.05245734006166458,-0.31305232644081116,0.3408098518848419
1733511866123762000,1.357761962890625,0.11549676209688187,0.0497455857694149,0.49072930216789246
1733511866133837000,1.367837158203125,0.1434711217880249,0.4866885840892792,0.6428953409194946
1733511866143911000,1.377910888671875,0.13770857453346252,0.9569088220596313,0.7950134873390198
1733511866153986000,1.387986083984375,0.1124156191945076,1.4164565801620483,0.9319225549697876
1733511866164061200,1.398061279296875,0.08347505331039429,1.785488486289978,1.0366612672805786
1733511866174135800,1.4081357421875,0.03837655484676361,2.0598948001861572,1.1001161336898804
1733511866184211000,1.4182109375,-0.01789017766714096,2.2149038314819336,1.1229746341705322
1733511866194284800,1.428284912109375,-0.0765322744846344,2.259136438369751,1.1424559354782104
1733511866204360000,1.43835986328125,-0.10958342999219894,2.2268571853637695,1.191951870918274
1733511866214434800,1.448434814453125,-0.11854743212461472,2.1235477924346924,1.2873187065124512
1733511866224510000,1.458510009765625,-0.11936555057764053,1.9717326164245605,1.3856111764907837
1733511866234584000,1.468583984375,-0.10577055811882019,1.7669123411178589,1.446976661682129
1733511866244659000,1.478658935546875,-0.09055831283330917,1.5808993577957153,1.4583030939102173
1733511866254734000,1.488734130859375,-0.08356033265590668,1.4201903343200684,1.429165244102478
1733511866264809000,1.49880908203125,-0.07493887841701508,1.2858103513717651,1.3919017314910889
1733511866274883000,1.508883056640625,-0.0646822527050972,1.176185965538025,1.3673758506774902
1733511866284958000,1.5189580078125,-0.04858876392245293,1.0675835609436035,1.3757075071334839
1733511866295033000,1.529033203125,-0.02946806699037552,0.9306164383888245,1.391908049583435
1733511866305108000,1.53910791015625,-0.007366761565208435,0.7782721519470215,1.3935201168060303
1733511866315182000,1.54918212890625,-0.0010605747811496258,0.6040840148925781,1.3496625423431396
1733511866325257000,1.559257080078125,0.006786962039768696,0.4280005991458893,1.2618272304534912
1733511866335331800,1.569331787109375,-0.003236111020669341,0.27025678753852844,1.129748821258545
1733511866345407000,1.579406982421875,-0.028369959443807602,0.1509210467338562,0.9574633240699768
1733511866355480800,1.589480712890625,-0.05037710815668106,0.05644553154706955,0.7630942463874817
1733511866365556000,1.599555908203125,-0.0629592165350914,-0.019001822918653488,0.5505308508872986
1733511866375631000,1.609631103515625,-0.06475000083446503,-0.1040990799665451,0.3485183119773865
1733511866385706000,1.6197060546875,-0.04673291742801666,-0.15820439159870148,0.19229941070079803
1733511866395781000,1.629781005859375,-0.01353103294968605,-0.18398429453372955,0.07627689093351364
1733511866405855000,1.63985498046875,0.020026128739118576,-0.16571500897407532,0.0015563135966658592
1733511866415930000,1.64993017578125,0.05680251866579056,-0.0951542928814888,-0.03693195804953575
1733511866426005000,1.6600048828125,0.058046746999025345,0.0018646615790203214,-0.06110653281211853
1733511866436079900,1.670079833984375,0.01858958601951599,0.09473472833633423,-0.06891770660877228
1733511866446154000,1.680154052734375,-0.0596945658326149,0.17827410995960236,-0.061514921486377716
1733511866456228900,1.690228759765625,-0.18672367930412292,0.2857752740383148,-0.03694619610905647
1733511866466304000,1.700303955078125,-0.33120736479759216,0.41163334250450134,0.0055091180838644505
1733511866476379000,1.71037890625,-0.4274669587612152,0.5007431507110596,0.07487063109874725
1733511866486453000,1.720452880859375,-0.4547569155693054,0.5292786955833435,0.1531989872455597
1733511866496528000,1.73052783203125,-0.4197455644607544,0.5080918073654175,0.2123289406299591
1733511866506603000,1.74060302734375,-0.3568308353424072,0.4586731493473053,0.24641633033752441
1733511866516678100,1.75067822265625,-0.2883194088935852,0.40980470180511475,0.2410806119441986
1733511866526752000,1.760751953125,-0.23716914653778076,0.35667064785957336,0.20406773686408997
1733511866536827100,1.7708271484375,-0.20131675899028778,0.25976821780204773,0.12125987559556961
1733511866546902000,1.780902099609375,-0.17638051509857178,0.1142275258898735,-0.018883120268583298
1733511866556977200,1.79097705078125,-0.1468130350112915,-0.06670310348272324,-0.21139051020145416
1733511866567051000,1.801051025390625,-0.09682976454496384,-0.2683696448802948,-0.44371935725212097
1733511866577126100,1.811126220703125,-0.037782516330480576,-0.4272841215133667,-0.6728604435920715
1733511866587200800,1.82120068359375,0.023716263473033905,-0.5234391093254089,-0.8725724816322327
1733511866597275400,1.831275390625,0.07189109921455383,-0.5394520163536072,-1.039685606956482
1733511866607350500,1.8413505859375,0.13264019787311554,-0.48530757427215576,-1.2070058584213257
1733511866617424400,1.85142431640625,0.22544799745082855,-0.4303687810897827,-1.4065502882003784
1733511866627499500,1.86149951171875,0.3533819913864136,-0.4514008164405823,-1.3888108730316162
1733511866637574700,1.87157470703125,0.3700762689113617,-0.6007930040359497,-0.7473499774932861
1733511866647649500,1.8816494140625,0.3435506522655487,-0.8375248312950134,-0.04638735204935074
1733511866657723600,1.8917236328125,0.3546290695667267,-1.0017645359039307,0.4262635111808777
1733511866667798500,1.901798583984375,0.4381825625896454,-0.9004286527633667,0.5584897398948669
1733511866677873700,1.911873779296875,0.5611463189125061,-0.5998895764350891,0.4220896363258362
1733511866687948500,1.921948486328125,0.6061172485351562,-0.1574903130531311,0.19660325348377228
1733511866698022700,1.932022705078125,0.537611722946167,0.311766117811203,-0.01173434779047966
1733511866708097500,1.94209765625,0.3462286591529846,0.4476970434188843,0.0029726922512054443
1733511866718172700,1.952172607421875,0.1391008049249649,0.4119270443916321,0.11703363806009293
1733511866728247600,1.96224755859375,-0.002647808287292719,0.708042562007904,0.048203445971012115
1733511866738322400,1.972322509765625,-0.11839296668767929,1.4669486284255981,0.07085215300321579
1733511866748396500,1.982396484375,-0.2685462236404419,2.23457932472229,0.44789478182792664
1733511866758471400,1.992471435546875,-0.3892284631729126,2.7094955444335938,0.9816709756851196
1733511866768546600,2.002546630859375,-0.46295061707496643,2.8688058853149414,1.363690733909607
1733511866778621700,2.01262158203125,-0.4887887239456177,2.771840810775757,1.4313881397247314
1733511866788695600,2.022695556640625,-0.46566981077194214,2.378371477127075,1.1353524923324585
1733511866798770700,2.032770751953125,-0.3592231869697571,1.7041223049163818,0.445435106754303
1733511866808845600,2.042845458984375,-0.2039736807346344,0.918822169303894,-0.38512495160102844
1733511866818920700,2.052920654296875,-0.007572026923298836,0.15038549900054932,-0.9484089016914368
1733511866828994600,2.06299462890625,0.14576905965805054,-0.596985936164856,-1.074146032333374
1733511866839069700,2.073069580078125,0.11938564479351044,-1.260496735572815,-0.856619119644165
1733511866849144600,2.08314453125,-0.06999652832746506,-1.753348708152771,-0.5785502195358276
1733511866859219500,2.093219482421875,-0.27044492959976196,-2.0031940937042236,-0.43774279952049255
1733511866869293600,2.10329345703125,-0.35002976655960083,-2.018463134765625,-0.4430709779262543
1733511866879368400,2.113368408203125,-0.3091394901275635,-1.8729199171066284,-0.5425367951393127
1733511866889443600,2.123443603515625,-0.20906081795692444,-1.6994223594665527,-0.6107659339904785
1733511866899518500,2.1335185546875,-0.10135921090841293,-1.5556902885437012,-0.5909124612808228
1733511866909592600,2.143592529296875,-0.01776151917874813,-1.4086883068084717,-0.49179789423942566
1733511866919667500,2.15366748046875,0.022659962996840477,-1.214741587638855,-0.32638904452323914
1733511866929742600,2.16374267578125,0.04626409336924553,-0.9055222272872925,-0.14275023341178894
1733511866939817700,2.173817626953125,0.10021399706602097,-0.4312935173511505,-0.020800532773137093
1733511866949892600,2.183892578125,0.2021384984254837,0.16642263531684875,0.02981497347354889
1733511866959966700,2.193966796875,0.33349770307540894,0.8109767436981201,0.007408000994473696
1733511866970041600,2.20404150390625,0.4684046506881714,1.3906177282333374,-0.07353398203849792
1733511866980116500,2.214116455078125,0.5584223866462708,1.8941158056259155,-0.21350932121276855
1733511866990191400,2.22419140625,0.5790746808052063,2.2399230003356934,-0.4171402156352997
1733511867000265500,2.234265380859375,0.5163567662239075,2.412242889404297,-0.6603004932403564
1733511867010340400,2.24434033203125,0.3902701437473297,2.436333417892456,-0.8905499577522278
1733511867020415500,2.25441552734375,0.25796619057655334,2.2775590419769287,-1.0947682857513428
1733511867030490600,2.26449072265625,0.16961610317230225,1.933833122253418,-1.285725712776184
1733511867040564500,2.274564453125,0.11237600445747375,1.4586663246154785,-1.4753599166870117
1733511867050639600,2.2846396484375,0.059723712503910065,0.8933669328689575,-1.6439909934997559
1733511867060714500,2.294714599609375,-0.004863687790930271,0.31872695684432983,-1.7293134927749634
1733511867070789600,2.30478955078125,-0.08960840106010437,-0.19839739799499512,-1.697465181350708
1733511867080863500,2.314863525390625,-0.17476052045822144,-0.601802408695221,-1.5748502016067505
1733511867090938600,2.324938720703125,-0.2600940465927124,-0.8657230138778687,-1.4101182222366333
1733511867101013800,2.335013671875,-0.34874409437179565,-0.9752345681190491,-1.2401773929595947
1733511867111088600,2.345088623046875,-0.43714505434036255,-0.9998107552528381,-1.093387246131897
1733511867121163500,2.35516357421875,-0.5073364973068237,-1.009770154953003,-0.9910374879837036
1733511867131237600,2.365237548828125,-0.5463017225265503,-1.0606695413589478,-0.94467693567276
1733511867141312500,2.3753125,-0.5624449849128723,-1.1873804330825806,-0.9552162885665894
1733511867151387400,2.385387451171875,-0.5339930653572083,-1.3529804944992065,-0.9801021814346313
1733511867161462500,2.395462646484375,-0.4515714943408966,-1.5028051137924194,-0.9811959266662598
1733511867171536400,2.405536376953125,-0.37138107419013977,-1.594452142715454,-0.9357613325119019
1733511867181611500,2.415611572265625,-0.331063836812973,-1.6039971113204956,-0.8563366532325745
1733511867191686700,2.425686767578125,-0.32314518094062805,-1.5229220390319824,-0.7628480195999146
1733511867201761500,2.435761474609375,-0.30171844363212585,-1.3924307823181152,-0.6817900538444519
1733511867211835600,2.445835693359375,-0.24194622039794922,-1.2529703378677368,-0.6292498707771301
1733511867221910500,2.45591064453125,-0.13456445932388306,-1.1163809299468994,-0.5760121941566467
1733511867231985700,2.465985595703125,-0.01007179357111454,-0.9529252648353577,-0.4819386601448059
1733511867242060500,2.476060546875,0.09760528802871704,-0.7448230981826782,-0.32461369037628174
1733511867252134700,2.486134765625,0.1801193356513977,-0.48822590708732605,-0.14297199249267578
1733511867262209500,2.49620947265625,0.24445512890815735,-0.22170279920101166,0.02166643738746643
1733511867272284400,2.506284423828125,0.31795942783355713,0.010965058580040932,0.1466379463672638
1733511867282359600,2.516359619140625,0.3895426094532013,0.18418101966381073,0.228254497051239
1733511867292434400,2.526434326171875,0.4547322690486908,0.2952688932418823,0.27600473165512085
1733511867302508500,2.536508544921875,0.48680341243743896,0.34922242164611816,0.29058772325515747
1733511867312583400,2.54658349609375,0.4781808853149414,0.32088184356689453,0.2595112919807434
1733511867322658600,2.556658447265625,0.4230603277683258,0.2411409318447113,0.19339430332183838
1733511867332733700,2.566733642578125,0.33152028918266296,0.09612010419368744,0.09513617306947708
1733511867342807600,2.5768076171875,0.22833183407783508,-0.10919889807701111,-0.01814645528793335
1733511867352882700,2.586882568359375,0.14581644535064697,-0.3682648241519928,-0.1327476054430008
1733511867362957600,2.59695751953125,0.07718224078416824,-0.6290732026100159,-0.2523234486579895
1733511867373032400,2.607032470703125,0.023251894861459732,-0.8684048652648926,-0.3788771331310272
1733511867383106600,2.6171064453125,-0.010872993618249893,-1.0636811256408691,-0.5075502395629883
1733511867393181400,2.627181396484375,-0.03143685683608055,-1.2199580669403076,-0.6535077095031738
1733511867403256600,2.637256591796875,-0.0398903526365757,-1.32243812084198,-0.8207200169563293
1733511867413331500,2.64733154296875,-0.037165407091379166,-1.3601082563400269,-0.9868237972259521
1733511867423406600,2.657406494140625,-0.01952856220304966,-1.3158150911331177,-1.1050726175308228
1733511867433480400,2.66748046875,0.012569187209010124,-1.1950764656066895,-1.1383895874023438
1733511867443555600,2.6775556640625,0.051120273768901825,-0.9585523009300232,-1.0789531469345093
1733511867453630500,2.68763037109375,0.061830706894397736,-0.5531616806983948,-0.9689845442771912
1733511867463705600,2.69770556640625,0.050558172166347504,0.0241636261343956,-0.7950006127357483
1733511867473779700,2.70777978515625,0.028495745733380318,0.7217552065849304,-0.5596357583999634
1733511867483854600,2.7178544921875,-0.007019192911684513,1.4765052795410156,-0.07134157419204712
1733511867493929700,2.7279296875,-0.01521320641040802,2.2160165309906006,0.7607266306877136
1733511867504004400,2.73800439453125,0.010388885624706745,2.7508020401000977,1.7079988718032837
1733511867514078700,2.74807861328125,0.0005807294510304928,2.97865629196167,2.5348188877105713
1733511867524153300,2.7581533203125,-0.08894649147987366,2.8333725929260254,3.1349713802337646
1733511867534228500,2.768228515625,-0.2182440161705017,2.395146131515503,3.511061906814575
1733511867544303600,2.7783037109375,-0.3482755422592163,1.868111252784729,3.7383060455322266
1733511867554378500,2.78837841796875,-0.4503853917121887,1.4105852842330933,3.870896339416504
1733511867564452600,2.79845263671875,-0.46902674436569214,1.0421082973480225,3.9179084300994873
1733511867574527500,2.808527587890625,-0.3726498484611511,0.623512864112854,3.8980371952056885
1733511867584602600,2.8186025390625,-0.24233107268810272,0.3508201539516449,3.729015350341797
1733511867594678300,2.82867822265625,-0.13575536012649536,0.30667346715927124,3.487302541732788
1733511867604752400,2.83875244140625,-0.08457760512828827,0.22498363256454468,3.186782121658325
1733511867614827300,2.8488271484375,-0.07563816756010056,0.12576010823249817,2.80902361869812
1733511867624902100,2.858902099609375,-0.026913272216916084,0.057489458471536636,2.390784502029419
1733511867634977000,2.86897705078125,0.02932523377239704,0.1434033066034317,1.981737494468689
1733511867645051100,2.879051025390625,0.10952121019363403,0.2742668390274048,1.649741768836975
1733511867655126000,2.8891259765625,0.18365588784217834,0.4944351613521576,1.361212134361267
1733511867665201200,2.899201171875,0.24012410640716553,0.7197898030281067,1.1162505149841309
1733511867675276300,2.9092763671875,0.2999533712863922,0.7582868337631226,0.9170998334884644
1733511867685350100,2.91935009765625,0.3539532423019409,0.6365370154380798,0.7783962488174438
1733511867695425300,2.92942529296875,0.3907378911972046,0.4212568700313568,0.6763455271720886
1733511867705500200,2.939500244140625,0.4074685573577881,0.13048742711544037,0.571710467338562
1733511867715575300,2.9495751953125,0.3957381248474121,-0.05921192467212677,0.4306367039680481
1733511867725650200,2.959650146484375,0.3578442931175232,-0.186757892370224,0.31826820969581604
1733511867735724300,2.969724365234375,0.32170599699020386,-0.19771839678287506,0.2465071976184845
1733511867745799400,2.97979931640625,0.2944274842739105,-0.055417902767658234,0.21002134680747986
1733511867755874000,2.9898740234375,0.2557370662689209,0.197900652885437,0.20504122972488403
1733511867765949200,2.99994921875,0.18877997994422913,0.5357845425605774,0.23417167365550995
1733511867776023000,3.01002294921875,0.1146056279540062,0.8492854833602905,0.2924456298351288
1733511867786098200,3.02009814453125,0.0224058385938406,1.0693951845169067,0.3833307921886444
1733511867796173000,3.030173095703125,-0.09486193209886551,1.183678150177002,0.47367292642593384
1733511867806248200,3.040248291015625,-0.24390964210033417,1.1813387870788574,0.5288361310958862
1733511867816322000,3.050322021484375,-0.3921835422515869,1.0597410202026367,0.5218754410743713
1733511867826397200,3.060397216796875,-0.5098695158958435,0.8478437662124634,0.4502670168876648
1733511867836472300,3.070472412109375,-0.5832513570785522,0.5902095437049866,0.32420575618743896
1733511867846547200,3.080547119140625,-0.630490243434906,0.3358984887599945,0.136531263589859
1733511867856622300,3.090622314453125,-0.64737468957901,0.10503889620304108,-0.096811443567276
1733511867866696200,3.1006962890625,-0.636953592300415,-0.11815842241048813,-0.35203832387924194
1733511867876771300,3.110771240234375,-0.6087046265602112,-0.3536321818828583,-0.6120986938476562
1733511867886846200,3.12084619140625,-0.5740516781806946,-0.562627911567688,-0.8468526005744934
1733511867896921000,3.130921142578125,-0.5275771021842957,-0.6916208267211914,-1.0543906688690186
1733511867906995200,3.1409951171875,-0.4745720624923706,-0.7255560755729675,-1.2419047355651855
1733511867917070000,3.151070068359375,-0.41221922636032104,-0.6902915835380554,-1.4498916864395142
1733511867927145200,3.161145263671875,-0.3480548858642578,-0.659859299659729,-1.7173140048980713
1733511867937220000,3.17122021484375,-0.2952257990837097,-0.6918614506721497,-2.041166067123413
1733511867947294200,3.181294189453125,-0.27217504382133484,-0.8106578588485718,-2.0212128162384033
1733511867957369000,3.191369140625,-0.3379974663257599,-1.0904507637023926,-1.041037678718567
1733511867967444200,3.2014443359375,-0.3518955707550049,-1.4040608406066895,-0.1756356805562973
1733511867977519400,3.211519287109375,-0.29285648465156555,-1.3823292255401611,0.23034538328647614
1733511867987594200,3.22159423828125,-0.1831907033920288,-0.9491655230522156,0.3012148141860962
1733511867997668400,3.23166845703125,-0.051312029361724854,-0.32824498414993286,0.22029122710227966
1733511868007743200,3.2417431640625,0.0588868223130703,0.25211089849472046,0.10378499329090118
1733511868017818000,3.251818115234375,0.1216878890991211,0.5724087953567505,0.01127556897699833
1733511868027893200,3.261893310546875,0.12301304936408997,0.6709142923355103,-0.038206685334444046
1733511868037967000,3.271967041015625,0.07667378336191177,0.7532128691673279,-0.0453261137008667
1733511868048042200,3.282042236328125,0.012517229653894901,0.9410668611526489,-0.07599327713251114
1733511868058117000,3.2921171875,-0.05721257999539375,1.213098406791687,-0.15725617110729218
1733511868068192300,3.302192138671875,-0.07637136429548264,1.452821969985962,-0.2423693984746933
1733511868078267100,3.31226708984375,0.008716627955436707,1.574503779411316,-0.3014068901538849
1733511868088341200,3.32234130859375,0.13624583184719086,1.5895482301712036,-0.3172597587108612
1733511868098416000,3.332416015625,0.22142091393470764,1.554014801979065,-0.3056771457195282
1733511868108491300,3.3424912109375,0.24755139648914337,1.438085675239563,-0.2770746350288391
1733511868118566400,3.35256640625,0.2346385270357132,1.2237483263015747,-0.23248906433582306
1733511868128640300,3.36264013671875,0.21623878180980682,0.8837012052536011,-0.2777099609375
1733511868138715400,3.37271533203125,0.2477753907442093,0.4047660231590271,-0.5487542152404785
1733511868148790000,3.3827900390625,0.2777766287326813,-0.11852820217609406,-1.05238676071167
1733511868158865200,3.392865234375,0.18934103846549988,-0.5534365177154541,-1.5213055610656738
1733511868168939000,3.40293896484375,-0.020362012088298798,-0.8154725432395935,-1.5939942598342896
1733511868179014100,3.41301416015625,-0.2527877986431122,-1.0134245157241821,-1.2434375286102295
1733511868189089300,3.42308935546875,-0.3750152885913849,-1.2555581331253052,-0.7556641697883606
1733511868199164200,3.4331640625,-0.3951921761035919,-1.4571943283081055,-0.29191169142723083
1733511868209239300,3.4432392578125,-0.34241771697998047,-1.6008260250091553,0.0003241179510951042
1733511868219313200,3.453313232421875,-0.23958775401115417,-1.723800778388977,0.10119693726301193
1733511868229388300,3.46338818359375,-0.08929754793643951,-1.8328100442886353,0.10807063430547714
1733511868239463200,3.473463134765625,0.09443952143192291,-1.907549262046814,0.14930595457553864
1733511868249538300,3.483538330078125,0.2628549039363861,-1.8680388927459717,0.29649847745895386
1733511868259612200,3.493612060546875,0.3989142179489136,-1.6414070129394531,0.5141597390174866
1733511868269687300,3.503687255859375,0.48596930503845215,-1.1682931184768677,0.7222803235054016
1733511868279762200,3.51376220703125,0.535154402256012,-0.44068899750709534,0.8435143232345581
1733511868289837000,3.523837158203125,0.5996633768081665,0.417715460062027,0.8385162353515625
1733511868299911200,3.5339111328125,0.6716899275779724,1.302707314491272,0.7293428778648376
1733511868309986000,3.543986083984375,0.7135893702507019,2.138214111328125,0.5015272498130798
1733511868320061200,3.554061279296875,0.7314141392707825,2.739957332611084,0.21547818183898926
1733511868330136300,3.56413623046875,0.7067834734916687,3.037116289138794,-0.12245841324329376
1733511868340211200,3.574211181640625,0.5713431239128113,3.0697786808013916,-0.44313791394233704
1733511868350285300,3.584285400390625,0.3683737814426422,2.7676029205322266,-0.7323442101478577
1733511868360360200,3.594360107421875,0.1858053058385849,2.1342217922210693,-1.0273499488830566
1733511868370435300,3.604435302734375,0.05395284667611122,1.2915821075439453,-1.3052685260772705
1733511868380510200,3.61451025390625,-0.030170554295182228,0.3659393787384033,-1.5404373407363892
1733511868390584300,3.624584228515625,-0.07544766366481781,-0.5045984387397766,-1.6711055040359497
1733511868400659200,3.6346591796875,-0.11383340507745743,-1.2009257078170776,-1.6386661529541016
1733511868410734000,3.644734130859375,-0.14859873056411743,-1.6840615272521973,-1.444976806640625
1733511868420809200,3.654809326171875,-0.17976197600364685,-1.9471933841705322,-1.1537548303604126
1733511868430884000,3.664884033203125,-0.20649400353431702,-2.0174403190612793,-0.8670411109924316
1733511868440958200,3.674958251953125,-0.22546637058258057,-1.9375109672546387,-0.6324778199195862
1733511868451033000,3.685033203125,-0.21111135184764862,-1.7800993919372559,-0.48828887939453125
1733511868461108200,3.695108154296875,-0.20048773288726807,-1.5924293994903564,-0.4539772570133209
1733511868471183400,3.705183349609375,-0.2102726250886917,-1.4123600721359253,-0.5277423858642578
1733511868481257200,3.71525732421875,-0.23242400586605072,-1.2503947019577026,-0.6916642189025879
1733511868491332400,3.725332275390625,-0.2559104859828949,-1.099320650100708,-0.882219135761261
1733511868501407200,3.7354072265625,-0.2659870982170105,-0.9587051272392273,-1.0477674007415771
1733511868511482000,3.745482177734375,-0.25120094418525696,-0.8272891640663147,-1.1537772417068481
1733511868521557000,3.755556884765625,-0.19941496849060059,-0.7281673550605774,-1.1864070892333984
1733511868531631000,3.765631103515625,-0.13880358636379242,-0.6585572957992554,-1.1470248699188232
1733511868541706000,3.7757060546875,-0.11484738439321518,-0.5943913459777832,-1.0455403327941895
1733511868551781000,3.785781005859375,-0.12972070276737213,-0.5418490171432495,-0.9235602021217346
1733511868561856300,3.795856201171875,-0.17170889675617218,-0.5296874046325684,-0.852480411529541
1733511868571930000,3.80593017578125,-0.18914155662059784,-0.5692115426063538,-0.8529013395309448
1733511868582005200,3.816005126953125,-0.18956340849399567,-0.6421027779579163,-0.8853604793548584
1733511868592079600,3.82607958984375,-0.15348012745380402,-0.7231364250183105,-0.9011926651000977
1733511868602154500,3.836154541015625,-0.11263468116521835,-0.7967163920402527,-0.8673343062400818
1733511868612228600,3.846228515625,-0.08195240795612335,-0.8777174949645996,-0.7930195927619934
1733511868622303500,3.856303466796875,-0.053190264850854874,-0.9625421166419983,-0.6912117600440979
1733511868632378600,3.866378662109375,0.003491269890218973,-1.056595802307129,-0.5731139183044434
1733511868642453800,3.876453857421875,0.09254684299230576,-1.133313536643982,-0.4447631537914276
1733511868652528600,3.886528564453125,0.20029278099536896,-1.1630526781082153,-0.2956250309944153
1733511868662602800,3.896602783203125,0.30677899718284607,-1.1093993186950684,-0.11882334202528
1733511868672677600,3.906677734375,0.4148114323616028,-0.9874057769775391,0.06631721556186676
1733511868682752500,3.91675244140625,0.5054459571838379,-0.8073840737342834,0.24614398181438446
1733511868692827400,3.926827392578125,0.5670188069343567,-0.6011441946029663,0.39685237407684326
1733511868702901500,3.936901611328125,0.5873025059700012,-0.3926101326942444,0.497476190328598
1733511868712976400,3.946976318359375,0.5654339790344238,-0.2147144228219986,0.5533803105354309
1733511868723051500,3.957051513671875,0.5168094635009766,-0.0707647055387497,0.5590968132019043
1733511868733126700,3.967126708984375,0.45221468806266785,0.031526338309049606,0.5174903869628906
1733511868743201500,3.977201416015625,0.358847975730896,0.09699296206235886,0.4132830500602722
1733511868753275600,3.987275634765625,0.2576574981212616,0.11103122681379318,0.24815644323825836
1733511868763350500,3.9973505859375,0.17483480274677277,0.04740564152598381,0.036739274859428406
1733511868773425700,4.00742578125,0.12576879560947418,-0.12142395973205566,-0.1780121624469757
1733511868783500500,4.01750048828125,0.11009769886732101,-0.405920147895813,-0.36431625485420227
1733511868793574700,4.02757470703125,0.1206735223531723,-0.738450825214386,-0.5029446482658386
1733511868803649500,4.0376494140625,0.1358058750629425,-1.0040260553359985,-0.5706424713134766
1733511868813724400,4.047724365234375,0.1214069053530693,-1.1828243732452393,-0.5509710311889648
1733511868823799600,4.057799560546875,0.056359197944402695,-1.2986279726028442,-0.49154016375541687
1733511868833874400,4.06787451171875,-0.06390172243118286,-1.3516690731048584,-0.45587536692619324
1733511868843948500,4.077948486328125,-0.23951749503612518,-1.3408271074295044,-0.4665128290653229
1733511868854023400,4.0880234375,-0.40241894125938416,-1.2049453258514404,-0.45829349756240845
1733511868864098600,4.0980986328125,-0.46436166763305664,-0.7428975105285645,-0.11761582642793655
1733511868874173700,4.108173583984375,-0.37375566363334656,0.23999381065368652,0.7146975994110107
1733511868884247600,4.11824755859375,-0.20202866196632385,1.440603494644165,1.6867791414260864
1733511868894322700,4.12832275390625,-0.03095230832695961,2.4389734268188477,2.3840670585632324
1733511868904397600,4.1383974609375,0.08693277835845947,3.0582330226898193,2.7599635124206543
1733511868914472700,4.14847265625,0.150031179189682,3.393979787826538,2.8873021602630615
1733511868924547600,4.158547607421875,0.15680253505706787,3.4964654445648193,2.8860397338867188
1733511868934621700,4.16862158203125,0.1652337908744812,3.440887689590454,2.9420580863952637
1733511868944696600,4.178696533203125,0.21951673924922943,3.379934072494507,3.1282107830047607
1733511868954771500,4.188771484375,0.32394808530807495,3.327468156814575,3.3719794750213623
1733511868964846600,4.1988466796875,0.41632649302482605,3.287332057952881,3.5539181232452393
1733511868974920400,4.20892041015625,0.39132413268089294,3.091559410095215,3.5600712299346924
1733511868984995600,4.21899560546875,0.26367244124412537,2.685948133468628,3.3548946380615234
1733511868995070500,4.229070556640625,0.07356619834899902,2.231454849243164,3.0353996753692627
1733511869005145600,4.2391455078125,-0.10478010773658752,1.7993016242980957,2.5993943214416504
1733511869015219500,4.249219482421875,-0.262441486120224,1.5813180208206177,2.0070717334747314
1733511869025294600,4.259294677734375,-0.39580005407333374,1.611832857131958,1.3898171186447144
1733511869035369700,4.26936962890625,-0.47580164670944214,1.6467037200927734,0.8433154225349426
1733511869045444600,4.279444580078125,-0.5475373268127441,1.5389373302459717,0.33469638228416443
1733511869055519500,4.28951953125,-0.5750941634178162,1.1721351146697998,-0.11186352372169495
1733511869065593600,4.299593505859375,-0.5809797048568726,0.6433793306350708,-0.4298572242259979
1733511869075668500,4.30966845703125,-0.6078467965126038,0.07073505967855453,-0.6026021838188171
1733511869085743600,4.31974365234375,-0.6870667934417725,-0.43880701065063477,-0.6433283090591431
1733511869095818500,4.329818603515625,-0.7993375062942505,-0.8239604830741882,-0.5988699197769165
1733511869105892600,4.339892578125,-0.8985029458999634,-1.0472888946533203,-0.5013050436973572
1733511869115967500,4.349967529296875,-0.9803141951560974,-1.0678693056106567,-0.3785380423069
1733511869126042600,4.360042724609375,-1.0408178567886353,-0.8332251310348511,-0.2465272843837738
1733511869136117500,4.370117431640625,-1.0647659301757812,-0.44692230224609375,-0.09829086810350418
1733511869146192600,4.380192626953125,-1.046734094619751,0.07620774954557419,0.022996148094534874
1733511869156266500,4.3902666015625,-0.9937261939048767,0.6647917032241821,0.12049412727355957
1733511869166341600,4.400341552734375,-0.9608114361763,1.1670100688934326,0.200805202126503
1733511869176416500,4.41041650390625,-0.9553263187408447,1.479315161705017,0.23608948290348053
1733511869186491400,4.420491455078125,-0.9723689556121826,1.5644385814666748,0.2181384414434433
1733511869196566500,4.43056640625,-0.9810293912887573,1.5020946264266968,0.12389840185642242
1733511869206640400,4.440640380859375,-0.9634512066841125,1.411583662033081,-0.054695576429367065
1733511869216715500,4.450715576171875,-0.9045490026473999,1.3781663179397583,-0.28175997734069824
1733511869226790700,4.460790771484375,-0.7870708703994751,1.363760232925415,-0.5137122273445129
1733511869236865500,4.470865478515625,-0.6465754508972168,1.3113784790039062,-0.7115663290023804
1733511869246939600,4.480939697265625,-0.5026856660842896,1.2675821781158447,-0.8386126756668091
1733511869257014500,4.4910146484375,-0.37343737483024597,1.2232000827789307,-0.9002360105514526
1733511869267089700,4.501089599609375,-0.2495843917131424,1.191367506980896,-0.9426298141479492
1733511869277164500,4.51116455078125,-0.12311434000730515,1.154971957206726,-1.0115426778793335
1733511869287238700,4.52123876953125,0.005155745428055525,1.1392486095428467,-1.1405779123306274
1733511869297313500,4.5313134765625,0.09170626103878021,1.1637884378433228,-1.3366985321044922
1733511869307388700,4.541388671875,0.12954045832157135,1.199921727180481,-1.6309384107589722
1733511869317463600,4.551463623046875,0.09230615198612213,1.2585667371749878,-2.180428981781006
1733511869327538400,4.561538330078125,0.041193168610334396,1.5628312826156616,-2.879993200302124
1733511869337612500,4.571612548828125,0.010086232796311378,1.9587969779968262,-1.0444163084030151
1733511869347687400,4.5816875,-0.05332309752702713,1.0428506135940552,0.7707348465919495
1733511869357762600,4.591762451171875,-0.15350551903247833,0.05952778086066246,1.3388913869857788
1733511869367837700,4.601837646484375,-0.1433173269033432,-0.4138927757740021,1.230770230293274
1733511869377911600,4.61191162109375,-0.04797934740781784,-0.5478020906448364,1.0014880895614624
1733511869387986700,4.621986572265625,0.02345728501677513,-0.5437756776809692,0.7507893443107605
1733511869398061600,4.6320615234375,0.055998481810092926,-0.46996989846229553,0.516950786113739
1733511869408136700,4.64213671875,0.06650731712579727,-0.3142860233783722,0.31591087579727173
1733511869418211600,4.652211669921875,0.08455254137516022,-0.1544632762670517,0.06810910254716873
1733511869428285700,4.66228564453125,0.10144363343715668,0.128492534160614,-0.09830677509307861
1733511869438360600,4.672360595703125,0.1632385551929474,0.5870805978775024,0.09264747053384781
1733511869448435500,4.682435546875,0.2630053758621216,1.142430067062378,0.531806468963623
1733511869458510600,4.692510498046875,0.3806324303150177,1.6509822607040405,0.9090986847877502
1733511869468585500,4.70258544921875,0.5091981291770935,1.9986296892166138,0.9831811785697937
1733511869478659600,4.71265966796875,0.6568084955215454,2.042400360107422,0.5922816395759583
1733511869488734500,4.722734375,0.8506352305412292,1.6414618492126465,-0.3581957221031189
1733511869498809600,4.7328095703125,0.9693596959114075,0.911930501461029,-1.0266834497451782
1733511869508884700,4.742884765625,0.7501887679100037,0.2918110489845276,-0.7332826852798462
1733511869518958600,4.75295849609375,0.24481624364852905,0.004103463608771563,-0.12829023599624634
1733511869529033700,4.76303369140625,-0.1884467750787735,-0.12057987600564957,0.30160602927207947
1733511869539108600,4.773108642578125,-0.33506518602371216,-0.15682849287986755,0.47221001982688904
1733511869549183500,4.78318359375,-0.2867937684059143,-0.14320269227027893,0.47835710644721985
1733511869559257600,4.793257568359375,-0.16910870373249054,-0.07096098363399506,0.3796907365322113
1733511869569332500,4.80333251953125,-0.05347638204693794,0.0030498565174639225,0.17672085762023926
1733511869579407400,4.813407470703125,-0.024032559245824814,0.1529960334300995,-0.09217306226491928
1733511869589482800,4.823482666015625,-0.036977387964725494,0.33395621180534363,-0.4401629865169525
1733511869599557600,4.8335576171875,-0.024488700553774834,0.3696771562099457,-0.7945629954338074
1733511869609631700,4.8436318359375,0.028867200016975403,0.2445858269929886,-1.0420955419540405
1733511869619706600,4.85370654296875,0.06767789274454117,0.04713781177997589,-1.2299087047576904
1733511869629781800,4.86378173828125,0.0648655891418457,-0.1320900022983551,-1.3649290800094604
1733511869639857000,4.87385693359375,0.0624786913394928,-0.15880104899406433,-1.3928799629211426
1733511869649931800,4.883931884765625,0.07103196531534195,-0.0429101400077343,-1.3067117929458618
1733511869660006000,4.894005859375,0.060415416955947876,0.10341151058673859,-1.1410802602767944
1733511869670080800,4.904080810546875,0.0012703416869044304,0.25388967990875244,-0.9706758260726929
1733511869680155600,4.91415576171875,-0.10202397406101227,0.36210897564888,-0.8300959467887878
1733511869690230800,4.924230712890625,-0.22695951163768768,0.3692646324634552,-0.7566872239112854
1733511869700304600,4.9343046875,-0.3488308787345886,0.06321319192647934,-0.9409165382385254
1733511869710379800,4.9443798828125,-0.42990151047706604,-0.7577072381973267,-1.5068309307098389
1733511869720454700,4.95445458984375,-0.44770869612693787,-1.7454167604446411,-2.1337482929229736
1733511869730529800,4.96452978515625,-0.4304855167865753,-2.3845479488372803,-2.502619743347168
1733511869740604700,4.974604736328125,-0.41596484184265137,-2.562192678451538,-2.5174150466918945
1733511869750678800,4.9846787109375,-0.4273402690887451,-2.423154830932617,-2.247241735458374
1733511869760753700,4.994753662109375,-0.4457379877567291,-2.1032474040985107,-1.847475528717041
1733511869770828800,5.004828857421875,-0.4619837999343872,-1.7136353254318237,-1.4649014472961426
1733511869780904000,5.014904052734375,-0.4710128605365753,-1.3570743799209595,-1.2172906398773193
1733511869790977800,5.024977783203125,-0.468790203332901,-1.1070525646209717,-1.1536389589309692
1733511869801053000,5.035052978515625,-0.4306764602661133,-0.9355902075767517,-1.1924535036087036
1733511869811127600,5.04512744140625,-0.36174291372299194,-0.7750875949859619,-1.210415005683899
1733511869821202700,5.05520263671875,-0.2764332890510559,-0.635479748249054,-1.1362743377685547
1733511869831277800,5.06527783203125,-0.17840632796287537,-0.5434741973876953,-0.9696615934371948
1733511869841351700,5.0753515625,-0.07502149790525436,-0.4849628210067749,-0.7504070401191711
1733511869851426800,5.0854267578125,0.00746272224932909,-0.4262065887451172,-0.517147958278656
1733511869861501700,5.095501708984375,0.06708214432001114,-0.3508244752883911,-0.3011794984340668
1733511869871576800,5.105576904296875,0.1202944964170456,-0.2362358421087265,-0.114386186003685
1733511869881650700,5.115650634765625,0.16486285626888275,-0.10501184314489365,0.0445733442902565
1733511869891725800,5.125725830078125,0.20650696754455566,0.0370776504278183,0.18347929418087006
1733511869901800700,5.13580078125,0.22092843055725098,0.15307514369487762,0.2988888919353485
1733511869911875800,5.145875732421875,0.21929298341274261,0.2213660478591919,0.3838050961494446
1733511869921950700,5.15595068359375,0.20857934653759003,0.2216542512178421,0.4359283149242401
1733511869932024800,5.16602490234375,0.18251286447048187,0.1350112408399582,0.4560199975967407
1733511869942099700,5.176099609375,0.1711510866880417,-0.005475378129631281,0.4496650993824005
1733511869952174600,5.186174560546875,0.15038295090198517,-0.16236725449562073,0.4219954013824463
1733511869962249700,5.196249755859375,0.12963107228279114,-0.32465070486068726,0.3761863708496094
1733511869972324900,5.206324951171875,0.14208267629146576,-0.454934686422348,0.2984505593776703
1733511869982398700,5.216398681640625,0.19367444515228271,-0.5230944752693176,0.20143884420394897
1733511869992473900,5.226473876953125,0.24657121300697327,-0.5152477622032166,0.08937089890241623
1733511870002548700,5.236548828125,0.2675221860408783,-0.4880210757255554,-0.023733608424663544
1733511870012624000,5.246623779296875,0.2905108630657196,-0.4696474075317383,-0.11660575866699219
1733511870022697700,5.25669775390625,0.3013516366481781,-0.4703923761844635,-0.18677373230457306
1733511870032772900,5.26677294921875,0.2989196479320526,-0.4844546616077423,-0.23161309957504272
1733511870042847700,5.27684765625,0.28967031836509705,-0.5220649838447571,-0.2607775628566742
1733511870052922600,5.286922607421875,0.27030834555625916,-0.60016268491745,-0.280744343996048
1733511870062997800,5.296997802734375,0.22949840128421783,-0.6875115633010864,-0.31211328506469727
1733511870073071600,5.307071533203125,0.16119790077209473,-0.7663395404815674,-0.36914166808128357
1733511870083146800,5.317146728515625,0.08172941207885742,-0.860817551612854,-0.46220287680625916
1733511870093221600,5.3272216796875,0.029333319514989853,-0.97662353515625,-0.6174667477607727
1733511870103296800,5.337296875,0.007909664884209633,-1.1337931156158447,-0.8483222723007202
1733511870113370600,5.34737060546875,0.018228881061077118,-1.328423023223877,-1.1268870830535889
1733511870123445800,5.35744580078125,0.05138112232089043,-1.5093830823898315,-1.3642172813415527
1733511870133521000,5.36752099609375,0.12470140308141708,-1.6148163080215454,-1.487568974494934
1733511870143595800,5.377595703125,0.22713331878185272,-1.6316187381744385,-1.4735429286956787
1733511870153671000,5.3876708984375,0.3060201108455658,-1.6219171285629272,-1.3799954652786255
1733511870163744800,5.397744873046875,0.3103662431240082,-1.6308372020721436,-1.2400349378585815
1733511870173820000,5.40781982421875,0.1998181790113449,-1.6346455812454224,-0.864496648311615
1733511870183894500,5.41789453125,-0.04208316653966904,-1.2454018592834473,0.04823271557688713
1733511870193969700,5.4279697265625,-0.2599635720252991,-0.2392476499080658,1.3072212934494019
1733511870204043500,5.43804345703125,-0.35207948088645935,1.0452706813812256,2.4012317657470703
1733511870214118700,5.44811865234375,-0.3514123857021332,2.173743486404419,2.9900083541870117
1733511870224193800,5.45819384765625,-0.330390602350235,3.0790035724639893,3.163719415664673
1733511870234268700,5.4682685546875,-0.29149699211120605,3.781959295272827,3.178692579269409
1733511870244343800,5.47834375,-0.19925841689109802,4.31839656829834,3.1488025188446045
1733511870254417700,5.488417724609375,-0.04660816490650177,4.689628601074219,3.0997493267059326
1733511870264492800,5.498492919921875,0.16562293469905853,4.870604038238525,3.1080474853515625
1733511870274568000,5.50856787109375,0.3853089511394501,4.746721267700195,3.175382614135742
1733511870284642800,5.518642822265625,0.5222434997558594,4.090514183044434,3.2747559547424316
1733511870294717700,5.5287177734375,0.531240701675415,2.996290922164917,3.254547119140625
1733511870304791800,5.538791748046875,0.4481183588504791,1.7353764772415161,3.0485219955444336
1733511870314866700,5.54886669921875,0.32259586453437805,0.5454882979393005,2.716886520385742
1733511870324941600,5.558941650390625,0.24014291167259216,-0.2867823839187622,2.3570644855499268
1733511870335016700,5.5690166015625,0.14446485042572021,-0.4584638774394989,1.9133777618408203
1733511870345090600,5.579090576171875,0.03785449266433716,-0.0044371807016432285,1.4188299179077148
1733511870355165700,5.589165771484375,-0.09125209599733353,0.8294491171836853,1.0160664319992065
1733511870365240800,5.59924072265625,-0.2237381488084793,1.7700128555297852,0.7386663556098938
1733511870375315700,5.609315673828125,-0.2957074046134949,2.4459245204925537,0.5681047439575195
1733511870385390800,5.619390869140625,-0.2764144241809845,2.641160011291504,0.3751855790615082
1733511870395464700,5.629464599609375,-0.15985427796840668,2.2519896030426025,0.07639168947935104
1733511870405539800,5.639539794921875,-0.027768107131123543,1.5082151889801025,-0.24953673779964447
1733511870415614700,5.64961474609375,0.017519479617476463,0.7512024641036987,-0.47733449935913086
1733511870425689600,5.659689697265625,-0.04712677747011185,0.1571647822856903,-0.5827344655990601
1733511870435763700,5.669763671875,-0.20191848278045654,-0.21649828553199768,-0.5710751414299011
1733511870445838600,5.679838623046875,-0.4037921726703644,-0.4421437084674835,-0.46497005224227905
1733511870455913700,5.689913818359375,-0.5988572835922241,-0.5214252471923828,-0.32143232226371765
1733511870465988600,5.699988525390625,-0.7934162616729736,-0.3802751302719116,-0.1949082911014557
1733511870476063700,5.710063720703125,-0.979447603225708,-0.002466031350195408,-0.07360130548477173
1733511870486137600,5.7201376953125,-1.1286816596984863,0.5332362055778503,0.053938403725624084
1733511870496212700,5.730212646484375,-1.2137502431869507,1.099703311920166,0.19878800213336945
1733511870506287900,5.740287841796875,-1.2607131004333496,1.6588574647903442,0.3188289701938629
1733511870516362800,5.75036279296875,-1.296899437904358,2.1283302307128906,0.3941847085952759
1733511870526437600,5.760437744140625,-1.3311841487884521,2.3717074394226074,0.44964542984962463
1733511870536511700,5.77051171875,-1.3577113151550293,2.3652398586273193,0.4962422251701355
1733511870546586600,5.780586669921875,-1.3778458833694458,2.1759033203125,0.5053392052650452
1733511870556661800,5.790661865234375,-1.3834770917892456,1.9184318780899048,0.4595828950405121
1733511870566736600,5.800736572265625,-1.3603854179382324,1.6254169940948486,0.3387422263622284
1733511870576810800,5.810810791015625,-1.3175013065338135,1.3180253505706787,0.13003934919834137
1733511870586885600,5.8208857421875,-1.254778504371643,1.042553424835205,-0.14992675185203552
1733511870596960800,5.830960693359375,-1.1787892580032349,0.7738457322120667,-0.4567524492740631
1733511870607036000,5.841035888671875,-1.0879429578781128,0.5222734212875366,-0.744504451751709
1733511870617111000,5.851111083984375,-0.9625664353370667,0.3086676597595215,-0.9886891841888428
1733511870627185000,5.861184814453125,-0.8014154434204102,0.18497750163078308,-1.183984637260437
1733511870637260000,5.871260009765625,-0.6369473934173584,0.12455757707357407,-1.3459665775299072
1733511870647335000,5.8813349609375,-0.4807202219963074,0.13175815343856812,-1.5049225091934204
1733511870657409800,5.891409912109375,-0.3402278423309326,0.29294946789741516,-1.6521449089050293
1733511870667484000,5.90148388671875,-0.1826924830675125,0.8739955425262451,-1.6905522346496582
1733511870677558800,5.911558837890625,0.020572228357195854,1.841327428817749,-1.6111016273498535
1733511870687633700,5.921633544921875,0.22672459483146667,2.74003005027771,-1.1994432210922241
1733511870697708800,5.931708740234375,0.3537730872631073,2.739004135131836,-0.7132053971290588
1733511870707784000,5.941783935546875,0.4296625256538391,2.034586191177368,-0.30546823143959045
1733511870717857800,5.95185791015625,0.4343089461326599,0.9882587194442749,0.04225137084722519
1733511870727933000,5.961932861328125,0.3846077024936676,-0.06734034419059753,0.2729254961013794
1733511870738007800,5.9720078125,0.37450259923934937,-0.8560269474983215,0.28791749477386475
1733511870748083000,5.9820830078125,0.4180356562137604,-1.2522724866867065,0.14556556940078735
1733511870758158000,5.992157958984375,0.5212256908416748,-1.3252828121185303,-0.01721295528113842
1733511870768232000,6.00223193359375,0.6058151125907898,-1.2096000909805298,-0.12496845424175262
1733511870778307000,6.01230712890625,0.6286963820457458,-0.9791010022163391,-0.11243828386068344
1733511870788381700,6.022381591796875,0.5156115293502808,-0.8634960055351257,0.1300879269838333
1733511870798456800,6.032456787109375,0.3775681257247925,-0.399122953414917,0.19235342741012573
1733511870808530700,6.04253076171875,0.2299865484237671,0.6949062943458557,0.013835152611136436
1733511870818605800,6.052605712890625,0.035195492208004,1.8751894235610962,0.1229643002152443
1733511870828680700,6.0626806640625,-0.15200120210647583,2.702160358428955,0.5860646963119507
1733511870838755800,6.072755859375,-0.27198219299316406,3.1783199310302734,1.0959181785583496
1733511870848831000,6.0828310546875,-0.28787827491760254,3.2834973335266113,1.4022279977798462
1733511870858904800,6.09290478515625,-0.19307801127433777,2.963249444961548,1.2655508518218994
1733511870868980000,6.10297998046875,-0.029520874843001366,2.2784643173217773,0.49360793828964233
1733511870879054800,6.113054931640625,0.18105100095272064,1.519025444984436,-0.29104506969451904
1733511870889130000,6.1231298828125,0.22943103313446045,0.772805392742157,-0.37358132004737854
1733511870899204900,6.133204833984375,-0.025441745296120644,0.15855927765369415,-0.09291583299636841
1733511870909279000,6.143279052734375,-0.33970582485198975,-0.28157827258110046,0.15401895344257355
1733511870919353900,6.153353759765625,-0.5422344207763672,-0.44649186730384827,0.2239317148923874
1733511870929428700,6.1634287109375,-0.572678804397583,-0.43075188994407654,0.14963151514530182
1733511870939503900,6.17350390625,-0.5046603679656982,-0.35629841685295105,-0.0021058148704469204
1733511870949577700,6.18357763671875,-0.42877039313316345,-0.2869001626968384,-0.2248818278312683
1733511870959652900,6.19365283203125,-0.3715878129005432,-0.27520594000816345,-0.5490726828575134
1733511870969727700,6.203727783203125,-0.2998247444629669,-0.29069238901138306,-0.9062011241912842
1733511870979803000,6.213802978515625,-0.18024642765522003,-0.4992575943470001,-1.2300193309783936
1733511870989878000,6.2238779296875,-0.02583119086921215,-0.800025999546051,-1.4611897468566895
1733511870999952000,6.233951904296875,0.1098262369632721,-0.9501587748527527,-1.5407003164291382
1733511871010027000,6.244027099609375,0.23450540006160736,-0.8786090612411499,-1.4493829011917114
1733511871020102000,6.254101806640625,0.300152063369751,-0.5797773599624634,-1.2490205764770508
1733511871030176800,6.2641767578125,0.29874125123023987,-0.08289265632629395,-1.0228991508483887
1733511871040252000,6.274251953125,0.2531130611896515,0.5166533589363098,-0.7931068539619446
1733511871050325800,6.28432568359375,0.16826564073562622,1.144504427909851,-0.6035366654396057
1733511871060401000,6.29440087890625,0.06548813730478287,1.5954127311706543,-0.5318989753723145
1733511871070475800,6.304475830078125,-0.056952331215143204,1.8194111585617065,-0.5615135431289673
1733511871080551000,6.314551025390625,-0.17846810817718506,1.8193055391311646,-0.6324702501296997
1733511871090624800,6.324624755859375,-0.2741949260234833,1.6625102758407593,-0.7687933444976807
1733511871100700000,6.334699951171875,-0.29284799098968506,1.2240458726882935,-1.1757097244262695
1733511871110774800,6.34477490234375,-0.24076099693775177,0.3372032940387726,-1.9641797542572021
1733511871120850000,6.354849853515625,-0.2017720490694046,-0.654149055480957,-2.670088291168213
1733511871130925000,6.364925048828125,-0.2081221491098404,-1.342376947402954,-2.9211466312408447
1733511871140999000,6.3749990234375,-0.25913339853286743,-1.7081443071365356,-2.7134838104248047
1733511871151074000,6.385073974609375,-0.3008076548576355,-1.8139300346374512,-2.237356185913086
1733511871161148700,6.395148681640625,-0.3009471893310547,-1.754633903503418,-1.6871792078018188
1733511871171223800,6.405223876953125,-0.2626956105232239,-1.6501491069793701,-1.2163726091384888
1733511871181299000,6.415298828125,-0.19761115312576294,-1.5834788084030151,-0.9109506607055664
1733511871191372800,6.425372802734375,-0.14072194695472717,-1.5639715194702148,-0.752076268196106
1733511871201448000,6.435447998046875,-0.11248285323381424,-1.5174005031585693,-0.6563140153884888
1733511871211522800,6.445522705078125,-0.12192754447460175,-1.3752939701080322,-0.5443923473358154
1733511871221598000,6.455597900390625,-0.13468942046165466,-1.1325409412384033,-0.3947860598564148
1733511871231672800,6.4656728515625,-0.12770189344882965,-0.8328537344932556,-0.21008946001529694
1733511871241747000,6.475746826171875,-0.07415717840194702,-0.5206303596496582,-0.007051651366055012
1733511871251821800,6.48582177734375,-0.005803861655294895,-0.2367401123046875,0.1981964409351349
1733511871261897000,6.49589697265625,0.05533459037542343,0.001715869177132845,0.3825194239616394
1733511871271971800,6.505971923828125,0.08561550080776215,0.19043122231960297,0.5373637676239014
1733511871282046000,6.5160458984375,0.0748363584280014,0.314290851354599,0.6476418375968933
1733511871292120800,6.526120849609375,0.038516879081726074,0.35507139563560486,0.6964902877807617
1733511871302195700,6.53619580078125,-0.010736418887972832,0.30529531836509705,0.6826536059379578
1733511871312270800,6.546270751953125,-0.05136217549443245,0.15622729063034058,0.6127409934997559
1733511871322346000,6.556345947265625,-0.07035984098911285,-0.06945856660604477,0.49452805519104004
1733511871332419800,6.566419921875,-0.07069803029298782,-0.3488258421421051,0.35376253724098206
1733511871342495000,6.576494873046875,-0.05806213244795799,-0.6328079700469971,0.20966261625289917
1733511871352569900,6.58656982421875,-0.041129808872938156,-0.899865984916687,0.06405489146709442
1733511871362645000,6.59664501953125,-0.022533489391207695,-1.154133915901184,-0.06708262115716934
1733511871372719900,6.606719970703125,0.01726483926177025,-1.4077837467193604,-0.17288650572299957
1733511871382794000,6.6167939453125,0.07851462066173553,-1.6165993213653564,-0.27864009141921997
1733511871392868900,6.626868896484375,0.1403728574514389,-1.7481186389923096,-0.3666926324367523
1733511871402943700,6.63694384765625,0.20635133981704712,-1.7782083749771118,-0.42950382828712463
1733511871413019000,6.647018798828125,0.2636607885360718,-1.6994965076446533,-0.4531410038471222
1733511871423092700,6.6570927734375,0.30302152037620544,-1.508023977279663,-0.4328130781650543
1733511871433168000,6.66716796875,0.33142516016960144,-1.2520824670791626,-0.38170814514160156
1733511871443242800,6.67724267578125,0.3464435338973999,-1.0147546529769897,-0.3062187135219574
1733511871453318000,6.68731787109375,0.34276098012924194,-0.8150129914283752,-0.2196759581565857
1733511871463393000,6.69739306640625,0.3458172082901001,-0.6339084506034851,-0.1377057284116745
1733511871473467000,6.707466796875,0.36639583110809326,-0.4762216806411743,-0.10417015850543976
1733511871483542000,6.7175419921875,0.39787814021110535,-0.3834802806377411,-0.17711228132247925
1733511871493617000,6.727616943359375,0.4182809591293335,-0.3808433413505554,-0.37479549646377563
1733511871503692000,6.737692138671875,0.4068695902824402,-0.49185559153556824,-0.6969607472419739
1733511871513766700,6.7477666015625,0.339711993932724,-0.6855064034461975,-1.062730073928833
1733511871523841000,6.757841064453125,0.268353670835495,-0.8760460019111633,-1.3431124687194824
1733511871533915600,6.76791552734375,0.21408207714557648,-0.9892058372497559,-1.4473167657852173
1733511871543990800,6.77799072265625,0.170914888381958,-1.0200879573822021,-1.3765848875045776
1733511871554066000,6.78806591796875,0.1472013145685196,-0.9990310072898865,-1.2230405807495117
1733511871564139800,6.798139892578125,0.140933558344841,-0.9899634718894958,-1.0771123170852661
1733511871574215000,6.80821484375,0.13406488299369812,-1.0120567083358765,-0.9721741080284119
1733511871584289800,6.818289794921875,0.10061851143836975,-1.021009922027588,-0.8048357367515564
1733511871594364700,6.82836474609375,0.038179270923137665,-0.9181322455406189,-0.43351036310195923
1733511871604439600,6.838439453125,-0.0568750724196434,-0.5844131708145142,0.20102451741695404
1733511871614513700,6.848513671875,-0.16046439111232758,-0.012415519915521145,1.0027978420257568
1733511871624588500,6.858588623046875,-0.2453305423259735,0.6799443364143372,1.7416473627090454
1733511871634663700,6.86866357421875,-0.2932622730731964,1.3662716150283813,2.2572038173675537
1733511871644738600,6.878738525390625,-0.3282841742038727,1.9900561571121216,2.552478075027466
1733511871654813400,6.8888134765625,-0.33394742012023926,2.5481386184692383,2.724534273147583
1733511871664887600,6.898887451171875,-0.28057020902633667,3.0060229301452637,2.854506492614746
1733511871674962400,6.90896240234375,-0.17789079248905182,3.3291831016540527,2.9765450954437256
1733511871685037600,6.91903759765625,-0.07209005951881409,3.5261855125427246,3.086524486541748
1733511871695112400,6.929112548828125,0.03147277981042862,3.548848867416382,3.2121150493621826
1733511871705187600,6.9391875,0.14278411865234375,3.294689655303955,3.3707730770111084
1733511871715261400,6.949261474609375,0.2214430868625641,2.822965145111084,3.468367099761963
1733511871725336600,6.959336669921875,0.25697553157806396,2.2834980487823486,3.4631612300872803
1733511871735411700,6.96941162109375,0.23446758091449738,1.662987232208252,3.3697142601013184
1733511871745486600,6.979486572265625,0.20762266218662262,0.9115473031997681,3.1832711696624756
1733511871755560700,6.989560791015625,0.2102748155593872,0.27305692434310913,2.9014618396759033
1733511871765635600,6.999635498046875,0.1981896609067917,0.06332285702228546,2.452453374862671
1733511871775710500,7.00971044921875,0.1173776239156723,0.36478468775749207,1.8586390018463135
1733511871785785600,7.01978564453125,-0.02067185379564762,0.9940590262413025,1.278713583946228
1733511871795860500,7.029860595703125,-0.17722776532173157,1.634837031364441,0.7913268208503723
1733511871805934600,7.0399345703125,-0.2730371057987213,2.0259664058685303,0.37790197134017944
1733511871816009500,7.050009521484375,-0.2530587911605835,1.982740044593811,-0.004789493978023529
1733511871826084600,7.060084716796875,-0.1272963434457779,1.4845483303070068,-0.34865179657936096
1733511871836159500,7.070159423828125,-0.02091684192419052,0.8157758712768555,-0.6106091737747192
1733511871846234600,7.080234619140625,0.00427559670060873,0.17438070476055145,-0.7384582161903381
1733511871856308500,7.09030859375,-0.07392948865890503,-0.38012054562568665,-0.7361698746681213
1733511871866383600,7.100383544921875,-0.21948322653770447,-0.7901203036308289,-0.6359103918075562
1733511871876458800,7.110458740234375,-0.3971441686153412,-0.993501603603363,-0.47790706157684326
1733511871886533400,7.120533447265625,-0.59571373462677,-0.9229997396469116,-0.28701967000961304
1733511871896607700,7.130607666015625,-0.8092622756958008,-0.5705457329750061,-0.06613828241825104
1733511871906682400,7.140682373046875,-0.9935125112533569,0.0014104046858847141,0.1693967580795288
1733511871916757500,7.150757568359375,-1.1023988723754883,0.6674407124519348,0.3861706554889679
1733511871926832600,7.16083251953125,-1.1555407047271729,1.3206603527069092,0.531600832939148
1733511871936907500,7.170907470703125,-1.1588221788406372,1.8586713075637817,0.5901349782943726
1733511871946981600,7.180981689453125,-1.1213933229446411,2.1489012241363525,0.5923254489898682
1733511871957056500,7.191056396484375,-1.0942422151565552,2.1798813343048096,0.5230920910835266
1733511871967131600,7.201131591796875,-1.0718955993652344,2.0070090293884277,0.4133003354072571
1733511871977206500,7.21120654296875,-1.0413384437561035,1.7085667848587036,0.2717237174510956
1733511871987281700,7.22128173828125,-0.9983454942703247,1.3663073778152466,0.07091044634580612
1733511871997355500,7.23135546875,-0.9480828642845154,1.0510789155960083,-0.19470350444316864
1733511872007430700,7.2414306640625,-0.8942694664001465,0.7832313179969788,-0.47378814220428467
1733511872017505500,7.251505615234375,-0.8178490400314331,0.5643083453178406,-0.7112458348274231
1733511872027580400,7.261580322265625,-0.7053877711296082,0.3624032139778137,-0.9074201583862305
1733511872037655600,7.271655517578125,-0.5698586702346802,0.1521005630493164,-1.0721737146377563
1733511872047729400,7.2817294921875,-0.41537347435951233,-0.0371447317302227,-1.2293864488601685
1733511872057804500,7.291804443359375,-0.27086660265922546,-0.14369285106658936,-1.357454776763916
1733511872067879700,7.301879638671875,-0.17672891914844513,-0.1241961121559143,-1.4767860174179077
1733511872077954600,7.31195458984375,-0.1398732215166092,0.07832220941781998,-1.5743390321731567
1733511872088028700,7.322028564453125,-0.11124131083488464,0.5758653879165649,-1.3555371761322021
1733511872098103600,7.332103515625,-0.14277048408985138,0.7762123942375183,-0.7079565525054932
1733511872108178700,7.3421787109375,-0.13020090758800507,0.3293246328830719,-0.2315039485692978
1733511872118253600,7.352253662109375,-0.02255134843289852,-0.22791363298892975,-0.04456544667482376
1733511872128328400,7.362328369140625,0.17881612479686737,-0.47701188921928406,-0.09282459318637848
1733511872138402600,7.372402587890625,0.39529746770858765,-0.33465415239334106,-0.28304556012153625
1733511872148477400,7.3824775390625,0.5902440547943115,0.09657233953475952,-0.5102677941322327
1733511872158552600,7.392552490234375,0.7097124457359314,0.362684428691864,-0.744652509689331
1733511872168627500,7.40262744140625,0.7410753965377808,0.10304459929466248,-0.9358664155006409
1733511872178702600,7.41270263671875,0.7475716471672058,-0.6015702486038208,-1.029170274734497
1733511872188776400,7.4227763671875,0.7220766544342041,-1.3342727422714233,-0.9723140001296997
1733511872198851600,7.4328515625,0.6179994940757751,-1.6849663257598877,-0.7378949522972107
1733511872208926700,7.4429267578125,0.37136706709861755,-1.6809751987457275,-0.2461172640323639
1733511872219001600,7.453001708984375,0.11467952281236649,-0.9447202682495117,0.10941845923662186
1733511872229076700,7.46307666015625,-0.19420188665390015,0.5226513743400574,0.10858488827943802
1733511872239150600,7.473150634765625,-0.5157431364059448,2.119579315185547,0.06079096719622612
1733511872249225700,7.483225830078125,-0.7620974779129028,3.3303182125091553,0.2462116926908493
1733511872259300400,7.49330029296875,-0.8640209436416626,3.9425699710845947,0.5967629551887512
1733511872269375500,7.50337548828125,-0.8018079996109009,3.9414660930633545,0.8526778221130371
1733511872279450600,7.51345068359375,-0.6249825954437256,3.2417688369750977,0.6771504282951355
1733511872289524500,7.5235244140625,-0.3733460605144501,1.9174134731292725,-0.018613696098327637
1733511872299599600,7.533599609375,-0.12597115337848663,0.49914923310279846,-0.5308247804641724
1733511872309674500,7.543674560546875,-0.08968718349933624,-0.7482407689094543,-0.37251558899879456
1733511872319749600,7.55374951171875,-0.39934828877449036,-1.677797555923462,0.09668361395597458
1733511872329823500,7.563823486328125,-0.7083135843276978,-2.222350835800171,0.3976373076438904
1733511872339898600,7.573898681640625,-0.7479904294013977,-2.4552783966064453,0.4430561661720276
1733511872349973800,7.583973876953125,-0.5565122961997986,-2.5241620540618896,0.3318875730037689
1733511872360048600,7.594048583984375,-0.28742724657058716,-2.5177547931671143,0.18228410184383392
1733511872370123500,7.60412353515625,-0.07906975597143173,-2.4768810272216797,0.044227421283721924
1733511872380197600,7.61419775390625,0.03751636669039726,-2.3604183197021484,-0.04082281515002251
1733511872390272500,7.6242724609375,0.07429835200309753,-2.0597496032714844,-0.08242778480052948
1733511872400347400,7.634347412109375,0.08933328092098236,-1.380346417427063,-0.10058463364839554
1733511872410422500,7.644422607421875,0.17128486931324005,-0.4337356984615326,-0.1298740804195404
1733511872420497700,7.65449755859375,0.31516122817993164,0.4271602928638458,-0.16055473685264587
1733511872430571500,7.664571533203125,0.4983305037021637,1.0550354719161987,-0.22192195057868958
1733511872440646700,7.674646728515625,0.6833871603012085,1.4327682256698608,-0.30565184354782104
1733511872450721500,7.684721435546875,0.804977536201477,1.6231123208999634,-0.45877909660339355
1733511872460796700,7.694796630859375,0.822555661201477,1.8303378820419312,-0.5880566835403442
1733511872470870500,7.70487060546875,0.7457205057144165,2.157763957977295,-0.6630533933639526
1733511872480945700,7.714945556640625,0.5873839855194092,2.5829460620880127,-0.690136730670929
1733511872491020800,7.725020751953125,0.3764462172985077,2.882622241973877,-0.6928784847259521
1733511872501095400,7.735095458984375,0.17023120820522308,2.986985206604004,-0.7209586501121521
1733511872511170600,7.745170654296875,0.00548567995429039,2.9144039154052734,-0.7910909056663513
1733511872521244400,7.755244384765625,-0.055984318256378174,2.5760207176208496,-0.852088451385498
1733511872531319600,7.765319580078125,-0.04777006059885025,1.9270168542861938,-1.0357332229614258
1733511872541394400,7.77539453125,-0.05212533846497536,0.5487033724784851,-1.7897554636001587
1733511872551469600,7.785469482421875,-0.12919455766677856,-1.1975566148757935,-2.7461791038513184
1733511872561544700,7.795544677734375,-0.20470257103443146,-2.5142529010772705,-3.2756941318511963
1733511872571618600,7.80561865234375,-0.23310305178165436,-3.180082321166992,-3.2678985595703125
1733511872581693700,7.815693603515625,-0.2626964747905731,-3.3086166381835938,-2.8587148189544678
1733511872591769000,7.82576904296875,-0.29030999541282654,-3.1102981567382812,-2.27504301071167
1733511872601843700,7.83584375,-0.282235324382782,-2.8183891773223877,-1.7475759983062744
1733511872611918800,7.8459189453125,-0.23016494512557983,-2.627455949783325,-1.43905508518219
1733511872621992700,7.85599267578125,-0.1484706997871399,-2.5591697692871094,-1.3566434383392334
1733511872632067800,7.86606787109375,-0.0736374706029892,-2.4963622093200684,-1.3612792491912842
1733511872642143000,7.87614306640625,-0.00876525416970253,-2.3106563091278076,-1.3104110956192017
1733511872652217900,7.8862177734375,0.0345396064221859,-1.976204514503479,-1.1369497776031494
1733511872662293000,7.89629296875,0.05996883660554886,-1.5160702466964722,-0.8591917157173157
1733511872672366800,7.906366943359375,0.050205156207084656,-0.9795926809310913,-0.5542376637458801
1733511872682442000,7.91644189453125,0.01822768896818161,-0.44886377453804016,-0.2845056354999542
1733511872692517000,7.92651708984375,-0.01907680556178093,-0.01954035647213459,-0.11454188078641891
1733511872702592000,7.936592041015625,-0.040254611521959305,0.2616271376609802,-0.025618527084589005
1733511872712667000,7.9466669921875,-0.05153362825512886,0.4277505874633789,0.0436532236635685
1733511872722741000,7.956740966796875,-0.052589401602745056,0.5341491103172302,0.1414484828710556
1733511872732816000,7.96681591796875,-0.03598512336611748,0.5924068093299866,0.2865358889102936
1733511872742890800,7.976890869140625,-0.0026587850879877806,0.6088781356811523,0.44707193970680237
1733511872752966000,7.9869658203125,0.04689465090632439,0.5713850855827332,0.5719206929206848
1733511872763039700,7.997039794921875,0.08633287250995636,0.47959521412849426,0.6293386816978455
1733511872773115000,8.007114990234374,0.11062037199735641,0.35633721947669983,0.623462975025177
1733511872783190000,8.01718994140625,0.13598769903182983,0.22775661945343018,0.5930446982383728
1733511872793265000,8.027264892578126,0.14907075464725494,0.11005235463380814,0.5785320401191711
1733511872803340000,8.037340087890625,0.1604674756526947,0.026701072230935097,0.6116850972175598
1733511872813414000,8.047413818359376,0.15322953462600708,-0.02641993574798107,0.6811507344245911
1733511872823489000,8.057489013671875,0.10741004347801208,-0.06944672763347626,0.731787919998169
1733511872833564200,8.067564208984376,0.022612333297729492,-0.14617878198623657,0.7350886464118958
1733511872843638800,8.077638671875,-0.08148273825645447,-0.2883610725402832,0.6657786965370178
1733511872853714000,8.0877138671875,-0.1734427511692047,-0.4882888197898865,0.545329213142395
1733511872863787800,8.097787841796874,-0.2303149402141571,-0.6723997592926025,0.428384929895401
1733511872873863000,8.10786279296875,-0.22429805994033813,-0.7855846285820007,0.34359413385391235
1733511872883937800,8.117937744140624,-0.18316201865673065,-0.8170051574707031,0.3217976689338684
1733511872894013000,8.128012939453125,-0.1336730271577835,-0.7146795988082886,0.3563916087150574
1733511872904088000,8.138088134765624,-0.09892808645963669,-0.4686078131198883,0.43740177154541016
1733511872914162000,8.148161865234375,-0.060395609587430954,-0.10210410505533218,0.5604866743087769
1733511872924237000,8.158237060546876,-0.010376600548624992,0.30134767293930054,0.6551294922828674
1733511872934312000,8.16831201171875,0.04885982722043991,0.7365201711654663,0.7354158163070679
1733511872944387000,8.178386962890626,0.1163104698061943,1.2444350719451904,0.8259980082511902
1733511872954462000,8.1884619140625,0.1911516934633255,1.7075364589691162,0.9582542777061462
1733511872964536000,8.1985361328125,0.2566925883293152,2.022796154022217,1.105891227722168
1733511872974611000,8.20861083984375,0.28242993354797363,2.1958749294281006,1.2898011207580566
1733511872984685800,8.218685791015625,0.27853700518608093,2.2494962215423584,1.5268467664718628
1733511872994761000,8.228760986328124,0.2739611566066742,2.281724214553833,1.823094129562378
1733511873004835800,8.2388359375,0.25612375140190125,2.1212730407714844,2.1382875442504883
1733511873014910000,8.248909912109376,0.2694621980190277,1.8377442359924316,2.40476131439209
1733511873024984800,8.25898486328125,0.28695520758628845,1.5128740072250366,2.569891929626465
1733511873035060000,8.26906005859375,0.304435133934021,1.2026854753494263,2.579380750656128
1733511873045135000,8.279135009765625,0.313864141702652,0.9640465378761292,2.4753522872924805
1733511873055210000,8.2892099609375,0.3247407376766205,0.8230473399162292,2.323629379272461
1733511873065284000,8.2992841796875,0.3108908236026764,0.7928876876831055,2.1428515911102295
1733511873075359000,8.30935888671875,0.25893309712409973,0.9168703556060791,1.8771700859069824
1733511873085433900,8.319433837890625,0.2062632441520691,1.097102165222168,1.5145460367202759
1733511873095509000,8.329509033203125,0.1521960198879242,1.2442785501480103,1.0988487005233765
1733511873105582800,8.339582763671874,0.08238451927900314,1.3384162187576294,0.6850969791412354
1733511873115658000,8.349657958984375,0.007339297793805599,1.4162676334381104,0.2943454384803772
1733511873125732900,8.35973291015625,-0.057760655879974365,1.3898255825042725,-0.01143651083111763
1733511873135808000,8.36980810546875,-0.13054299354553223,1.2043827772140503,-0.19961068034172058
1733511873145883000,8.3798828125,-0.21783268451690674,0.8969904184341431,-0.31048595905303955
1733511873155957000,8.38995703125,-0.3151949346065521,0.5009501576423645,-0.37666526436805725
1733511873166032000,8.400031982421876,-0.41566845774650574,0.07295291125774384,-0.41501447558403015
1733511873176107000,8.41010693359375,-0.5063376426696777,-0.31945908069610596,-0.4488914906978607
1733511873186182100,8.42018212890625,-0.5908905863761902,-0.632905900478363,-0.4831404983997345
1733511873196256800,8.4302568359375,-0.6580155491828918,-0.852659285068512,-0.5092291235923767
1733511873206331100,8.4403310546875,-0.736893355846405,-0.9640101194381714,-0.531394898891449
1733511873216405800,8.45040576171875,-0.8358774781227112,-0.9732968211174011,-0.5508596897125244
1733511873226481000,8.46048095703125,-0.9134913086891174,-0.8473314046859741,-0.5414632558822632
1733511873236556000,8.47055615234375,-0.9568694233894348,-0.6014313697814941,-0.5026751160621643
1733511873246631000,8.480630859375,-0.9641656875610352,-0.3061400055885315,-0.4343253970146179
1733511873256705000,8.490705078125,-0.9228634834289551,0.008954545482993126,-0.34648314118385315
1733511873266780000,8.50077978515625,-0.8232995271682739,0.31117090582847595,-0.25812646746635437
1733511873276855000,8.51085498046875,-0.7081830501556396,0.5364937782287598,-0.20406590402126312
1733511873286930000,8.520929931640625,-0.590873122215271,0.623720645904541,-0.20159387588500977
1733511873297005000,8.531005126953126,-0.459322065114975,0.575911819934845,-0.24193543195724487
1733511873307079000,8.541078857421875,-0.3297806978225708,0.4629632532596588,-0.3065855801105499
1733511873317154000,8.551154052734375,-0.20499084889888763,0.3360612392425537,-0.38899657130241394
1733511873327229000,8.56122900390625,-0.08489695936441422,0.19895613193511963,-0.45685896277427673
1733511873337303800,8.5713037109375,0.036422811448574066,0.059832863509655,-0.508578896522522
1733511873347379000,8.58137890625,0.14314605295658112,-0.04799533262848854,-0.5469470620155334
1733511873357452800,8.591452880859375,0.2231351137161255,-0.09785418957471848,-0.5780960917472839
1733511873367528000,8.60152783203125,0.2863284647464752,-0.08994191884994507,-0.6002593040466309
1733511873377603000,8.61160302734375,0.35179322957992554,-0.05396261811256409,-0.627062976360321
1733511873387678000,8.621677978515624,0.41548827290534973,0.025172458961606026,-0.6667035818099976
1733511873397753000,8.631753173828125,0.48630839586257935,0.16576392948627472,-0.7184399962425232
1733511873407827000,8.641826904296876,0.5539911389350891,0.3742019832134247,-0.7873379588127136
1733511873417902000,8.651902099609375,0.618022620677948,0.6116651892662048,-0.8551436066627502
1733511873427977000,8.66197705078125,0.6642311215400696,0.8346849679946899,-0.8810036182403564
1733511873438051800,8.6720517578125,0.6513088941574097,0.9955995678901672,-0.8022243976593018
1733511873448126000,8.6821259765625,0.5894052386283875,1.0558350086212158,-0.6565039157867432
1733511873458200800,8.692200927734374,0.4927210211753845,0.9782480597496033,-0.46448439359664917
1733511873468276000,8.70227587890625,0.3260219395160675,0.6678627729415894,-0.17966702580451965
1733511873478350800,8.712350830078124,0.04843828082084656,0.19719621539115906,0.19490844011306763
1733511873488426000,8.722426025390625,-0.3099559545516968,-0.2102198600769043,0.4857684373855591
1733511873498499800,8.732499755859376,-0.5894744396209717,-0.26410147547721863,0.5658614039421082
1733511873508575000,8.742574951171875,-0.7708944082260132,-0.08217913657426834,0.5425273180007935
1733511873518650000,8.752650146484376,-0.8947388529777527,0.04082322120666504,0.5204920768737793
1733511873528725000,8.76272509765625,-0.96661376953125,-0.061026278883218765,0.5378022789955139
1733511873538800000,8.772800048828126,-1.006515383720398,-0.3166303336620331,0.5670363306999207
1733511873548874000,8.7828740234375,-0.9961939454078674,-0.5842263102531433,0.6124162077903748
1733511873558949000,8.79294921875,-0.913297712802887,-0.6956731677055359,0.6752433776855469
1733511873569023700,8.803023681640624,-0.7646419405937195,-0.6534181237220764,0.7506330609321594
1733511873579099000,8.813098876953125,-0.5576131343841553,-0.5189313888549805,0.7873844504356384
1733511873589174000,8.823174072265624,-0.2276621162891388,-0.3507128059864044,0.7414537072181702
1733511873599248100,8.833248046875,0.1489780992269516,-0.17536386847496033,0.5927004218101501
1733511873609323000,8.843322998046874,0.36416757106781006,0.004571022931486368,0.3244314193725586
1733511873619398100,8.853398193359375,0.34381091594696045,0.13358654081821442,-0.06381086260080338
1733511873629473000,8.86347314453125,0.28500163555145264,0.1983967274427414,-0.41451531648635864
1733511873639548200,8.873548095703125,0.3289152979850769,0.2503725588321686,-0.5780131816864014
1733511873649622000,8.8836220703125,0.44960588216781616,0.32343387603759766,-0.5875950455665588
1733511873659697200,8.893697265625,0.546384871006012,0.44793903827667236,-0.5010934472084045
1733511873669772000,8.90377197265625,0.5776165723800659,0.6248735785484314,-0.3667740821838379
1733511873679847000,8.913846923828125,0.5462304353713989,0.8180936574935913,-0.259546160697937
1733511873689922000,8.923922119140625,0.46912550926208496,0.9908929467201233,-0.19644802808761597
1733511873699996000,8.933995849609374,0.39732882380485535,1.2138389348983765,-0.1706065684556961
1733511873710071000,8.944071044921875,0.3527803421020508,1.5016162395477295,-0.16559264063835144
1733511873720146200,8.954146240234374,0.3370586335659027,1.8421868085861206,-0.18555381894111633
1733511873730221000,8.964220947265625,0.3644852340221405,2.19392728805542,-0.2546611726284027
1733511873740296200,8.974296142578124,0.4404423236846924,2.462325096130371,-0.3559134900569916
1733511873750370000,8.9843701171875,0.5532750487327576,2.6502420902252197,-0.46371304988861084
1733511873760445200,8.994445068359376,0.6585031747817993,2.7376184463500977,-0.553818941116333
1733511873770520000,9.00452001953125,0.7125818729400635,2.6909470558166504,-0.6704421043395996
1733511873780595000,9.014594970703126,0.7066621780395508,2.498180627822876,-0.8777074217796326
1733511873790670000,9.024670166015625,0.6496676206588745,2.0634570121765137,-1.167824387550354
1733511873800744000,9.034743896484375,0.5489910244941711,1.3824682235717773,-1.4499428272247314
1733511873810819000,9.044819091796874,0.42593374848365784,0.5815430283546448,-1.6102392673492432
1733511873820894000,9.05489404296875,0.3022059500217438,-0.10777651518583298,-1.5793650150299072
1733511873830969000,9.064968994140624,0.19003905355930328,-0.5731464624404907,-1.3675450086593628
1733511873841044000,9.0750439453125,0.07442457228899002,-0.8656497001647949,-1.0817809104919434
1733511873851118000,9.0851181640625,-0.023024871945381165,-1.0921255350112915,-0.8302063345909119
1733511873861193200,9.095193115234375,-0.07695335149765015,-1.2769526243209839,-0.6631981730461121
1733511873871268000,9.10526806640625,-0.1275664120912552,-1.4072157144546509,-0.5847234129905701
1733511873881343200,9.11534326171875,-0.23341748118400574,-1.4375991821289062,-0.5508434772491455
1733511873891417900,9.12541796875,-0.3768394887447357,-1.336271047592163,-0.5206327438354492
1733511873901492200,9.1354921875,-0.5276415348052979,-1.1393353939056396,-0.4993557035923004
1733511873911566800,9.14556689453125,-0.6522748470306396,-0.8813146352767944,-0.49944812059402466
1733511873921642000,9.15564208984375,-0.7239394783973694,-0.6082636713981628,-0.5250155329704285
1733511873931717000,9.165717041015625,-0.7374345660209656,-0.35402971506118774,-0.5630201101303101
1733511873941792000,9.1757919921875,-0.7114629149436951,-0.12746262550354004,-0.5862612724304199
1733511873951866000,9.1858662109375,-0.6548182368278503,0.05740920454263687,-0.577491819858551
1733511873961941000,9.19594091796875,-0.5930297374725342,0.203629270195961,-0.5401673913002014
1733511873972016000,9.20601611328125,-0.5575645565986633,0.3197925388813019,-0.4752156436443329
1733511873982091000,9.216091064453124,-0.5369288325309753,0.3960005044937134,-0.37985771894454956
1733511873992166100,9.226166259765625,-0.5260295271873474,0.42118728160858154,-0.2663956880569458
1733511874002240300,9.236240234375,-0.5136522650718689,0.3792467415332794,-0.14538350701332092
1733511874012315100,9.246315185546875,-0.4836861491203308,0.26927611231803894,-0.041661638766527176
1733511874022390000,9.25639013671875,-0.450162798166275,0.09867002815008163,0.022229190915822983
1733511874032465000,9.26646484375,-0.40506914258003235,-0.12833797931671143,0.02738259732723236
1733511874042540000,9.2765400390625,-0.34755179286003113,-0.38357028365135193,-0.037145793437957764
1733511874052614000,9.28661376953125,-0.28150445222854614,-0.6260984539985657,-0.1728363037109375
1733511874062689000,9.29668896484375,-0.2151845544576645,-0.862555742263794,-0.3445255160331726
1733511874072764200,9.30676416015625,-0.14663927257061005,-1.0469956398010254,-0.5249763131141663
1733511874082839000,9.316839111328125,-0.08905959129333496,-1.1798583269119263,-0.6897844076156616
1733511874092914200,9.3269140625,-0.04071076214313507,-1.2764755487442017,-0.8225023150444031
1733511874102988000,9.336988037109375,0.01456661056727171,-1.3714848756790161,-0.9217471480369568
1733511874113063200,9.347063232421876,0.0744566023349762,-1.5521347522735596,-1.006400465965271
1733511874123138000,9.357137939453125,0.14879634976387024,-1.8187869787216187,-1.0535333156585693
1733511874133213000,9.367212890625,0.2316490113735199,-2.0851080417633057,-1.057447075843811
1733511874143287300,9.377287353515625,0.31520727276802063,-2.30338191986084,-1.0147664546966553
1733511874153362000,9.38736181640625,0.4041544795036316,-2.4562504291534424,-0.9424173831939697
1733511874163437000,9.39743701171875,0.5215804576873779,-2.4963266849517822,-0.8298991322517395
1733511874173512000,9.407511962890625,0.6410290598869324,-2.3535475730895996,-0.637460470199585
1733511874183587000,9.417587158203125,0.7284470200538635,-1.9604381322860718,-0.3487529754638672
1733511874193661000,9.427660888671875,0.8018251657485962,-1.2669872045516968,0.0014927536249160767
1733511874203736000,9.437736083984374,0.8581870198249817,-0.38088458776474,0.30216842889785767
1733511874213811200,9.447811279296875,0.8684408664703369,0.4844418168067932,0.44492068886756897
1733511874223886000,9.457885986328124,0.861714243888855,1.183536171913147,0.3729173541069031
1733511874233961200,9.467961181640625,0.8060731887817383,1.699048399925232,0.22994042932987213
1733511874244035000,9.47803515625,0.6612664461135864,2.081430196762085,0.19652947783470154
1733511874254110200,9.488110107421875,0.41799333691596985,2.341219186782837,0.3172931969165802
1733511874264184800,9.498184814453126,0.15736600756645203,2.452949285507202,0.522966742515564
1733511874274260000,9.508260009765625,-0.014221801422536373,2.3676154613494873,0.720292329788208
1733511874284335000,9.518335205078126,-0.08240644633769989,2.0373077392578125,0.8193289041519165
1733511874294409000,9.528408935546874,-0.08749380707740784,1.5108126401901245,0.8063420057296753
1733511874304484000,9.538484130859375,-0.09047868102788925,0.9068923592567444,0.7258710861206055
1733511874314559000,9.54855908203125,-0.08934483677148819,0.34664323925971985,0.6229674816131592
1733511874324634000,9.558634033203125,-0.06402190029621124,-0.09204170107841492,0.5169539451599121
1733511874334709200,9.568709228515624,-0.03596295788884163,-0.36815547943115234,0.41548967361450195
1733511874344783000,9.578783203125,-0.03699653223156929,-0.5003337264060974,0.3153417706489563
1733511874354858200,9.588858154296876,-0.08693373203277588,-0.5128556489944458,0.19406619668006897
1733511874364933000,9.59893310546875,-0.14205051958560944,-0.4566536545753479,0.04615449905395508
1733511874375008000,9.609008056640626,-0.1609886884689331,-0.3475801646709442,-0.15303581953048706
1733511874385083000,9.619082763671875,-0.1534269154071808,-0.19515947997570038,-0.35271722078323364
1733511874395157000,9.629156982421875,-0.12421892583370209,-0.003676683409139514,-0.4847105145454407
1733511874405231900,9.63923193359375,-0.09418406337499619,0.26443997025489807,-0.5309962034225464
1733511874415307000,9.64930712890625,-0.0687873512506485,0.6266058683395386,-0.49374181032180786
1733511874425382100,9.659382080078124,-0.032414697110652924,1.1132515668869019,-0.32376155257225037
1733511874435457000,9.66945703125,0.06864999234676361,1.659929633140564,0.040985189378261566
1733511874445531100,9.67953125,0.19388887286186218,2.169086456298828,0.5894424319267273
1733511874455606000,9.68960595703125,0.26350340247154236,2.6082894802093506,1.254853367805481
1733511874465681200,9.69968115234375,0.2653561532497406,2.8665380477905273,1.8521056175231934
1733511874475756300,9.70975634765625,0.2323143482208252,2.955315589904785,2.2887933254241943
1733511874485831000,9.719830810546876,0.17881223559379578,2.9679956436157227,2.612550973892212
1733511874495905300,9.7299052734375,0.11955435574054718,2.950251579284668,2.8735129833221436
1733511874505980000,9.73997998046875,0.06933565437793732,2.89581298828125,3.097964286804199
1733511874516055000,9.750054931640625,0.004823191091418266,2.7640089988708496,3.2990450859069824
1733511874526130000,9.7601298828125,-0.06194918230175972,2.530282497406006,3.422084093093872
1733511874536205000,9.770205078125,-0.15669582784175873,2.1861824989318848,3.4554736614227295
1733511874546279000,9.78027880859375,-0.31156158447265625,1.7079572677612305,3.3459887504577637
1733511874556354000,9.79035400390625,-0.46564894914627075,1.1143749952316284,3.0042026042938232
1733511874566429200,9.80042919921875,-0.5325602889060974,0.44321209192276,2.446655035018921
1733511874576504000,9.810504150390624,-0.566418468952179,-0.04495920613408089,1.7185426950454712
1733511874586579200,9.8205791015625,-0.623722493648529,-0.18586306273937225,1.0153361558914185
1733511874596653600,9.830653564453126,-0.6984183192253113,-0.10781123489141464,0.4854015111923218
1733511874606728200,9.840728271484375,-0.7815622091293335,0.05217337608337402,0.14149020612239838
1733511874616803300,9.85080322265625,-0.8209107518196106,0.14672249555587769,-0.07703685760498047
1733511874626878200,9.860878173828125,-0.817375123500824,0.10150840133428574,-0.2646277844905853
1733511874636953300,9.870953369140626,-0.7676160931587219,-0.04210812598466873,-0.4272717237472534
1733511874647027200,9.881027099609375,-0.6889484524726868,-0.18140104413032532,-0.5245205163955688
1733511874657102300,9.891102294921875,-0.6151444315910339,-0.23086854815483093,-0.5586939454078674
1733511874667177500,9.901177490234375,-0.6000978350639343,-0.1368349939584732,-0.5376174449920654
1733511874677252400,9.91125244140625,-0.6450654864311218,0.1371871381998062,-0.471152663230896
1733511874687327500,9.921327392578124,-0.7404546141624451,0.5374727845191956,-0.36567097902297974
1733511874697401300,9.9314013671875,-0.8490852117538452,0.9697434902191162,-0.25624343752861023
1733511874707476500,9.9414765625,-0.9425100088119507,1.3635225296020508,-0.17741017043590546
1733511874717551400,9.95155126953125,-1.0206236839294434,1.695089340209961,-0.12235678732395172
1733511874727626200,9.961626220703126,-1.0739846229553223,1.9425736665725708,-0.08981961756944656
1733511874737701400,9.971701416015625,-1.094241976737976,2.038412094116211,-0.07629259675741196
1733511874747776300,9.9817763671875,-1.075934886932373,1.9429841041564941,-0.09386466443538666
1733511874757850400,9.991850341796875,-1.011812448501587,1.6441285610198975,-0.16360601782798767
1733511874767925200,10.00192529296875,-0.9287601113319397,1.1797963380813599,-0.29750868678092957
1733511874778000400,10.01200048828125,-0.8584181666374207,0.6300838589668274,-0.496620237827301
1733511874788075500,10.022075439453126,-0.8003828525543213,0.10689549148082733,-0.7659446597099304
1733511874798149400,10.0321494140625,-0.7291920781135559,-0.3057331442832947,-1.1000423431396484
1733511874808224500,10.042224609375,-0.6313174366950989,-0.5678712725639343,-1.4582172632217407
1733511874818299400,10.05229931640625,-0.523663341999054,-0.44465264678001404,-1.7256889343261719
1733511874828374300,10.062374267578125,-0.3467431962490082,0.4074701964855194,-1.6913427114486694
1733511874838449200,10.07244921875,-0.11022025346755981,1.499354362487793,-0.9860017895698547
1733511874848523300,10.082523193359375,0.00859641470015049,1.592595100402832,-0.4922839105129242
1733511874858598400,10.092598388671876,0.26274359226226807,1.1707669496536255,-0.2543720602989197
1733511874868673300,10.10267333984375,0.6658015251159668,0.634829044342041,-0.1329473853111267
1733511874878748400,10.11274853515625,1.0481821298599243,0.26682260632514954,-0.012401005253195763
1733511874888823300,10.1228232421875,1.2236714363098145,0.10647235810756683,0.06510630249977112
1733511874898898400,10.1328984375,1.1485788822174072,0.05266232416033745,0.07823387533426285
1733511874908972300,10.14297216796875,0.9583788514137268,-0.007248680107295513,0.044391486793756485
1733511874919047400,10.15304736328125,0.7561544179916382,-0.05490067973732948,-0.07752372324466705
1733511874929122600,10.16312255859375,0.5829570889472961,0.004430817440152168,-0.285824179649353
1733511874939197200,10.173197265625,0.47968700528144836,0.22449520230293274,-0.48125433921813965
1733511874949272300,10.183272216796874,0.4090519845485687,0.6482951641082764,-0.5882644653320312
1733511874959346200,10.19334619140625,0.33324146270751953,1.166815161705017,-0.5937334895133972
1733511874969421300,10.20342138671875,0.2613787353038788,1.697019100189209,-0.4736848473548889
1733511874979496200,10.21349609375,0.18903116881847382,2.2223997116088867,-0.22874228656291962
1733511874989571300,10.2235712890625,0.10019131004810333,2.649793863296509,0.11057426035404205
1733511874999645400,10.2336455078125,-0.028970321640372276,2.782339572906494,0.4900371730327606
1733511875009720300,10.24372021484375,-0.16270974278450012,2.4803950786590576,0.7414933443069458
1733511875019795500,10.25379541015625,-0.2441481202840805,1.8520779609680176,0.6465240716934204
1733511875029870300,10.263870361328125,-0.2720519006252289,1.1117721796035767,0.23233380913734436
1733511875039945500,10.273945556640625,-0.3290025591850281,0.427686870098114,-0.19047732651233673
1733511875050020400,10.284020263671875,-0.47138527035713196,-0.18981577455997467,-0.4199638068675995
1733511875060094500,10.294094482421874,-0.6558300256729126,-0.7155729532241821,-0.47560152411460876
1733511875070169300,10.30416943359375,-0.8078043460845947,-1.1532869338989258,-0.4701622724533081
1733511875080244200,10.314244140625,-0.8405994772911072,-1.56577730178833,-0.4805469214916229
1733511875090319400,10.3243193359375,-0.7558539509773254,-1.963326334953308,-0.5252347588539124
1733511875100394200,10.334394287109374,-0.582624614238739,-2.248159885406494,-0.5821255445480347
1733511875110468400,10.34446826171875,-0.40828606486320496,-2.4703445434570312,-0.5900657773017883
1733511875120543200,10.354543212890626,-0.25813060998916626,-2.677500009536743,-0.5371242761611938
1733511875130618400,10.364618408203125,-0.1628730595111847,-2.843705654144287,-0.448399156332016
1733511875140693500,10.374693603515626,-0.08823587745428085,-2.918761968612671,-0.3409164547920227
1733511875150768400,10.384768310546875,-0.008510954678058624,-2.884474754333496,-0.23020540177822113
1733511875160842500,10.394842529296875,0.07415084540843964,-2.7455248832702637,-0.1391325294971466
1733511875170917400,10.40491748046875,0.1833348572254181,-2.5002665519714355,-0.10033772140741348
1733511875180992300,10.4149921875,0.3323620855808258,-2.138822555541992,-0.11489833891391754
1733511875191067400,10.4250673828125,0.49145933985710144,-1.6322115659713745,-0.1543773114681244
1733511875201142300,10.435142333984375,0.6098882555961609,-0.9923447966575623,-0.19356174767017365
1733511875211216400,10.44521630859375,0.6794703006744385,-0.28646886348724365,-0.21735364198684692
1733511875221291300,10.455291259765625,0.7165839672088623,0.3638034462928772,-0.19080327451229095
1733511875231366400,10.465366455078126,0.7347339391708374,0.9739933013916016,-0.11348584294319153
1733511875241441300,10.475441162109375,0.7464646100997925,1.4961966276168823,-0.023104026913642883
1733511875251516400,10.485516357421876,0.7625951170921326,1.9014018774032593,0.04834378883242607
1733511875261590300,10.49559033203125,0.7693124413490295,2.218057155609131,0.06557422131299973
1733511875271665400,10.50566552734375,0.7470217943191528,2.4350666999816895,0.022608112543821335
1733511875281740500,10.515740478515625,0.7005065679550171,2.516663074493408,-0.10035629570484161
1733511875291815200,10.525815185546875,0.6323105096817017,2.408783435821533,-0.29053181409835815
1733511875301890300,10.535890380859374,0.5424745082855225,2.098172903060913,-0.5461491346359253
1733511875311964200,10.545964111328125,0.4393489360809326,1.5695574283599854,-0.8080862164497375
1733511875322039300,10.556039306640624,0.33041876554489136,0.9232715368270874,-1.0009262561798096
1733511875332114400,10.566114501953125,0.2307315617799759,0.2751300632953644,-1.0830382108688354
1733511875342189300,10.576189208984376,0.13531401753425598,-0.30714672803878784,-1.0527585744857788
1733511875352264400,10.586264404296875,0.04803317040205002,-0.7859609723091125,-0.923920214176178
1733511875362338300,10.59633837890625,-0.009277657605707645,-1.1320370435714722,-0.7320672273635864
1733511875372413400,10.606413330078125,-0.048714011907577515,-1.3804094791412354,-0.541490375995636
1733511875382488300,10.61648828125,-0.0785016417503357,-1.584749698638916,-0.4229491949081421
1733511875392563500,10.6265634765625,-0.14092373847961426,-1.7590221166610718,-0.4139612913131714
1733511875402638300,10.636638427734376,-0.23379117250442505,-1.870985507965088,-0.5208328366279602
1733511875412712400,10.64671240234375,-0.29770010709762573,-1.9340111017227173,-0.6953418254852295
1733511875422787300,10.656787353515625,-0.3013906180858612,-1.908691644668579,-0.8701544404029846
1733511875432862200,10.6668623046875,-0.2613774240016937,-1.796640157699585,-0.9833454489707947
1733511875442937300,10.676937255859375,-0.21125969290733337,-1.6344722509384155,-1.022180438041687
1733511875453012500,10.687012451171874,-0.1955859214067459,-1.454757809638977,-1.0088454484939575
1733511875463086300,10.69708642578125,-0.19497868418693542,-1.2777397632598877,-0.9734785556793213
1733511875473161500,10.707161376953126,-0.18376171588897705,-1.1133848428726196,-0.9341396689414978
1733511875483236400,10.717236328125,-0.1384531408548355,-0.9614100456237793,-0.9049192667007446
1733511875493311500,10.7273115234375,-0.061548758298158646,-0.8315942287445068,-0.9008012413978577
1733511875503386400,10.737386474609375,0.0292205773293972,-0.7177959084510803,-0.9284069538116455
1733511875513460500,10.74746044921875,0.11882023513317108,-0.6315529346466064,-0.9647787809371948
1733511875523535400,10.757535400390625,0.2205640822649002,-0.5688613057136536,-0.9631377458572388
1733511875533610200,10.7676103515625,0.3082776963710785,-0.512050211429596,-0.9142884612083435
1733511875543685400,10.777685302734374,0.34247711300849915,-0.48454710841178894,-0.8485143184661865
1733511875553760300,10.78776025390625,0.316043883562088,-0.5100804567337036,-0.805667519569397
1733511875563834400,10.79783447265625,0.2411184459924698,-0.6574112176895142,-0.8204936385154724
1733511875573909200,10.8079091796875,0.17157451808452606,-0.9304158687591553,-0.8653455376625061
1733511875583984400,10.817984375,0.1688607931137085,-1.17154061794281,-0.8231967687606812
1733511875594059000,10.82805908203125,0.2411581575870514,-1.1694329977035522,-0.5648712515830994
1733511875604134100,10.838134033203126,0.32015547156333923,-0.9540634155273438,-0.13903000950813293
1733511875614208000,10.8482080078125,0.3759734630584717,-0.6391494274139404,0.280057817697525
1733511875624283100,10.858283203125,0.3822435438632965,-0.32971370220184326,0.5219439268112183
1733511875634358300,10.868358154296875,0.2982783317565918,-0.10963141173124313,0.5354093909263611
1733511875644433000,10.878432861328125,0.17368187010288239,0.010145820677280426,0.39713770151138306
1733511875654508000,10.888508056640624,0.06274443119764328,0.08963824808597565,0.2592461407184601
1733511875664583000,10.8985830078125,-0.018376821652054787,0.18379805982112885,0.22952093183994293
1733511875674657000,10.908656982421874,-0.10213004052639008,0.2681853771209717,0.30581197142601013
1733511875684732000,10.91873193359375,-0.20691664516925812,0.32500892877578735,0.4495628774166107
1733511875694807000,10.92880712890625,-0.3247620761394501,0.343488872051239,0.6075724959373474
1733511875704882200,10.938882080078125,-0.4365331828594208,0.2976592183113098,0.7382174134254456
1733511875714957000,10.94895703125,-0.5172850489616394,0.18356138467788696,0.8009894490242004
1733511875725031200,10.95903125,-0.5451187491416931,0.05631880834698677,0.7568410038948059
1733511875735106000,10.96910595703125,-0.5132620334625244,-0.017115727066993713,0.6370216608047485
1733511875745181200,10.97918115234375,-0.44936758279800415,-0.03553333878517151,0.4868212640285492
1733511875755256000,10.989256103515626,-0.33732253313064575,0.006121166981756687,0.3457048833370209
1733511875765331000,10.9993310546875,-0.18821880221366882,0.1361745446920395,0.23436766862869263
1733511875775405000,11.009405029296875,-0.0778651237487793,0.32733041048049927,0.16600538790225983
1733511875785480000,11.01947998046875,-0.050569530576467514,0.5483652353286743,0.11634040623903275
1733511875795555000,11.02955517578125,-0.07298561930656433,0.7490911483764648,0.076516292989254
1733511875805630000,11.0396298828125,-0.09644664824008942,0.9014793038368225,0.055094487965106964
1733511875815705000,11.049705078125,-0.10020090639591217,0.9975866675376892,0.05688759684562683
1733511875825779000,11.059779052734376,-0.061852551996707916,1.0012032985687256,0.143467515707016
1733511875835854000,11.06985400390625,0.0105137899518013,0.9647257924079895,0.3587111234664917
1733511875845929200,11.07992919921875,0.05960030108690262,0.9691762328147888,0.7324549555778503
1733511875856004000,11.090004150390625,0.010252993553876877,1.0814223289489746,1.295189380645752
1733511875866079000,11.100078857421876,-0.12216678261756897,1.4406483173370361,1.9388370513916016
1733511875876153000,11.110153076171875,-0.23343178629875183,1.9571447372436523,2.4860570430755615
1733511875886228000,11.12022802734375,-0.28557518124580383,2.4390573501586914,2.935126543045044
1733511875896303000,11.13030322265625,-0.305144339799881,2.7700846195220947,3.3222243785858154
1733511875906378000,11.1403779296875,-0.32751384377479553,2.774332046508789,3.572127103805542
1733511875916453000,11.150453125,-0.3278326094150543,2.455136299133301,3.6399574279785156
1733511875926527000,11.16052685546875,-0.34091806411743164,1.9197624921798706,3.5736746788024902
1733511875936602000,11.17060205078125,-0.3624997138977051,1.108392596244812,3.392719030380249
1733511875946677000,11.180677001953125,-0.3715870976448059,0.14261814951896667,3.004948377609253
1733511875956752100,11.190752197265626,-0.42304283380508423,-0.6612676978111267,2.368133306503296
1733511875966827300,11.2008271484375,-0.4955539107322693,-1.165417194366455,1.5775517225265503
1733511875976901000,11.210901123046876,-0.5822131633758545,-1.3948538303375244,0.8093709349632263
1733511875986976300,11.220976318359375,-0.6991380453109741,-1.4111323356628418,0.26264551281929016
1733511875997051000,11.23105078125,-0.763187050819397,-1.2836474180221558,-0.031473979353904724
1733511876007126000,11.2411259765625,-0.7048023343086243,-1.1738317012786865,-0.1331823170185089
1733511876017201000,11.251200927734375,-0.5476606488227844,-1.0721819400787354,-0.1491495668888092
1733511876027275000,11.26127490234375,-0.35635310411453247,-0.9502946138381958,-0.13342289626598358
1733511876037350100,11.27135009765625,-0.1714961677789688,-0.8232461214065552,-0.08452273160219193
1733511876047425000,11.281425048828124,-0.049357861280441284,-0.6856335401535034,-0.004751559812575579
1733511876057500200,11.291500244140625,0.004102700389921665,-0.6005082726478577,0.06625523418188095
1733511876067575000,11.301574951171874,0.028650779277086258,-0.5689267516136169,0.10247203707695007
1733511876077649200,11.311649169921875,0.036748386919498444,-0.5163018703460693,0.10085123777389526
1733511876087724000,11.32172412109375,0.03155740350484848,-0.44204598665237427,0.05242893844842911
1733511876097799200,11.331799072265625,0.019540421664714813,-0.3911239504814148,-0.07046715170145035
1733511876107874000,11.3418740234375,-0.0032344127539545298,-0.34382307529449463,-0.24075154960155487
1733511876117949000,11.351948974609375,-0.03790184482932091,-0.2714628577232361,-0.4188206195831299
1733511876128024000,11.362024169921876,-0.07264432311058044,-0.2128337174654007,-0.5828545093536377
1733511876138098000,11.372097900390624,-0.0899767056107521,-0.24092526733875275,-0.7414103746414185
1733511876148173000,11.382173095703125,-0.07936142385005951,-0.32876208424568176,-0.867956817150116
1733511876158248000,11.392248046875,-0.05151408165693283,-0.4076949954032898,-0.9502285122871399
1733511876168323000,11.402322998046875,-0.02967677265405655,-0.40611323714256287,-0.9918039441108704
1733511876178398200,11.412398193359374,-0.026586174964904785,-0.1347099393606186,-1.0485374927520752
1733511876188472000,11.42247216796875,0.027422349900007248,0.539588987827301,-1.2105334997177124
1733511876198547200,11.432547119140626,0.24585482478141785,1.6090519428253174,-1.562263011932373
1733511876208622000,11.4426220703125,0.7793590426445007,3.089383363723755,-2.5630738735198975
1733511876218697000,11.452697021484376,0.6758952140808105,2.6945977210998535,-0.04124115779995918
1733511876228772000,11.462772216796875,0.4797680675983429,0.5998671054840088,1.8305598497390747
1733511876238846000,11.472845947265625,0.5189527273178101,-0.30408164858818054,1.6716536283493042
1733511876248921000,11.482921142578125,0.42022642493247986,-0.5138473510742188,1.3343356847763062
1733511876258996000,11.492995849609375,0.10064098238945007,-0.26707008481025696,1.062151551246643
1733511876269071000,11.503071044921874,-0.3426532745361328,-0.048126306384801865,0.7882347106933594
1733511876279146000,11.51314599609375,-0.6602027416229248,-0.007552513387054205,0.5863314270973206
1733511876289220000,11.52322021484375,-0.7787953615188599,0.031476497650146484,0.6024035811424255
1733511876299295000,11.533294921875,-0.7681512236595154,0.25710004568099976,0.7677720189094543
1733511876309370000,11.5433701171875,-0.5468629002571106,0.8411884903907776,0.9535185694694519
1733511876319445200,11.5534453125,-0.08004538714885712,1.7140978574752808,1.1064317226409912
1733511876329519900,11.563519775390626,0.454111784696579,2.2299578189849854,1.0768800973892212
1733511876339594200,11.57359423828125,0.9983646869659424,2.3022210597991943,0.8253187537193298
1733511876349668900,11.5836689453125,1.4629594087600708,2.1245498657226562,0.4126029312610626
1733511876359744000,11.593743896484375,1.606923222541809,1.7934014797210693,-0.11947346478700638
1733511876369819100,11.603819091796876,1.3040032386779785,1.3516119718551636,-0.6707029342651367
1733511876379894000,11.61389404296875,0.7612032890319824,0.838784396648407,-1.2569971084594727
1733511876389968100,11.623968017578125,0.3172193765640259,0.25954580307006836,-1.689972162246704
1733511876400043000,11.63404296875,0.009423738345503807,-0.2130582332611084,-1.7089558839797974
1733511876410118100,11.6441181640625,-0.17924951016902924,-0.553777813911438,-1.4880088567733765
1733511876420193000,11.654193115234374,-0.24219092726707458,-0.7646956443786621,-1.2208906412124634
1733511876430268200,11.66426806640625,-0.2069641798734665,-0.8705978393554688,-0.9665068984031677
1733511876440343000,11.674343017578124,-0.1267217993736267,-0.930579423904419,-0.7720479369163513
1733511876450417200,11.684417236328125,-0.032221172004938126,-0.8852739930152893,-0.716983437538147
1733511876460492000,11.694491943359376,0.0617910772562027,-0.8003116846084595,-0.7539694309234619
1733511876470567000,11.70456689453125,0.1462220847606659,-0.8927013278007507,-0.7954702973365784
1733511876480642000,11.71464208984375,0.25226011872291565,-1.0913012027740479,-0.839436411857605
1733511876490717200,11.72471728515625,0.3790893852710724,-1.248551845550537,-0.8671232461929321
1733511876500791000,11.734791015625,0.4891546368598938,-1.3085319995880127,-0.8653256297111511
1733511876510866200,11.7448662109375,0.5521924495697021,-1.2303810119628906,-0.8788360953330994
1733511876520941000,11.754941162109375,0.5595065951347351,-1.0294766426086426,-0.9320319890975952
1733511876531016200,11.76501611328125,0.5328727960586548,-0.7133333086967468,-1.0396184921264648
1733511876541091000,11.775091064453125,0.48062610626220703,-0.41743242740631104,-1.2298710346221924
1733511876551165200,11.785165283203124,0.4607117474079132,-0.34498292207717896,-1.5062061548233032
1733511876561240000,11.795239990234375,0.4845867156982422,-0.4744783341884613,-1.7637927532196045
1733511876571315000,11.80531494140625,0.5145699381828308,-0.6741730570793152,-1.9087287187576294
1733511876581390000,11.81539013671875,0.5193575024604797,-0.897948682308197,-1.8895933628082275
1733511876591465000,11.82546484375,0.468483567237854,-1.1121960878372192,-1.714786410331726
1733511876601539000,11.8355390625,0.3694038391113281,-1.2849234342575073,-1.4662439823150635
1733511876611614000,11.845614013671875,0.25011146068573,-1.4543243646621704,-1.2053203582763672
1733511876621689000,11.855689208984375,0.12849393486976624,-1.5888584852218628,-0.9542471170425415
1733511876631764200,11.86576416015625,0.01949872262775898,-1.5688554048538208,-0.7172559499740601
1733511876641839000,11.875839111328125,-0.07197686284780502,-1.3615224361419678,-0.4735442101955414
1733511876651913200,11.885913330078125,-0.12162716686725616,-0.9930298328399658,-0.24300846457481384
1733511876661988000,11.895988037109374,-0.17679429054260254,-0.51848304271698,-0.05366784334182739
1733511876672063200,11.906063232421875,-0.2674527168273926,-0.007366820704191923,0.08037450909614563
1733511876682137900,11.916137939453124,-0.3569317162036896,0.44943585991859436,0.16067679226398468
1733511876692213000,11.926212890625,-0.4290522336959839,0.8039143681526184,0.20641028881072998
1733511876702288100,11.9362880859375,-0.47590094804763794,1.0417684316635132,0.23682919144630432
1733511876712362000,11.946362060546875,-0.488509863615036,1.147919774055481,0.243879035115242
1733511876722437000,11.95643701171875,-0.4641728103160858,1.1202203035354614,0.22808969020843506
1733511876732512000,11.966511962890625,-0.43060439825057983,0.9902262091636658,0.18766489624977112
1733511876742587100,11.976587158203126,-0.399061918258667,0.8080266118049622,0.1286790817975998
1733511876752662300,11.986662353515625,-0.3873920440673828,0.5948481559753418,0.061992671340703964
1733511876762736000,11.996736083984375,-0.3730123043060303,0.33956366777420044,0.005426597781479359
1733511876772811300,12.006811279296874,-0.34776413440704346,0.06456722319126129,-0.055587053298950195
1733511876782886100,12.01688623046875,-0.30228161811828613,-0.2156657725572586,-0.13024291396141052
1733511876792961000,12.0269609375,-0.24151979386806488,-0.49443483352661133,-0.2467537522315979
1733511876803036000,12.037035888671875,-0.18265913426876068,-0.7471041083335876,-0.4067402184009552
1733511876813110000,12.047110107421876,-0.12675251066684723,-0.9521267414093018,-0.6199216842651367
1733511876823185000,12.057184814453125,-0.08831723034381866,-1.0997687578201294,-0.8557472229003906
1733511876833260000,12.067260009765626,-0.061887480318546295,-1.2125816345214844,-1.0777709484100342
1733511876843335200,12.077335205078125,-0.056232523173093796,-1.323569416999817,-1.2529747486114502
1733511876853410000,12.08741015625,-0.06453792750835419,-1.4789048433303833,-1.395953893661499
1733511876863484200,12.097484130859375,-0.07025307416915894,-1.7487438917160034,-1.5382205247879028
1733511876873559000,12.10755908203125,-0.0238211490213871,-2.1764776706695557,-1.72964346408844
1733511876883634200,12.11763427734375,0.1230228915810585,-2.678271532058716,-1.9259251356124878
1733511876893709000,12.127708984375,0.38097870349884033,-3.1072773933410645,-2.004688262939453
1733511876903784000,12.137783935546874,0.6735131144523621,-3.2575998306274414,-1.8172358274459839
1733511876913858000,12.147858154296875,0.8920284509658813,-2.977689743041992,-1.3673055171966553
1733511876923933000,12.157932861328124,1.040363073348999,-2.393850326538086,-0.8718537092208862
1733511876934008000,12.168008056640625,1.1847032308578491,-1.7453914880752563,-0.5671969652175903
1733511876944083000,12.1780830078125,1.2742983102798462,-1.1649669408798218,-0.5671953558921814
1733511876954158000,12.188157958984375,1.2338546514511108,-0.5405815839767456,-0.7362303137779236
1733511876964233200,12.198233154296876,1.0206007957458496,0.1620447337627411,-0.8813997507095337
1733511876974307000,12.20830712890625,0.6338703036308289,0.8592506051063538,-0.8694154024124146
1733511876984382200,12.21838232421875,0.16490651667118073,1.402968168258667,-0.6488204598426819
1733511876994457000,12.22845703125,-0.29616498947143555,1.5866453647613525,-0.18315109610557556
1733511877004532200,12.2385322265625,-0.6349294185638428,1.4880311489105225,0.575226366519928
1733511877014606800,12.24860693359375,-0.7540452480316162,1.2985666990280151,1.4190601110458374
1733511877024681200,12.25868115234375,-0.7456565499305725,1.098539113998413,2.1378045082092285
1733511877034755800,12.268755859375,-0.7440317273139954,0.9702470898628235,2.5933234691619873
1733511877044831000,12.2788310546875,-0.7837205529212952,0.9462479948997498,2.787046194076538
1733511877054906000,12.288906005859374,-0.8445348143577576,1.0452736616134644,2.787975311279297
1733511877064981000,12.29898095703125,-0.8937569856643677,1.335742473602295,2.6747043132781982
1733511877075055000,12.30905517578125,-0.9145398139953613,1.7542202472686768,2.532923936843872
1733511877085130000,12.3191298828125,-0.8928994536399841,2.1798136234283447,2.416712522506714
1733511877095205000,12.329205078125,-0.7585899233818054,2.4207918643951416,2.436424732208252
1733511877105280300,12.3392802734375,-0.4871458411216736,2.45266056060791,2.591329574584961
1733511877115355100,12.349355224609376,-0.1593978852033615,2.398754835128784,2.733952522277832
1733511877125429200,12.35942919921875,0.11543182283639908,2.2380130290985107,2.859685182571411
1733511877135504100,12.369504150390625,0.2576264441013336,2.0488247871398926,3.026815176010132
1733511877145579000,12.3795791015625,0.2634936571121216,1.8190045356750488,3.2721993923187256
1733511877155654000,12.38965380859375,0.18279285728931427,1.5011311769485474,3.507556438446045
1733511877165729000,12.39972900390625,0.055442627519369125,1.1596380472183228,3.6126303672790527
1733511877175804200,12.40980419921875,-0.07918042689561844,0.915587842464447,3.4017841815948486
1733511877185878000,12.4198779296875,-0.12539052963256836,0.7877888679504395,2.742825508117676
1733511877195953200,12.429953125,-0.13694284856319427,0.7825140357017517,1.775567650794983
1733511877206028000,12.440028076171876,-0.19736571609973907,0.8552683591842651,0.7716704607009888
1733511877216103200,12.450103271484375,-0.33877789974212646,0.9252769351005554,0.02111140638589859
1733511877226178000,12.460177978515626,-0.45292922854423523,0.9111320972442627,-0.3917933702468872
1733511877236252200,12.470252197265625,-0.45297062397003174,0.624478280544281,-0.6315652132034302
1733511877246327000,12.4803271484375,-0.39886850118637085,0.07932577282190323,-0.8432966470718384
1733511877256402000,12.49040185546875,-0.36176368594169617,-0.5806476473808289,-0.9946886301040649
1733511877266477000,12.50047705078125,-0.38798490166664124,-1.1436034440994263,-0.9844642281532288
1733511877276552000,12.510552001953124,-0.48519641160964966,-1.339162826538086,-0.667375922203064
1733511877286626000,12.5206259765625,-0.6062836647033691,-0.9397606253623962,-0.022285843268036842
