time,seconds_elapsed,z,y,x
1733511864803968300,0.03796826171875,0.3099468236595392,-0.0851063871383667,0.6812089706338942
1733511864814043400,0.04804345703125,0.3354647112756967,-0.06694529202580451,0.5742590735431761
1733511864824118000,0.058117919921875,0.2831371426671743,-0.05400222382247448,0.4189111293125897
1733511864834193200,0.068193115234375,0.21714126032069325,-0.04210077362656593,0.2373849338609725
1733511864844267000,0.07826708984375,0.1514332550048828,-0.05405599983632564,0.10055844248794019
1733511864854342100,0.088342041015625,0.1415674022898078,-0.07685586066544055,0.010354293819144367
1733511864864417000,0.0984169921875,0.13641571861505508,-0.0912409443706274,-0.04005860027447342
1733511864874492200,0.1084921875,0.11168722781091928,-0.09043371964097023,-0.052010976940020916
1733511864884566300,0.118566162109375,0.03831774795651435,-0.06302957988679408,-0.04074059118926525
1733511864894641200,0.12864111328125,-0.050379211019724604,-0.02405132219493389,-0.006791413705796003
1733511864904716300,0.13871630859375,-0.1640850851766765,-0.00872106659412384,0.02952697712704539
1733511864914791200,0.148791259765625,-0.2579123927786946,-0.0008493103057146072,0.0566474045690149
1733511864924865300,0.158865234375,-0.3987245927870273,0.000990180081129074,0.0728798697065562
1733511864934940200,0.168940185546875,-0.5582680890113115,0.011082535028457642,0.09541311548873782
1733511864945015300,0.179015380859375,-0.643691871535778,0.03721300158500671,0.15064444271475075
1733511864955090200,0.189090087890625,-0.6607558190613985,0.058199675512313837,0.23270495935119687
1733511864965164300,0.199164306640625,-0.5791375662997365,0.04461012609899044,0.32481669520698486
1733511864975239200,0.2092392578125,-0.5231237103939056,-0.010269465079903601,0.41151334721148014
1733511864985314000,0.21931396484375,-0.5452103083871305,-0.030050270348787305,0.4035715213615447
1733511864995389200,0.22938916015625,-0.5644492618642747,-0.002384264788031578,0.3717194622877985
1733511865005463000,0.239463134765625,-0.56527869842574,0.008913374295830726,0.32632673444375393
1733511865015538200,0.2495380859375,-0.5366097994327544,-0.0034890111595392223,0.3023250966094434
1733511865025613000,0.259613037109375,-0.5402214140586554,-0.02847147672474384,0.282597409767285
1733511865035688200,0.269688232421875,-0.5685422302663325,-0.050562897023558616,0.27342290031723676
1733511865045762300,0.27976220703125,-0.582956247805059,-0.07514554961621761,0.24902897522971032
1733511865055837200,0.289837158203125,-0.5888771622866392,-0.08852993184626103,0.1986658385619521
1733511865065912300,0.299912353515625,-0.5843820428244769,-0.10906418583095073,0.15112499277330935
1733511865075987200,0.3099873046875,-0.6221281283728778,-0.1127168631196022,0.09001103724949061
1733511865086062000,0.32006201171875,-0.6774339821398258,-0.0765185915350914,0.027454335571452975
1733511865096136200,0.33013623046875,-0.6753162593334913,-0.0259855051279068,-0.04070895394198596
1733511865106211000,0.340211181640625,-0.5815104329109192,-0.01711363188624382,-0.0644865006968379
1733511865116286200,0.3502861328125,-0.4551372387520969,-0.01724164218008518,-0.027928309758752583
1733511865126361000,0.360361083984375,-0.34710473405644293,-0.044802433800697324,0.08732391705736517
1733511865136435200,0.370435302734375,-0.2958719749473035,-0.11988251696527004,0.21538725626021624
1733511865146510000,0.380510009765625,-0.3046776510849595,-0.18121230719685552,0.29790070429593324
1733511865156585200,0.390585205078125,-0.3652522390350699,-0.15576573125123977,0.39560368428751824
1733511865166660000,0.40066015625,-0.4676163427054882,-0.09545768528282642,0.43775428840517994
1733511865176734200,0.410734130859375,-0.6606821693032979,-0.021748890471458435,0.4591036581650376
1733511865186809300,0.420809326171875,-0.8244745551437139,0.01854921764731407,0.3948874988421798
1733511865196884200,0.43088427734375,-0.9055264061942696,0.02262450426220894,0.3390834862947464
1733511865206959400,0.44095947265625,-0.900631912150979,0.004504910203814506,0.3822961666859686
1733511865217033200,0.451033203125,-0.8779562622234225,-0.07821545858085155,0.5650374370157718
1733511865227108400,0.4611083984375,-0.9287474150449037,-0.22650573938488958,0.8603313198141753
1733511865237183000,0.471182861328125,-0.947780178425461,-0.49066579438149927,1.2351077585197985
1733511865247258000,0.481258056640625,-0.9293820596866309,-0.6280412979394198,1.5752435303464531
1733511865257332000,0.49133203125,-0.8813894515424966,-0.6588052695155143,1.6752848901577293
1733511865267407000,0.501406982421875,-0.7534436012394726,-0.6035580140680075,1.5230917566962539
1733511865277482200,0.511482177734375,-0.6740846717119217,-0.4427063578546047,1.246899026339501
1733511865287557000,0.52155712890625,-0.5930145543523132,-0.27366262735724445,1.028566656538099
1733511865297631200,0.53163134765625,-0.4830161564111709,-0.1598117917716503,0.8602434954002499
1733511865307706000,0.5417060546875,-0.3589648293286562,-0.1381581783682108,0.7834167146988212
1733511865317781200,0.55178125,-0.17616262259185314,-0.20490005677640438,0.6822371446378529
1733511865327856400,0.5618564453125,-0.00403919238820672,-0.3400537926316261,0.5810438383124769
1733511865337931300,0.57193115234375,0.15015972793772817,-0.4125643175691366,0.5838076039373874
1733511865348005400,0.58200537109375,0.24734058375135062,-0.37568683154881,0.5782454397656023
1733511865358080300,0.592080322265625,0.24983561543747781,-0.19237316815853117,0.5392511077217758
1733511865368155100,0.602155029296875,0.17325703734345732,0.00616261428296566,0.459158895483613
1733511865378230000,0.61222998046875,0.1686643757909536,0.14024609055817128,0.3800738144613802
1733511865388304100,0.62230419921875,0.24610008217096327,0.22018588871359823,0.3421552949555218
1733511865398379000,0.63237890625,0.34750761576890943,0.33219664939045906,0.2891751076571643
1733511865408454100,0.6424541015625,0.40351241158545015,0.44218905598223207,0.2071335149168968
1733511865418529300,0.652529296875,0.42012445062510667,0.46522857078611846,0.11819821714013815
1733511865428603100,0.66260302734375,0.35810733571648595,0.45376258939802644,0.047302287792414424
1733511865438678300,0.67267822265625,0.2602771491486579,0.46162499333620066,-0.0364250660777092
1733511865448753200,0.682753173828125,0.15225984202213586,0.4396002085328102,-0.18138970959037543
1733511865458828300,0.692828369140625,0.0414659828543663,0.33620646955370903,-0.3598386895537376
1733511865468902100,0.702902099609375,-0.05151683674752712,0.18181378022134304,-0.5588771608203649
1733511865478977300,0.712977294921875,-0.224518986014463,0.017020692905783653,-0.746299866964668
1733511865489052400,0.723052490234375,-0.43895727098677306,-0.14212825104296206,-0.901665054591
1733511865499127000,0.733126953125,-0.6838876883238554,-0.24310148487687108,-1.0105350330241023
1733511865509201400,0.743201416015625,-0.9022522068291902,-0.27207038972973824,-1.1364756809845566
1733511865519276000,0.753276123046875,-1.0973831492632626,-0.2898655741393566,-1.2431766448155044
1733511865529351200,0.76335107421875,-1.2692460288345813,-0.2272761392354965,-1.3696896858364342
1733511865539426000,0.773426025390625,-1.4147475557029245,-0.12274492065906524,-1.5282159678421914
1733511865549501200,0.783501220703125,-1.5418904190599918,-0.00289221431016922,-1.6470093743965029
1733511865559575000,0.793574951171875,-1.6550187855899332,-0.0002963525980710983,-1.6456630743540823
1733511865569650200,0.803650146484375,-1.7846154718399048,-0.10571136827170849,-1.6287182231634854
1733511865579725300,0.813725341796875,-1.9021675000309943,-0.25365327402949334,-1.6735925531566143
1733511865589800000,0.823800048828125,-1.9632780945539474,-0.3166694099128246,-1.676832557991147
1733511865599874000,0.8338740234375,-1.921082628381252,-0.2777314842313528,-1.6077575604602694
1733511865609949000,0.843948974609375,-1.7526795338749885,-0.26334172435104847,-1.5165635239712894
1733511865620024000,0.854024169921875,-1.5336276176273822,-0.2720598683357239,-1.4910300003945827
1733511865630099000,0.864098876953125,-1.3182967677295208,-0.28914018247425555,-1.5249664645269512
1733511865640173000,0.874173095703125,-1.1524842742383479,-0.24617139384150505,-1.5787448164656757
1733511865650248000,0.884248046875,-1.000618473035097,-0.17285072156488895,-1.6057937130413948
1733511865660322800,0.89432275390625,-0.8319231906492263,-0.16778233225941658,-1.5520971941672264
1733511865670398000,0.90439794921875,-0.6602198124885559,-0.17817045528292655,-1.4377622283264995
1733511865680471800,0.914471923828125,-0.5079366626560687,-0.20404373220801353,-1.3263527945436537
1733511865690547000,0.924546875,-0.40179917792677877,-0.23832769460380077,-1.215103519758582
1733511865700622000,0.9346220703125,-0.3092342914760113,-0.24657646751105783,-1.0884840957537292
1733511865710697000,0.944697021484375,-0.22811430709268896,-0.2306178508788347,-0.9542743627503514
1733511865720771000,0.95477099609375,-0.14820081242229788,-0.2077706437766552,-0.8040699188880622
1733511865730846000,0.964845947265625,-0.057480677055381235,-0.1792757861763239,-0.6690294341489672
1733511865740921000,0.974921142578125,0.004734627306461334,-0.16073182922601698,-0.5617812116988002
1733511865750996000,0.984995849609375,0.02491930066850036,-0.1657984649658203,-0.4932512808300554
1733511865761070800,0.99507080078125,0.023270948939584195,-0.20693243938684464,-0.45952802105695006
1733511865771145000,1.00514501953125,0.04081478893663734,-0.24617899262607096,-0.45533363810703154
1733511865781219800,1.0152197265625,0.10751339445868506,-0.33910686717033384,-0.47704716500416394
1733511865791295000,1.025294921875,0.21384152465555817,-0.4272176968216896,-0.5303263352490961
1733511865801369900,1.035369873046875,0.3510732358286157,-0.4768611409127712,-0.6267237856000661
1733511865811444000,1.04544384765625,0.5774889223098755,-0.5088900178581476,-0.7018785414360463
1733511865821518800,1.055518798828125,0.8455378014385699,-0.5105675956815481,-0.7201664777986705
1733511865831594000,1.065593994140625,1.133804123687744,-0.5467091686427593,-0.6428808474138379
1733511865841669000,1.075669189453125,1.4362544541120528,-0.5767740520387887,-0.4486648278675973
1733511865851743000,1.085742919921875,1.695042168420553,-0.601490560144186,-0.2192613212145865
1733511865861818000,1.095818115234375,1.8213643630445002,-0.5793786815792322,0.005207213254272937
1733511865871893000,1.10589306640625,1.7847475737869738,-0.5526221920788288,0.24126038705483077
1733511865881968000,1.115968017578125,1.6208417906999586,-0.39563597912192344,0.4314404290832579
1733511865892042000,1.1260419921875,1.271920801001787,-0.1719943969964981,0.5982803659260273
1733511865902117000,1.1361171875,0.8081470321338623,0.1010270098477602,0.7925451930500567
1733511865912191700,1.146191650390625,0.3609329145312309,0.3516349248319864,0.9522630229279399
1733511865922267000,1.156266845703125,-0.031986206847429276,0.4966670806229114,1.0508490693643688
1733511865932341000,1.166341064453125,-0.31321247439198197,0.5535755472809076,1.0743230300627649
1733511865942416000,1.176415771484375,-0.5779319899022579,0.6613409254729747,1.063738799945265
1733511865952491000,1.186490966796875,-0.8608043441534042,0.80961776227355,0.935089769808948
1733511865962566000,1.19656591796875,-1.13114454908967,1.0673638585746288,0.6472131775297224
1733511865972641000,1.20664111328125,-1.3518003934025764,1.449922913980484,0.19566826418116687
1733511865982715000,1.21671484375,-1.462375568318367,1.773624122226238,-0.34411125132888554
1733511865992790000,1.2267900390625,-1.5096176503561436,1.9152280571341513,-0.8989147329695523
1733511866002865200,1.236865234375,-1.5449227724932133,1.8016373337894678,-1.525163594534248
1733511866012940000,1.24693994140625,-1.6791232992768286,1.485145034009218,-2.0967755876347423
1733511866023014100,1.25701416015625,-1.9147674538850783,1.1512801591455937,-2.361849980997294
1733511866033089000,1.267089111328125,-2.234337115284055,0.802038266929984,-2.266213285885751
1733511866043164000,1.277163818359375,-2.567672559446096,0.406961090734601,-1.911307522689551
1733511866053238800,1.28723876953125,-2.871152817440033,0.0752028327614069,-1.5424907230407
1733511866063313000,1.29731298828125,-3.1306220842719075,-0.016084873360395432,-1.2114851831309497
1733511866073387800,1.3073876953125,-3.371512907361984,0.12666940062642096,-0.8335432661317288
1733511866083463000,1.317462890625,-3.5453450411796568,0.29160277319550515,-0.4241596244253218
1733511866093538000,1.3275380859375,-3.638311201907694,0.256520353898406,-0.09710895962119102
1733511866103612000,1.33761181640625,-3.6815970936655997,-0.11231529658138752,0.13081161499768496
1733511866113687000,1.34768701171875,-3.7125522038996217,-0.6590805793255567,0.1684670996531844
1733511866123762000,1.357761962890625,-3.705482996165752,-1.146745438325405,-0.08367635433524846
1733511866133837000,1.367837158203125,-3.6541760027766226,-1.404860367938876,-0.588992166968435
1733511866143911000,1.377910888671875,-3.5162089630663393,-1.4687386736094952,-1.2038245853751897
1733511866153986000,1.387986083984375,-3.285511909471452,-1.3876701636850832,-1.728041643963754
1733511866164061200,1.398061279296875,-2.9409307025432585,-1.1411685149759054,-2.0808903284996747
1733511866174135800,1.4081357421875,-2.5075159046471116,-0.711236883020401,-2.272753793570399
1733511866184211000,1.4182109375,-2.006257989102602,-0.11239829868972301,-2.3618907513990997
1733511866194284800,1.428284912109375,-1.568412515282631,0.6045277358829975,-2.201845881523937
1733511866204360000,1.43835986328125,-1.2002046413123606,1.2901900326639413,-1.784654050284624
1733511866214434800,1.448434814453125,-0.8742471785724163,1.8859055165380239,-1.2751198893040419
1733511866224510000,1.458510009765625,-0.5125029476583004,2.3806997890263792,-0.8121725613228976
1733511866234584000,1.468583984375,-0.006495207238197327,2.8440152196675537,-0.4218422873936593
1733511866244659000,1.478658935546875,0.5745856020838022,3.2878105418026444,-0.040493338429927826
1733511866254734000,1.488734130859375,1.2159674431115388,3.636725686281919,0.1638926313444972
1733511866264809000,1.49880908203125,1.7529045748025178,3.744575820147991,0.3488353572413325
1733511866274883000,1.508883056640625,2.176659563949704,3.6576954090744254,0.5035271756507456
1733511866284958000,1.5189580078125,2.49369956074059,3.3634809920758006,0.6308816359318793
1733511866295033000,1.529033203125,2.7809038067162035,2.976507042837143,0.7103903491936624
1733511866305108000,1.53910791015625,3.1044992164999243,2.5952877116024493,0.7756035567298531
1733511866315182000,1.54918212890625,3.4618969426423307,2.275672895887494,0.7500467984080315
1733511866325257000,1.559257080078125,3.700620943087339,1.9053893846869467,0.6374607220612466
1733511866335331800,1.569331787109375,3.820188987275958,1.629821215969324,0.44482992587983605
1733511866345407000,1.579406982421875,3.8131326390236615,1.3777970044463872,0.18131386787518858
1733511866355480800,1.589480712890625,3.7489369379669424,1.1023358032345771,-0.05761646879687905
1733511866365556000,1.599555908203125,3.656627487581968,0.7966045514434575,-0.22121026332527396
1733511866375631000,1.609631103515625,3.547560379141569,0.4595230526208877,-0.2995293284110725
1733511866385706000,1.6197060546875,3.3714486099541183,0.10943769531846045,-0.35896278350204225
1733511866395781000,1.629781005859375,3.0714550250321624,-0.31781215020716186,-0.4007881011880934
1733511866405855000,1.63985498046875,2.6940929537475107,-0.7234773559123278,-0.4530312063835561
1733511866415930000,1.64993017578125,2.1559996377587316,-1.0197896219730376,-0.4881526425167918
1733511866426005000,1.6600048828125,1.647763261503726,-1.3233733403414487,-0.5430051995582879
1733511866436079900,1.670079833984375,1.2662791418530046,-1.5455483570456503,-0.5457667732261121
1733511866446154000,1.680154052734375,0.9758113640367985,-1.6538783833831547,-0.522956098742038
1733511866456228900,1.690228759765625,0.7945850283145904,-1.634147846996784,-0.529897588443011
1733511866466304000,1.700303955078125,0.6753783647842705,-1.5498194584935903,-0.5302249207012355
1733511866476379000,1.71037890625,0.6508150014139712,-1.5597937400192021,-0.2564779760614037
1733511866486453000,1.720452880859375,0.7535686889238655,-1.5980255632579325,0.37726679421663284
1733511866496528000,1.73052783203125,0.9566573123641312,-1.6652449960500002,1.0844237144470215
1733511866506603000,1.74060302734375,1.251055123105645,-1.8428297603994608,1.6674493742264807
1733511866516678100,1.75067822265625,1.6029834779262542,-2.09365628657043,2.0986751376457513
1733511866526752000,1.760751953125,1.974274704864621,-2.2918273273527623,2.379427723263949
1733511866536827100,1.7708271484375,2.335515077909827,-2.3790993680924175,2.617718739119172
1733511866546902000,1.780902099609375,2.662266613636911,-2.350025249299407,2.8858909523665903
1733511866556977200,1.79097705078125,2.8537001628577707,-2.1981623707056044,3.1482112247154115
1733511866567051000,1.801051025390625,2.9193121604532,-1.9179414077460766,3.442555113312602
1733511866577126100,1.811126220703125,2.747640419539809,-1.5677309627592562,3.711220078513026
1733511866587200800,1.82120068359375,2.3266959577687083,-1.3554045553743839,3.8469174197256564
1733511866597275400,1.831275390625,1.7957599661886692,-1.2757295456349849,3.7987852569803593
1733511866607350500,1.8413505859375,1.1320787611998617,-1.2805945213228462,3.657867550770938
1733511866617424400,1.85142431640625,0.2528783441342413,-1.1928443416774273,3.491257769422233
1733511866627499500,1.86149951171875,-1.1094279534526168,-0.8921540066629647,3.142126644104719
1733511866637574700,1.87157470703125,-6.613912528076767,-0.41865737374722956,1.5429899047344922
1733511866647649500,1.8816494140625,-11.548307789123058,0.3033241906493902,-0.7814689416319132
1733511866657723600,1.8917236328125,-11.471085433232783,0.8045721693217754,-2.084754018190503
1733511866667798500,1.901798583984375,-9.904204365301132,1.1541846484154463,-3.0689854200482367
1733511866677873700,1.911873779296875,-7.491071210181713,1.1860855150669813,-3.976614059218764
1733511866687948500,1.921948486328125,-5.417102205377817,0.9561147299200295,-4.9378655675053595
1733511866698022700,1.932022705078125,-3.8201895717978473,0.5558288791656494,-5.799226376497745
1733511866708097500,1.94209765625,-3.1490280940562485,-0.005216857865452766,-6.263702083089948
1733511866718172700,1.952172607421875,-4.700435698524117,-0.32336803076863285,-6.7675979459226125
1733511866728247600,1.96224755859375,-4.334726071110367,-1.1086182445049286,-6.423201155650616
1733511866738322400,1.972322509765625,-1.499247355250269,-2.1049884124457834,-4.909214058038592
1733511866748396500,1.982396484375,0.4518627471260726,-2.5309067171066997,-3.076502663810551
1733511866758471400,1.992471435546875,0.9477009757094085,-2.582449272817373,-1.5615239248126744
1733511866768546600,2.002546630859375,1.654666903412342,-2.222745607820153,-0.48533451635614033
1733511866778621700,2.01262158203125,2.9273399840861556,-1.2621166153460741,0.05759776409640908
1733511866788695600,2.022695556640625,4.257354077616334,0.14589841723144054,0.4568927041172981
1733511866798770700,2.032770751953125,5.441921004813909,1.9558979211747645,1.1990287294007838
1733511866808845600,2.042845458984375,6.105844347995519,3.9869063206523654,2.2586681312032044
1733511866818920700,2.052920654296875,5.826173420134187,5.626190361493825,2.9324615648835897
1733511866828994600,2.06299462890625,4.77745522531867,6.580178600779175,3.108425742293894
1733511866839069700,2.073069580078125,3.6243975351065396,6.736435330417752,2.8105145166039467
1733511866849144600,2.08314453125,2.7785826702922582,5.549102445638179,2.1636504447728395
1733511866859219500,2.093219482421875,2.5581220562905074,3.169047384256124,1.8150635093346237
1733511866869293600,2.10329345703125,2.4432993069328366,0.6700111386626958,2.0074292248390613
1733511866879368400,2.113368408203125,2.2650760985493656,-1.1394611265361307,2.4970649455204605
1733511866889443600,2.123443603515625,2.1051719523191452,-2.431543841078877,2.7782503695979712
1733511866899518500,2.1335185546875,1.8720612617112695,-3.2939760786950587,2.7474399285316466
1733511866909592600,2.143592529296875,1.6562866135686636,-3.6774084098041055,2.486778237044811
1733511866919667500,2.15366748046875,1.4781196654170752,-3.5349721157252785,2.150012672303617
1733511866929742600,2.16374267578125,1.2716793934613466,-2.8296307204842566,1.8279019481196999
1733511866939817700,2.173817626953125,1.2751964616715907,-1.8016782503217457,1.5549433773785828
1733511866949892600,2.183892578125,1.5830372529625891,-0.6081529406428337,1.3544320570804178
1733511866959966700,2.193966796875,1.9126275192469357,0.5951385607689619,1.1317349161982535
1733511866970041600,2.20404150390625,2.2575883731424806,1.7140742011487482,0.8009368815593421
1733511866980116500,2.214116455078125,2.531322896692157,2.580670572707057,0.25580723719298837
1733511866990191400,2.22419140625,2.852628734233975,3.1147792029738426,-0.4399316324442625
1733511867000265500,2.234265380859375,3.032514761263132,3.156332279589772,-1.1228685959145426
1733511867010340400,2.24434033203125,2.9379636694312095,2.708277546444535,-1.8047154260605573
1733511867020415500,2.25441552734375,2.576425774744153,1.8712123897969721,-2.252658369394392
1733511867030490600,2.26449072265625,2.093288037779927,0.9089987584799527,-2.3636256123676893
1733511867040564500,2.274564453125,1.6060884582042694,-0.10208265638053417,-2.3440432522803545
1733511867050639600,2.2846396484375,1.214868541958928,-0.969566332167387,-2.4012362349681555
1733511867060714500,2.294714599609375,0.7626169416457415,-1.6429495776116847,-2.464212184971571
1733511867070789600,2.30478955078125,0.12912852074895054,-2.0563170282572507,-2.5109073006510734
1733511867080863500,2.314863525390625,-0.46444940310716626,-2.1951018140912053,-2.5022400100708007
1733511867090938600,2.324938720703125,-0.9615420156657695,-2.0980080520391464,-2.4074277830846604
1733511867101013800,2.335013671875,-1.408752699202299,-1.7903426173150538,-2.264337993533164
1733511867111088600,2.345088623046875,-1.7147101609647273,-1.2901508696973323,-2.0512559454753996
1733511867121163500,2.35516357421875,-1.8809411721289158,-0.6778373022437095,-1.7238069290034472
1733511867131237600,2.365237548828125,-1.9621791934013366,-0.057196051427721974,-1.2745483730264007
1733511867141312500,2.3753125,-1.99939804020524,0.3925234000593424,-0.7498102131731808
1733511867151387400,2.385387451171875,-2.0412217504560948,0.7138678160458802,-0.20994199646636844
1733511867161462500,2.395462646484375,-2.209868006068468,0.9170698367327451,0.3035976007632911
1733511867171536400,2.405536376953125,-2.477278587293625,0.9893266791701316,0.6086921620860696
1733511867181611500,2.415611572265625,-2.725882761240005,0.9563450315445661,0.6883776932194828
1733511867191686700,2.425686767578125,-2.9185096118986604,0.8507815473109483,0.6510625464342534
1733511867201761500,2.435761474609375,-3.011680063027143,0.6910673706948757,0.6910073110707103
1733511867211835600,2.445835693359375,-3.024827129369974,0.4220727351486683,0.8933215891376137
1733511867221910500,2.45591064453125,-3.036179713511467,0.10013561396598815,1.1687642317794262
1733511867231985700,2.465985595703125,-3.0850223626136777,-0.16555705742537974,1.3182552666753529
1733511867242060500,2.476060546875,-3.1650714663624764,-0.25793898852467534,1.2624959700524807
1733511867252134700,2.486134765625,-3.2276994797110556,-0.2812356929600239,1.0348768625982105
1733511867262209500,2.49620947265625,-3.1583810288131233,-0.312004340711236,0.7830851446568965
1733511867272284400,2.506284423828125,-2.9487343620315194,-0.3095113548517227,0.5877113333776592
1733511867282359600,2.516359619140625,-2.687352247315645,-0.28951836813688275,0.39985257390365003
1733511867292434400,2.526434326171875,-2.402212094262987,-0.20026830532252787,0.15113967888578772
1733511867302508500,2.536508544921875,-2.111623758807033,-0.06478431459963321,-0.20914543926119802
1733511867312583400,2.54658349609375,-1.8090109312973917,0.04728372922241687,-0.6351933616511524
1733511867322658600,2.556658447265625,-1.4764545086838303,0.15390402903258799,-1.0544494319438933
1733511867332733700,2.566733642578125,-1.1670727715611457,0.238138894033432,-1.4439523151382803
1733511867342807600,2.5768076171875,-0.900453779105097,0.3091951285094023,-1.7038978211797773
1733511867352882700,2.586882568359375,-0.7747323268532752,0.3366600585401058,-1.7567083509996533
1733511867362957600,2.59695751953125,-0.8042178029261529,0.36599253600835796,-1.6744930091276764
1733511867373032400,2.607032470703125,-0.9376840240858495,0.34358255127966403,-1.549871042550355
1733511867383106600,2.6171064453125,-1.1911128417097032,0.251951146286726,-1.3691491492189467
1733511867393181400,2.627181396484375,-1.5634535777010024,0.08300503094494342,-1.1989285569619386
1733511867403256600,2.637256591796875,-1.9735962210811673,-0.09589783026576042,-1.0599380924880504
1733511867413331500,2.64733154296875,-2.4212743759989737,-0.22906536073982714,-1.0043688385445624
1733511867423406600,2.657406494140625,-2.9384210578098893,-0.07941022132337093,-1.0346795864604412
1733511867433480400,2.66748046875,-3.5064752122983336,0.41349487641751764,-1.2185551945824176
1733511867443555600,2.6775556640625,-4.116080689837038,1.3290525550216437,-1.6344747408635913
1733511867453630500,2.68763037109375,-4.635447678045928,2.8124861089378594,-2.3036535203553736
1733511867463705600,2.69770556640625,-5.311393759715557,4.606674295765162,-3.149905753673613
1733511867473779700,2.70777978515625,-6.293939984965324,6.006408991253376,-4.015148080274463
1733511867483854600,2.7178544921875,-8.094217136317491,6.588734832200408,-4.717899751283228
1733511867493929700,2.7279296875,-10.927040515363215,5.833609707614779,-4.848570788766444
1733511867504004400,2.73800439453125,-12.406639605683088,4.433820651590824,-4.0761128365859385
1733511867514078700,2.74807861328125,-11.211496923935412,3.1753263183951375,-3.1952170137792826
1733511867524153300,2.7581533203125,-8.38178553943038,2.3575585674136876,-2.617731598600745
1733511867534228500,2.768228515625,-5.348585718512535,1.969591515484452,-2.0103435048505665
1733511867544303600,2.7783037109375,-2.9510335788846014,1.8977344860196113,-1.2274465762421487
1733511867554378500,2.78837841796875,-1.2002572482824325,1.9304794022798537,-0.44673897437155247
1733511867564452600,2.79845263671875,0.528290883898735,2.2101357170939444,0.2646631822131574
1733511867574527500,2.808527587890625,2.319106963944435,2.4892653776854274,1.1272574785232543
1733511867584602600,2.8186025390625,3.962462784269452,2.8641403083294628,1.7488826258100567
1733511867594678300,2.82867822265625,5.22910418356359,3.241764829942584,1.9320161103278397
1733511867604752400,2.83875244140625,6.049649582564831,3.6321348513603207,1.6913908063061533
1733511867614827300,2.8488271484375,7.069663660943507,4.218517274221778,1.495752791132778
1733511867624902100,2.858902099609375,7.746627102962136,4.70526092672348,1.5524313945576547
1733511867634977000,2.86897705078125,7.978236302965879,5.010043499487638,1.7495041187092661
1733511867645051100,2.879051025390625,7.388441441312432,4.834768181124329,1.7216083960458635
1733511867655126000,2.8891259765625,6.339613940903544,4.3637955137282605,1.6954250302582978
1733511867665201200,2.899201171875,5.65331802239418,4.003537137457728,1.220635142661631
1733511867675276300,2.9092763671875,5.035819745779037,3.2923668899327514,0.9383879345715045
1733511867685350100,2.91935009765625,4.726906941342354,2.413501988431811,0.686291388464719
1733511867695425300,2.92942529296875,4.509519743436575,1.6304203509062527,0.2763118266917765
1733511867705500200,2.939500244140625,4.4549598857313395,0.8279641508251429,-0.08811287547796964
1733511867715575300,2.9495751953125,4.494876885578036,0.040461189725995064,-0.41357327541597183
1733511867725650200,2.959650146484375,4.504505714666843,-0.7690051813781261,-0.7529426659800111
1733511867735724300,2.969724365234375,4.41278166295439,-1.5387649805158377,-0.9069325466651469
1733511867745799400,2.97979931640625,4.06480935228318,-2.0718828461796046,-1.0486200682032853
1733511867755874000,2.9898740234375,3.734502462162077,-2.529292852169275,-1.2599933395817875
1733511867765949200,2.99994921875,3.4209216659143564,-2.888753940582275,-1.424454418464005
1733511867776023000,3.01002294921875,3.159940825475752,-3.0607313864439725,-1.5004928252667187
1733511867786098200,3.02009814453125,2.9913939385846255,-3.1862142076343294,-1.4154042660459876
1733511867796173000,3.030173095703125,3.158085552997887,-3.1845401369422675,-1.2944555811539291
1733511867806248200,3.040248291015625,3.5589939195647835,-3.0920711120814084,-1.1245341179739683
1733511867816322000,3.050322021484375,4.137719690193236,-2.8942689046114682,-0.8077769567124545
1733511867826397200,3.060397216796875,4.736485501548648,-2.727196766448021,-0.3528338522929698
1733511867836472300,3.070472412109375,5.187375750380754,-2.753638783171773,0.1770758649792522
1733511867846547200,3.080547119140625,5.46791820037961,-2.898444728991389,0.6438068031523376
1733511867856622300,3.090622314453125,5.656448721635341,-3.0917765130490062,0.9913312969908118
1733511867866696200,3.1006962890625,5.720229412150383,-3.3312709133446217,1.3182976445123553
1733511867876771300,3.110771240234375,5.644914935708045,-3.561305995899439,1.6819279814340173
1733511867886846200,3.12084619140625,5.359307019013166,-3.5937048752009866,2.0348624445572496
1733511867896921000,3.130921142578125,4.899484106662869,-3.374122213077545,2.3290876752108334
1733511867906995200,3.1409951171875,4.266666095840931,-2.9463667561173437,2.5522429351240397
1733511867917070000,3.151070068359375,3.570055704066157,-2.378761514440179,2.6508938634902237
1733511867927145200,3.161145263671875,2.7530861177250743,-1.6796663201123474,2.6279467031449077
1733511867937220000,3.17122021484375,1.7105018956199287,-0.7987158445090055,2.534403911572695
1733511867947294200,3.181294189453125,0.11364625292420387,0.36989305057823657,2.412572452496737
1733511867957369000,3.191369140625,-10.439340000528096,2.4768705910146234,1.51742467084527
1733511867967444200,3.2014443359375,-18.43144466984868,4.508922946587204,0.26698446476757526
1733511867977519400,3.211519287109375,-15.540428629553316,4.660638525664806,-0.12269289821088314
1733511867987594200,3.22159423828125,-10.930715989005565,3.488150158795714,-0.7880296153217554
1733511867997668400,3.23166845703125,-7.406947988861798,2.388263502278924,-1.427852974861115
1733511868007743200,3.2417431640625,-5.025701087346673,1.5408283427864313,-1.7793867774061858
1733511868017818000,3.251818115234375,-3.433198086902499,0.7112988423407077,-1.970221483951062
1733511868027893200,3.261893310546875,-2.2736890285938975,0.1506973419457674,-1.9260085404761134
1733511868037967000,3.271967041015625,-1.4758170875631271,-0.18495733894407748,-1.7477977531827986
1733511868048042200,3.282042236328125,-0.8235919270902872,-0.5972141979992389,-1.3333802089624107
1733511868058117000,3.2921171875,0.1321513391688466,-1.134324348169565,-0.5682585910193622
1733511868068192300,3.302192138671875,1.1891373038530348,-1.710041000109911,0.168147073918581
1733511868078267100,3.31226708984375,1.8703332688748835,-1.9490362187117336,0.7917078654430806
1733511868088341200,3.32234130859375,2.0866765106856824,-1.5019330872029064,1.3119652266204356
1733511868098416000,3.332416015625,2.197804935570061,-0.4868599723577499,1.4233018874280154
1733511868108491300,3.3424912109375,2.4602350980341434,0.8752227456063032,1.1944886017531156
1733511868118566400,3.35256640625,2.722431451742351,2.3125001130253073,1.0026721906945109
1733511868128640300,3.36264013671875,2.9555671306610107,3.756467333471775,0.9424909859761595
1733511868138715400,3.37271533203125,3.22565832927227,5.480850747188925,1.0752179330758749
1733511868148790000,3.3827900390625,3.3020331284224986,7.366687290143966,1.3994701993331313
1733511868158865200,3.392865234375,2.7697037827879187,8.58844792970419,1.5832261996634303
1733511868168939000,3.40293896484375,1.4747851141668855,8.19651372770965,1.4140133962094783
1733511868179014100,3.41301416015625,-0.00009805354699492454,5.405249270498753,1.2207418179064988
1733511868189089300,3.42308935546875,-0.4814430618755519,1.24287766186893,1.3850941757172346
1733511868199164200,3.4331640625,-0.3596690320752561,-1.6109972730338573,1.8170862473338842
1733511868209239300,3.4432392578125,-0.02575388832911849,-3.15842486795485,2.133835444484651
1733511868219313200,3.453313232421875,0.4931307231903076,-4.24016504240632,2.394860854717344
1733511868229388300,3.46338818359375,0.9145843035273253,-5.0799710221946235,2.6164459427043796
1733511868239463200,3.473463134765625,1.094923627281934,-5.503031014814972,2.7019527273371815
1733511868249538300,3.483538330078125,1.1415858636051415,-5.276930933621525,2.488516605144739
1733511868259612200,3.493612060546875,1.2026054188437758,-4.431484902119636,2.0177556808032096
1733511868269687300,3.503687255859375,1.4186591761887073,-3.1632933507740497,1.5901317412681877
1733511868279762200,3.51376220703125,1.877236472392082,-1.647947239768505,1.0824189504958688
1733511868289837000,3.523837158203125,2.5782471449524165,-0.19466741657555103,0.6411939172402024
1733511868299911200,3.5339111328125,3.235848299375176,1.2199094587355852,0.276585090675205
1733511868309986000,3.543986083984375,3.8308781390726563,2.5988591403484342,-0.2075042479254305
1733511868320061200,3.554061279296875,4.3347944601714605,3.620282501003146,-0.8674602949112653
1733511868330136300,3.56413623046875,4.486573752135038,4.137237751895189,-1.535013811288774
1733511868340211200,3.574211181640625,4.410506411498785,4.291837361976504,-2.2778052317410706
1733511868350285300,3.584285400390625,3.8892175153166053,3.708157768332958,-2.8390491216927765
1733511868360360200,3.594360107421875,3.30479031817615,2.3897002570837733,-2.970650718024373
1733511868370435300,3.604435302734375,2.788946827918291,1.0068442156821489,-2.763703665590286
1733511868380510200,3.61451025390625,2.2596527583263812,-0.16009236227869986,-2.54209621964097
1733511868390584300,3.624584228515625,1.8688536978416144,-0.8260702999025583,-2.361038518483937
1733511868400659200,3.6346591796875,1.2886110929094254,-1.2426041056245565,-2.246579634002596
1733511868410734000,3.644734130859375,0.5773356314443051,-1.4803285736382006,-2.202718864966184
1733511868420809200,3.654809326171875,-0.05710245486013591,-1.5605857671797274,-2.2295231391310693
1733511868430884000,3.664884033203125,-0.4721639230072498,-1.6124451337546108,-2.164213923874497
1733511868440958200,3.674958251953125,-0.5711047742307186,-1.5459335569709538,-2.0815379787534476
1733511868451033000,3.685033203125,-0.5513339058339596,-1.4623311446547507,-1.9009382504969834
1733511868461108200,3.695108154296875,-0.4742460630435496,-1.357905140018463,-1.6967232533752916
1733511868471183400,3.705183349609375,-0.3703606680899858,-1.1474503717243671,-1.6008561105087398
1733511868481257200,3.71525732421875,-0.30110772017631676,-0.7947422647029161,-1.4541821788601577
1733511868491332400,3.725332275390625,-0.33635260002613065,-0.3360936568289995,-1.266447338026762
1733511868501407200,3.7354072265625,-0.5197077644705772,0.03598725918233395,-1.0011409625392407
1733511868511482000,3.745482177734375,-0.7815040129452944,0.31273382402956484,-0.7004442708492279
1733511868521557000,3.755556884765625,-1.131980415391922,0.5173457115143537,-0.39307358128800984
1733511868531631000,3.765631103515625,-1.47908003488183,0.5831593691617251,-0.16160305910259484
1733511868541706000,3.7757060546875,-1.795618511891365,0.5242465769439936,-0.08225750051327049
1733511868551781000,3.785781005859375,-2.0542063197135922,0.4286708182394504,-0.08106836379393935
1733511868561856300,3.795856201171875,-2.1811728035904467,0.3378530677169561,0.04899126379266381
1733511868571930000,3.80593017578125,-2.191130572372675,0.30492168897390365,0.34908129482641814
1733511868582005200,3.816005126953125,-2.200802071559429,0.29952713645398615,0.7009511974580586
1733511868592079600,3.82607958984375,-2.275762035475671,0.3013847470194101,0.9671887893810868
1733511868602154500,3.836154541015625,-2.438487376606464,0.26407296123504637,1.1684041662953792
1733511868612228600,3.846228515625,-2.5875205847322937,0.14517770174145697,1.2529554037690163
1733511868622303500,3.856303466796875,-2.7214824804544446,-0.05313070168495178,1.2782868289023637
1733511868632378600,3.866378662109375,-2.805422161900997,-0.2485813775926828,1.3332343707509338
1733511868642453800,3.876453857421875,-2.8709704466104506,-0.3259673996120691,1.3987588361933827
1733511868652528600,3.886528564453125,-2.9394647216439247,-0.2981476647943258,1.3447085354454815
1733511868662602800,3.896602783203125,-3.0144366682589054,-0.20157120461463926,1.123850958015397
1733511868672677600,3.906677734375,-3.060299424767494,-0.14453940383791922,0.7611971379756927
1733511868682752500,3.91675244140625,-3.0046915193140507,-0.11015607272088528,0.31202903676107524
1733511868692827400,3.926827392578125,-2.854039185553789,-0.06275602364242076,-0.1997478616449982
1733511868702901500,3.936901611328125,-2.6609812500014898,0.02019230867922306,-0.7415436123482883
1733511868712976400,3.946976318359375,-2.416835516768694,0.1367015498191118,-1.2465293162442743
1733511868723051500,3.957051513671875,-2.131970965787023,0.3674918346554041,-1.7149702732056378
1733511868733126700,3.967126708984375,-1.8213117560744285,0.6186831024855375,-2.1371708725176752
1733511868743201500,3.977201416015625,-1.4792926547192036,0.8244640337496996,-2.5227289636090395
1733511868753275600,3.987275634765625,-1.15105577580519,0.9381319139838218,-2.8391180952757593
1733511868763350500,3.9973505859375,-0.9302326851665973,0.8869640368044376,-2.969831510595977
1733511868773425700,4.00742578125,-0.9054793521821498,0.7869798140078783,-2.907654163624346
1733511868783500500,4.01750048828125,-1.0926010295532642,0.8020037801384925,-2.791123002913594
1733511868793574700,4.02757470703125,-1.411144416644424,1.0592290674358606,-2.6988775576755404
1733511868803649500,4.0376494140625,-1.8612616352774203,1.5362223102957009,-2.7964821918591856
1733511868813724400,4.047724365234375,-2.3571697142265737,2.172607073688507,-3.1863112382680177
1733511868823799600,4.057799560546875,-2.8221500093400476,2.911874119406938,-3.7916716255828735
1733511868833874400,4.06787451171875,-3.238972568875551,3.579662321323156,-4.458965906502306
1733511868843948500,4.077948486328125,-3.7131834875404834,4.028122128137946,-5.0241924363493915
1733511868854023400,4.0880234375,-4.569885657072067,4.0298219177931545,-5.117652810335159
1733511868864098600,4.0980986328125,-6.987882034313678,3.5132115348160267,-4.271522888222337
1733511868874173700,4.108173583984375,-11.701450186133384,2.603597274786234,-2.320666468346119
1733511868884247600,4.11824755859375,-14.879723663896321,1.6994956406980752,-0.34293263600356877
1733511868894322700,4.12832275390625,-13.742691810333728,0.9594237083375453,0.525835088244453
1733511868904397600,4.1383974609375,-10.07951533949971,0.644876112884283,0.6269486073318868
1733511868914472700,4.14847265625,-6.382376977831125,0.5002823485106229,0.36926103628501294
1733511868924547600,4.158547607421875,-3.179829475033283,0.5600602331250906,-0.11012333949506282
1733511868934621700,4.16862158203125,-0.9814502467066049,0.581141599598527,-0.5481129710260778
1733511868944696600,4.178696533203125,0.3471890513390302,0.6257376971721649,-0.9251116888910531
1733511868954771500,4.188771484375,1.6191326486945152,0.8777040410280227,-1.3361828452929854
1733511868964846600,4.1988466796875,3.0718209357351065,1.2519050179332494,-1.8224664790675043
1733511868974920400,4.20892041015625,4.439501035314798,1.5590104806870222,-2.612176302561164
1733511868984995600,4.21899560546875,6.2489867445170875,2.1889006213635205,-3.49464770412147
1733511868995070500,4.229070556640625,7.565543390581011,3.0372961503207683,-4.3485532286718485
1733511869005145600,4.2391455078125,8.152959832665324,3.896310688447952,-4.897693131592869
1733511869015219500,4.249219482421875,8.691056071263551,4.616876540827751,-5.008499192655086
1733511869025294600,4.259294677734375,9.01935512869358,5.054157951024174,-5.105863003820181
1733511869035369700,4.26936962890625,8.280206740918755,5.058638895830512,-4.691503911788761
1733511869045444600,4.279444580078125,7.33417384455204,4.6201983787268395,-4.066420294611156
1733511869055519500,4.28951953125,6.707098176774382,3.948885509815812,-3.6549928721174596
1733511869065593600,4.299593505859375,5.9936547236204145,3.0442198121041057,-3.079981153576076
1733511869075668500,4.30966845703125,5.1384325635135175,2.0001754543185233,-2.6270611524820326
1733511869085743600,4.31974365234375,4.383517574547231,1.0141612606972454,-2.3199898842588067
1733511869095818500,4.329818603515625,3.787440856145322,0.10985153681635856,-2.0487619367025793
1733511869105892600,4.339892578125,3.328752208521962,-0.7044967611104249,-1.620518842355907
1733511869115967500,4.349967529296875,2.8519910208523274,-1.498474471181631,-0.9668226594824343
1733511869126042600,4.360042724609375,2.3098405384272334,-2.1350649862796067,-0.19597148491144178
1733511869136117500,4.370117431640625,1.8681538790091872,-2.5292419987648724,0.5200437184266746
1733511869146192600,4.380192626953125,1.880576722730696,-2.6774405096322296,1.246725423338264
1733511869156266500,4.3902666015625,2.169374959899485,-2.6561446236252784,1.914510556514561
1733511869166341600,4.400341552734375,2.4926526820361614,-2.7115111215382814,2.4050046475909648
1733511869176416500,4.41041650390625,2.82761967292279,-2.8949177239090202,2.713897724413872
1733511869186491400,4.420491455078125,3.331288156740367,-3.013486235666275,2.955443212020397
1733511869196566500,4.43056640625,3.88564667109251,-3.1386306186825035,3.1100442834064363
1733511869206640400,4.440640380859375,4.355478644020855,-3.3099779499471187,3.2405478553682565
1733511869216715500,4.450715576171875,4.614393784101307,-3.4251445443063973,3.3412890340119596
1733511869226790700,4.460790771484375,4.650557276633381,-3.438675641530752,3.4101544804453847
1733511869236865500,4.470865478515625,4.490918503341079,-3.340546106690168,3.5069939754754302
1733511869246939600,4.480939697265625,4.219549247618019,-3.1494740842580793,3.518141684694588
1733511869257014500,4.4910146484375,3.8650782225772735,-2.8818530751526352,3.4458830886915326
1733511869267089700,4.501089599609375,3.5623137116372585,-2.53913152461648,3.3885505514025684
1733511869277164500,4.51116455078125,3.3352912549018856,-2.068789556339383,3.3844173971205946
1733511869287238700,4.52123876953125,3.148389211630821,-1.5137649792939423,3.418371689170599
1733511869297313500,4.5313134765625,2.8779528528437015,-0.9587357260733842,3.3733132347822186
1733511869307388700,4.541388671875,2.3501610045082866,-0.442530416765809,3.234671656811237
1733511869317463600,4.551463623046875,1.5194161369234322,0.30428397559225556,3.0351711209908125
1733511869327538400,4.561538330078125,-0.3824076642364263,1.786541471466422,2.912369209447503
1733511869337612500,4.571612548828125,-15.016905106186865,5.165047014194727,3.2550410756230352
1733511869347687400,4.5816875,-35.07537463928461,8.509149352061748,2.4407312100104988
1733511869357762600,4.591762451171875,-25.19764443941116,7.719577767994999,0.6126368080586194
1733511869367837700,4.601837646484375,-10.56339308117628,3.6445512653410432,-0.20382395197749137
1733511869377911600,4.61191162109375,-3.0813337372288108,1.573828110590577,0.166031250808388
1733511869387986700,4.621986572265625,0.10599895304143428,0.33494214870631694,0.4499386471956968
1733511869398061600,4.6320615234375,1.7391520899124442,-1.0038882884860039,0.4268316201135516
1733511869408136700,4.64213671875,2.246170614810288,-2.07994749469161,0.4122822857573628
1733511869418211600,4.652211669921875,2.0435475630551574,-2.6409032153517007,0.20555559807568788
1733511869428285700,4.66228564453125,2.1630311438307164,-3.0087019239991903,0.21001374652832747
1733511869438360600,4.672360595703125,2.203005572953075,-3.5351755293428897,0.49727556791007516
1733511869448435500,4.682435546875,1.977350166787207,-3.2007594503372907,0.8112256358616053
1733511869458510600,4.692510498046875,2.1726105808198453,-1.6206927376180886,0.6845997821159661
1733511869468585500,4.70258544921875,2.940135168251395,0.7079916174888611,0.3493397265668958
1733511869478659600,4.71265966796875,4.0243201055064795,3.7671763590127227,0.11278766333349048
1733511869488734500,4.722734375,5.175887557160854,7.43328069999218,0.10577405824437737
1733511869498809600,4.7328095703125,5.479134590920806,11.056568228030205,0.06667261256426572
1733511869508884700,4.742884765625,3.7096933073371647,11.260229682922363,-0.6462239472966641
1733511869518958600,4.75295849609375,2.0382110243327913,8.387228022745251,-1.6702694000832736
1733511869529033700,4.76303369140625,1.899627752420306,3.90110785959661,-1.9289516081906855
1733511869539108600,4.773108642578125,2.476820614393055,0.10547405238449573,-0.9447716442592442
1733511869549183500,4.78318359375,3.259327374640107,-1.7220821510374544,0.026470146839693186
1733511869559257600,4.793257568359375,3.8699665791407227,-2.728492066955566,0.4442507377523929
1733511869569332500,4.80333251953125,4.435531547161936,-3.4376305163919922,0.4546788274601102
1733511869579407400,4.813407470703125,4.996046538317203,-4.057902349373698,0.16183913288079202
1733511869589482800,4.823482666015625,5.731337666141987,-4.22313908880353,-0.576051875244081
1733511869599557600,4.8335576171875,6.72972560364604,-3.321521672746539,-0.8238392529148608
1733511869609631700,4.8436318359375,6.832693226167559,-2.252028985449672,-0.8756522961299866
1733511869619706600,4.85370654296875,6.407983128252625,-1.212387831059098,-1.2679540893279015
1733511869629781800,4.86378173828125,6.010124796906113,0.03813420808315277,-1.894494627315551
1733511869639857000,4.87385693359375,5.21884640892148,1.449484522563219,-2.503683194616437
1733511869649931800,4.883931884765625,3.9204523192748426,2.5288240656137466,-2.7105221105009316
1733511869660006000,4.894005859375,2.6679440747514365,3.0851521264731883,-2.690892404140532
1733511869670080800,4.904080810546875,1.8399604885734617,3.0389819114506245,-2.71886206882298
1733511869680155600,4.91415576171875,1.29491545375064,2.367565582165122,-2.7344989061549305
1733511869690230800,4.924230712890625,1.0875203652881085,1.3499153103083372,-2.694341960072517
1733511869700304600,4.9343046875,1.1364765577673912,0.2523392688214779,-2.492554774619639
1733511869710379800,4.9443798828125,1.5986967405177652,-0.9386322647213935,-2.0003733149781824
1733511869720454700,4.95445458984375,1.7084768195331095,-1.841641427397728,-1.384858321134746
1733511869730529800,4.96452978515625,0.9401941072106361,-1.9274702835917472,-1.0197434447437523
1733511869740604700,4.974604736328125,-0.20476094056665897,-1.20207101970613,-1.0142923397310077
1733511869750678800,4.9846787109375,-1.3034259463340043,-0.3410533250629902,-1.0946280784014613
1733511869760753700,4.994753662109375,-2.0860580865263936,0.18289923737049102,-1.1039878082253038
1733511869770828800,5.004828857421875,-2.4723031369686126,0.3219640091896057,-0.9112327280770987
1733511869780904000,5.014904052734375,-2.5720342617869374,0.14106500572562217,-0.5621618815794587
1733511869790977800,5.024977783203125,-2.4157471370100976,-0.1204027414470911,-0.15749189745672046
1733511869801053000,5.035052978515625,-2.2357366068184374,-0.2259860994249582,0.2678219385050237
1733511869811127600,5.04512744140625,-2.2714742751538752,-0.0740998399555683,0.6290218334093689
1733511869821202700,5.05520263671875,-2.5225018768548964,0.18812135593295096,0.811385940989852
1733511869831277800,5.06527783203125,-2.8104934738159177,0.35190263585746284,0.9252812002390622
1733511869841351700,5.0753515625,-3.0251076998770237,0.35790567566454407,1.0040461093962192
1733511869851426800,5.0854267578125,-3.154554748523235,0.27570377779603,0.9737661219447851
1733511869861501700,5.095501708984375,-3.1923043412029743,0.21497662963271139,0.8356187572315334
1733511869871576800,5.105576904296875,-3.0926562184929844,0.18778759393393993,0.6631028205789625
1733511869881650700,5.115650634765625,-2.925772880899906,0.24105565826296804,0.4592994729980826
1733511869891725800,5.125725830078125,-2.7054958067715167,0.266703309738636,0.27728213302865623
1733511869901800700,5.13580078125,-2.489928810030222,0.1412298408985138,0.08978796908333897
1733511869911875800,5.145875732421875,-2.2501452175296843,-0.019337737676501272,-0.08364610532745718
1733511869921950700,5.15595068359375,-1.9986533593177793,-0.15998481025099753,-0.18264497034847735
1733511869932024800,5.16602490234375,-1.7221242366135119,-0.27086276750564575,-0.21048903588987886
1733511869942099700,5.176099609375,-1.4585796831667421,-0.3617348785638809,-0.16086276212930678
1733511869952174600,5.186174560546875,-1.2273241189062594,-0.41555180894732474,-0.11276808185018598
1733511869962249700,5.196249755859375,-0.9979320104300975,-0.37417233533263206,-0.11090689108818769
1733511869972324900,5.206324951171875,-0.788825222678855,-0.18272972602248191,-0.07468005099631846
1733511869982398700,5.216398681640625,-0.6084368721507489,0.07801496757268905,-0.008558131117373705
1733511869992473900,5.226473876953125,-0.4176409632463008,0.2978530657619238,-0.08286233453862368
1733511870002548700,5.236548828125,-0.23444018564596772,0.36720249632000923,-0.30909948611520227
1733511870012624000,5.246623779296875,-0.22529234500713646,0.28754151510596276,-0.474614604094997
1733511870022697700,5.25669775390625,-0.3068330755531788,0.14617664965093136,-0.5604875916916877
1733511870032772900,5.26677294921875,-0.4108055642683059,-0.00873626416325569,-0.72420735068731
1733511870042847700,5.27684765625,-0.5054981103975326,-0.058250528916716574,-0.9066900431461632
1733511870052922600,5.286922607421875,-0.6024108167942613,0.011138064607977867,-1.0602917282313107
1733511870062997800,5.296997802734375,-0.7001508408606052,0.14940028787255286,-1.2328832143381236
1733511870073071600,5.307071533203125,-0.8385095102369785,0.25968203279972074,-1.4232039800114928
1733511870083146800,5.317146728515625,-1.0249042615730315,0.28618191719055175,-1.5810564544089138
1733511870093221600,5.3272216796875,-1.2217946148950607,0.22168752544820308,-1.640539301599562
1733511870103296800,5.337296875,-1.4128021207235752,0.08437281216681003,-1.5201849293388425
1733511870113370600,5.34737060546875,-1.6375182002127169,0.0010755202770233153,-1.3765528496041892
1733511870123445800,5.35744580078125,-2.0240040736734866,0.23120880250930784,-1.340851713886857
1733511870133521000,5.36752099609375,-2.6522002699136733,0.8093944749116897,-1.423225168929994
1733511870143595800,5.377595703125,-3.4240395056739446,1.6041764871031046,-1.6958616681098937
1733511870153671000,5.3876708984375,-4.267650722964108,2.378402617999911,-2.263500958187133
1733511870163744800,5.397744873046875,-5.262164157122373,2.9915076280921697,-3.1074931376188992
1733511870173820000,5.40781982421875,-7.272178283888101,3.6167023044288156,-4.293931119385362
1733511870183894500,5.41789453125,-11.733486661863326,4.3919495950669045,-5.896797108411788
1733511870193969700,5.4279697265625,-16.592950308305024,5.144519189950824,-6.890970643091201
1733511870204043500,5.43804345703125,-17.869323997062445,5.61598051764667,-6.4014271307379005
1733511870214118700,5.44811865234375,-14.774360086148976,5.589621503031253,-5.030222948685288
1733511870224193800,5.45819384765625,-9.593369652891159,4.97686252989769,-3.6442455603927373
1733511870234268700,5.4682685546875,-5.108066651344299,4.079883879557252,-2.7874516209244726
1733511870244343800,5.47834375,-2.1171908914148805,3.222834504023194,-2.0834899896040557
1733511870254417700,5.488417724609375,-0.04108255476104095,2.5991718595594167,-1.3498103886291384
1733511870264492800,5.498492919921875,1.2919663946866988,2.21516026725769,-0.7248395841762423
1733511870274568000,5.50856787109375,2.2323498869895935,2.129272958874702,-0.642165904077515
1733511870284642800,5.518642822265625,3.3046015176057812,2.035089531311393,-0.8806005661871283
1733511870294717700,5.5287177734375,4.817807693973183,1.9406185189783571,-1.256592591227591
1733511870304791800,5.538791748046875,6.450344014120102,1.9404402398020029,-1.8727470520183442
1733511870314866700,5.54886669921875,7.822620793840288,2.084638282856345,-2.2303474611259997
1733511870324941600,5.558941650390625,8.473142803657055,2.1658722124755383,-2.158735200202465
1733511870335016700,5.5690166015625,8.360441138106584,2.05892925658226,-1.9829336660079657
1733511870345090600,5.579090576171875,8.327208730590343,1.8676514824450015,-2.3217229916617272
1733511870355165700,5.589165771484375,7.9501465190351,1.712213667973876,-2.7688649938762184
1733511870365240800,5.59924072265625,7.265066990578174,1.7443647099941968,-3.2178599304810165
1733511870375315700,5.609315673828125,6.5450096722424025,1.8033499829262494,-3.4533559087902304
1733511870385390800,5.619390869140625,6.045428165477514,1.7184703902810812,-3.3959643347904085
1733511870395464700,5.629464599609375,5.843848193034529,1.3103840949088335,-3.180029089258611
1733511870405539800,5.639539794921875,5.504824912494421,0.6399000780373811,-3.027505408668518
1733511870415614700,5.64961474609375,4.975483058238029,0.00044072950482368465,-3.238030904111266
1733511870425689600,5.659689697265625,4.295016576534509,-0.47768239416778085,-3.6694951524615287
1733511870435763700,5.669763671875,3.711273854526877,-0.8423159167826175,-4.057551928500831
1733511870445838600,5.679838623046875,3.1126208558961745,-1.2100023972272873,-4.2701375713437795
1733511870455913700,5.689913818359375,2.592878020112216,-1.4431091423124074,-4.3135383216530085
1733511870465988600,5.699988525390625,2.2187334495693443,-1.5089537796199322,-4.146011425459385
1733511870476063700,5.710063720703125,1.925065706668049,-1.391439745351672,-3.91305344119519
1733511870486137600,5.7201376953125,1.6636002975828945,-1.200791501289606,-3.4897473648592827
1733511870496212700,5.730212646484375,1.5200763543978333,-0.950657049036026,-2.771484528724849
1733511870506287900,5.740287841796875,1.6584420380368827,-0.7466483881413937,-1.9345115804053843
1733511870516362800,5.75036279296875,2.15644182856828,-0.5866752683281898,-1.1305833350103347
1733511870526437600,5.760437744140625,2.7294863386899233,-0.5311018496662377,-0.30042715403363107
1733511870536511700,5.77051171875,3.272029912085831,-0.577915038767457,0.5106168416507542
1733511870546586600,5.780586669921875,3.8230318094864484,-0.7107569905489682,1.1687063641123472
1733511870556661800,5.790661865234375,4.376512664221227,-0.9498983396232128,1.717967409195006
1733511870566736600,5.800736572265625,4.858702306680381,-1.2480308068484067,2.20165839612782
1733511870576810800,5.810810791015625,5.262003998124599,-1.586739614611864,2.7101754890203473
1733511870586885600,5.8208857421875,5.572718299025297,-1.8024603406101465,3.2487317463457583
1733511870596960800,5.830960693359375,5.599720872241258,-1.8788626122891903,3.7661850098878142
1733511870607036000,5.841035888671875,5.338820695823431,-1.8197136732280252,4.268225015720724
1733511870617111000,5.851111083984375,4.8624891317427155,-1.6893109312921761,4.748303072853386
1733511870627185000,5.861184814453125,4.255042878064513,-1.6144091273039578,5.212303855410218
1733511870637260000,5.871260009765625,3.6183497793748973,-1.5192255827873944,5.54400892189145
1733511870647335000,5.8813349609375,2.991185848791897,-1.3623819931715726,5.728512087327242
1733511870657409800,5.891409912109375,2.2055027965962886,-1.0829162324935198,5.877910037112236
1733511870667484000,5.90148388671875,0.7368658297955989,-0.49539749907851216,6.09924100420773
1733511870677558800,5.911558837890625,-2.0217504495278,0.40375323460400103,6.639415802645683
1733511870687633700,5.921633544921875,-5.269886275807023,1.251100131291151,7.257846976196766
1733511870697708800,5.931708740234375,-9.095729343321919,1.4523656309574842,6.491680233114957
1733511870707784000,5.941783935546875,-9.718668349686265,1.2915905471116305,4.5682317523851985
1733511870717857800,5.95185791015625,-9.964917484939098,1.1778753206044434,2.887004758827388
1733511870727933000,5.961932861328125,-9.644339961671829,1.2813099761158226,1.153308450102806
1733511870738007800,5.9720078125,-8.16609462404847,1.2579787848889827,-0.46552287755757565
1733511870748083000,5.9820830078125,-5.809902668812871,1.1551707368433475,-1.5199933522894977
1733511870758158000,5.992157958984375,-3.7476819694697854,0.9444242921262979,-2.4648735714897514
1733511870768232000,6.00223193359375,-2.4312870898388326,0.5029921919912099,-3.2661955068439243
1733511870778307000,6.01230712890625,-1.8685528151988982,0.04055003705322742,-4.108315608793497
1733511870788381700,6.022381591796875,-2.6349849312186238,-0.328351079878211,-5.113641821128129
1733511870798456800,6.032456787109375,-4.281006755882501,-0.7182944003164767,-6.263226866793632
1733511870808530700,6.04253076171875,-1.8021818159297107,-1.7887340130746363,-5.895823294943571
1733511870818605800,6.052605712890625,0.6707109574951231,-2.5090590424358843,-4.489399623210728
1733511870828680700,6.0626806640625,0.835186064902693,-2.0263725563704966,-3.0969416407272217
1733511870838755800,6.072755859375,1.0483435162842274,-0.7251192779004574,-1.6928271227195857
1733511870848831000,6.0828310546875,1.7874615089207886,0.865396348118782,-0.7330548932053148
1733511870858904800,6.09290478515625,3.0900457437336444,3.3460417814970014,-0.057957756515219803
1733511870868980000,6.10297998046875,4.776683364163339,6.871961406716704,0.7227594169013202
1733511870879054800,6.113054931640625,5.776144191595912,10.484396116828918,1.5009315089449287
1733511870889130000,6.1231298828125,5.011070504447818,11.58425822342634,1.79539917005226
1733511870899204900,6.133204833984375,3.6983997599065304,8.947354891365766,0.7635280651412903
1733511870909279000,6.143279052734375,3.3195813523337243,3.855707459902763,-0.19618797720633446
1733511870919353900,6.153353759765625,3.5750738244891163,-0.10290040250420569,-0.0408624640032649
1733511870929428700,6.1634287109375,4.071964192473888,-2.057576672929525,0.42152094648480415
1733511870939503900,6.17350390625,4.467457548254728,-3.2053438555181026,0.9374971962768583
1733511870949577700,6.18357763671875,4.73007475772351,-4.04277316930294,1.2243394040070474
1733511870959652900,6.19365283203125,5.325736757844687,-4.808620763432979,1.2461882477216422
1733511870969727700,6.203727783203125,6.3387885959953065,-5.323835892659425,1.2283968627043067
1733511870979803000,6.213802978515625,6.936214975440501,-4.863664020740986,1.3104260343544185
1733511870989878000,6.2238779296875,6.911918154051899,-3.9840339800864455,1.4078601342767476
1733511870999952000,6.233951904296875,6.574881078892946,-2.676493584170937,0.9802255272172391
1733511871010027000,6.244027099609375,5.487441231495142,-0.9778279645562171,0.33404169273525475
1733511871020102000,6.254101806640625,3.9005110627472397,0.6633493426859378,-0.05809110057130456
1733511871030176800,6.2641767578125,2.6523452313423155,2.0892571748286484,-0.4946728380657732
1733511871040252000,6.274251953125,1.843916386592388,3.0330875927150247,-0.8857033692188561
1733511871050325800,6.28432568359375,1.357507665133476,3.460715039381385,-1.1291248067650943
1733511871060401000,6.29440087890625,1.1000520762115715,3.310761793801188,-1.2101461896121501
1733511871070475800,6.304475830078125,1.0913923844158648,2.518923433846235,-0.9732921477574854
1733511871080551000,6.314551025390625,1.1563481100596487,1.6822919924408197,-0.8204916960526257
1733511871090624800,6.324624755859375,1.1146465648837387,0.7933060944199561,-0.694497125947848
1733511871100700000,6.334699951171875,1.1478386403895915,0.04662438853085041,-0.4667726584229618
1733511871110774800,6.34477490234375,1.421396346067637,-0.5971650981605052,-0.23420265056304632
1733511871120850000,6.354849853515625,1.3609499145418404,-0.8470499595671892,-0.28561807276271284
1733511871130925000,6.364925048828125,0.3103448830664158,-0.5057324306100607,-0.6579547171007841
1733511871140999000,6.3749990234375,-1.0665917051583529,0.30641514240205286,-1.0136476120866835
1733511871151074000,6.385073974609375,-2.115175459939241,0.9589385551691054,-1.1497991268076002
1733511871161148700,6.395148681640625,-2.757778951716423,0.9443582411527633,-1.0465250686854124
1733511871171223800,6.405223876953125,-2.9939877544701097,0.4485767111927271,-0.8027046218842268
1733511871181299000,6.415298828125,-2.92330386043787,-0.09374269805848598,-0.584459345844388
1733511871191372800,6.425372802734375,-2.745646615374088,-0.4807341829538345,-0.5051809342071414
1733511871201448000,6.435447998046875,-2.6628338921308514,-0.6674491792201995,-0.5486164635688067
1733511871211522800,6.445522705078125,-2.7331822705984115,-0.6154618023514747,-0.6825451876737177
1733511871221598000,6.455597900390625,-2.829963897961378,-0.5533218647807836,-0.7664009902290999
1733511871231672800,6.4656728515625,-2.8759704468548297,-0.5876385604023933,-0.7178156768888234
1733511871241747000,6.475746826171875,-2.827623472315073,-0.5902291614174843,-0.5460799308285117
1733511871251821800,6.48582177734375,-2.6926313567623494,-0.5597346544325351,-0.4087643407642841
1733511871261897000,6.49589697265625,-2.4872563759505746,-0.41273149082958693,-0.419184320230782
1733511871271971800,6.505971923828125,-2.2215642890810967,-0.21862872239947317,-0.5540921185009181
1733511871282046000,6.5160458984375,-1.9371394446909427,-0.0772416451126337,-0.7235946986816824
1733511871292120800,6.526120849609375,-1.5835925487577913,-0.006202946293354034,-0.8438817047946154
1733511871302195700,6.53619580078125,-1.1808943030994385,-0.051370706275105475,-0.7978028213173151
1733511871312270800,6.546270751953125,-0.7763795095384121,-0.15337795933187007,-0.5997071838587522
1733511871322346000,6.556345947265625,-0.40818803871367126,-0.26875322800576684,-0.26563202724531293
1733511871332419800,6.566419921875,-0.102416345314309,-0.332841961556673,0.09677855862304567
1733511871342495000,6.576494873046875,0.08400280981063843,-0.3573521334350109,0.4142426260448992
1733511871352569900,6.58656982421875,0.17660163506362586,-0.3623760990768671,0.6432390132017434
1733511871362645000,6.59664501953125,0.22177114861104635,-0.3361760744154453,0.7990820474728941
1733511871372719900,6.606719970703125,0.200607985605672,-0.24021803839504718,0.9432697152636945
1733511871382794000,6.6167939453125,0.17557050191760062,-0.08794950160980224,1.0929048348054289
1733511871392868900,6.626868896484375,0.13751341419126836,0.12402210098803043,1.1309363131664694
1733511871402943700,6.63694384765625,-0.019623568880558013,0.3593377542942762,1.0312880443260073
1733511871413019000,6.647018798828125,-0.21067929776497185,0.6081085169792175,0.8496039548989385
1733511871423092700,6.6570927734375,-0.48472288726381957,0.809694334641099,0.6011057986102998
1733511871433168000,6.66716796875,-0.7824257309000938,0.8550450499743223,0.32111988651566203
1733511871443242800,6.67724267578125,-1.003283892852068,0.7473270180553198,0.07112089721001684
1733511871453318000,6.68731787109375,-1.1972411153316498,0.575061402902007,-0.14151727953776716
1733511871463393000,6.69739306640625,-1.3659738801836967,0.4417559252619743,-0.3370848598234355
1733511871473467000,6.707466796875,-1.4406838148616254,0.38828503183722496,-0.5150208487633615
1733511871483542000,6.7175419921875,-1.3969699069499968,0.3699088326692581,-0.735693717276305
1733511871493617000,6.727616943359375,-1.2952936394132673,0.36191900295913215,-1.0999863905642182
1733511871503692000,6.737692138671875,-1.2638102675214409,0.3131745535343885,-1.5616796998962759
1733511871513766700,6.7477666015625,-1.4001311474598943,0.31212358317673206,-2.0613065071076155
1733511871523841000,6.757841064453125,-1.7759646940030156,0.49781508161425586,-2.504654669997096
1733511871533915600,6.76791552734375,-2.4051133686624464,0.8095669088691473,-2.752938818208873
1733511871543990800,6.77799072265625,-3.1157354807853697,1.1427052230238914,-2.8812001642018554
1733511871554066000,6.78806591796875,-3.7734383420169353,1.3905956957429646,-3.0106144796222445
1733511871564139800,6.798139892578125,-4.257027622140944,1.4739911873102187,-3.1790473847448824
1733511871574215000,6.80821484375,-4.684252333225309,1.5166513483852146,-3.3864436422511934
1733511871584289800,6.818289794921875,-5.357097526270151,1.7931968377023935,-3.674561788201332
1733511871594364700,6.82836474609375,-6.604387159362435,2.423805940303206,-4.131152002240717
1733511871604439600,6.838439453125,-8.416928164482115,3.3514714053303,-4.741327096360922
1733511871614513700,6.848513671875,-10.415845727694034,4.180607522544265,-5.238312741413712
1733511871624588500,6.858588623046875,-11.86783434203267,4.564845909339189,-5.1574359546691175
1733511871634663700,6.86866357421875,-11.865946336328983,4.430390677142143,-4.286556791225076
1733511871644738600,6.878738525390625,-10.325915865921974,3.872867853540182,-3.1202126261994243
1733511871654813400,6.8888134765625,-7.874808661717176,3.147989398658275,-2.2011551227807997
1733511871664887600,6.898887451171875,-5.281018495196104,2.541866502538323,-1.4748215006545184
1733511871674962400,6.90896240234375,-3.120325146663189,2.0708219389498232,-0.7815713790930807
1733511871685037600,6.91903759765625,-1.4092846141219137,1.771134643498063,-0.32153584690541026
1733511871695112400,6.929112548828125,0.024002222356200215,1.7382628859877585,-0.17109094535075128
1733511871705187600,6.9391875,1.2745716077715157,1.94270233951509,-0.07800576135292649
1733511871715261400,6.949261474609375,2.4933278048187493,2.0916139670878646,-0.055337344883754844
1733511871725336600,6.959336669921875,3.848060744541883,2.2613129466235637,-0.3298827464248985
1733511871735411700,6.96941162109375,4.99812217554748,2.575698629513383,-0.759222111575678
1733511871745486600,6.979486572265625,6.086805301004648,3.095838940182328,-1.0882391080167144
1733511871755560700,6.989560791015625,7.126649869012832,3.6063346396714446,-1.1665540814492852
1733511871765635600,6.999635498046875,7.831656917732953,3.7812440473318096,-1.4360203530952333
1733511871775710500,7.00971044921875,8.561210378688573,3.643144905674457,-2.053705676715076
1733511871785785600,7.01978564453125,8.937071982282399,3.3827076705932617,-2.8141856063321233
1733511871795860500,7.029860595703125,8.675721724009513,3.1103882745385167,-3.391466731110215
1733511871805934600,7.0399345703125,8.0952990863353,2.9368945788949725,-3.6404181110590694
1733511871816009500,7.050009521484375,7.394161572524904,2.4691794519901276,-3.5347023588731883
1733511871826084600,7.060084716796875,6.691973672878742,1.6313064860910176,-3.2746082381412385
1733511871836159500,7.070159423828125,5.833928856566548,0.5987760404884814,-3.1276611886397
1733511871846234600,7.080234619140625,5.058524914062023,-0.3624439036160707,-3.3566406246617433
1733511871856308500,7.09030859375,4.255314388482272,-1.254818859553337,-3.649719900150597
1733511871866383600,7.100383544921875,3.5088720443069934,-1.9922540136694906,-3.7892955441012974
1733511871876458800,7.110458740234375,2.7715415196090936,-2.5818442926615477,-3.7248897074252363
1733511871886533400,7.120533447265625,2.0174188500642773,-2.9026795900821685,-3.3345138407886026
1733511871896607700,7.130607666015625,1.255227148093283,-2.8981027836859226,-2.8163801937669515
1733511871906682400,7.140682373046875,0.6278472366720438,-2.740169645267725,-2.1526322071522475
1733511871916757500,7.150757568359375,0.4373717188283801,-2.3033710501521822,-1.324704296684265
1733511871926832600,7.16083251953125,0.8494438689664006,-1.888960227933526,-0.48328547487184403
1733511871936907500,7.170907470703125,1.5901578986227511,-1.649208053484559,0.2550282887097448
1733511871946981600,7.180981689453125,2.4438670238181945,-1.526874636235833,0.9114467361539602
1733511871957056500,7.191056396484375,3.3446912436708804,-1.3629700221925973,1.4791419942021369
1733511871967131600,7.201131591796875,4.066139724104106,-1.2723919256448746,1.894489805009961
1733511871977206500,7.21120654296875,4.571659681007266,-1.2835463568657637,2.334896069228649
1733511871987281700,7.22128173828125,5.005130008482933,-1.3578788365334271,2.7070950586616993
1733511871997355500,7.23135546875,5.349793925258517,-1.5324936451613902,3.018236645063758
1733511872007430700,7.2414306640625,5.4223740083009,-1.7618179490983485,3.3070074097037314
1733511872017505500,7.251505615234375,5.210978744286298,-1.9189555532246827,3.6548558017343282
1733511872027580400,7.261580322265625,4.842105684405565,-1.9642396330624818,4.072834837828577
1733511872037655600,7.271655517578125,4.451177736844122,-1.8937895477861164,4.526980289064348
1733511872047729400,7.2817294921875,4.012164388288557,-1.702064029881358,4.913633043524623
1733511872057804500,7.291804443359375,3.3577070848494768,-1.4720131652355193,5.190314726442098
1733511872067879700,7.301879638671875,2.339994853672385,-1.2208557996749878,5.313536032441258
1733511872077954600,7.31195458984375,0.966638169761002,-0.9633733227461576,5.393395166575909
1733511872088028700,7.322028564453125,-1.193514496023953,-0.506132828104496,5.626882435411215
1733511872098103600,7.332103515625,-7.772504471540451,0.6293921280264854,5.62806492319405
1733511872108178700,7.3421787109375,-10.77594745209813,1.0275275227487086,4.076469979460537
1733511872118253600,7.352253662109375,-8.504035954570769,0.6042383975476027,2.985992079541087
1733511872128328400,7.362328369140625,-5.642858587700128,0.40373452990353104,2.1002976242810485
1733511872138402600,7.372402587890625,-2.8287223734676834,0.5149246218472718,1.0382061531513929
1733511872148477400,7.3824775390625,-0.8592107913516461,0.684602558594942,-0.2648172037310898
1733511872158552600,7.392552490234375,0.01666881072819233,0.47465749338865276,-1.533359614340961
1733511872168627500,7.40262744140625,-0.08158698084056377,0.32630583778619765,-2.8247514240100977
1733511872178702600,7.41270263671875,-0.9455405828051269,0.08133212929666042,-4.16431631295681
1733511872188776400,7.4227763671875,-2.2516186510831115,-0.27211247530579563,-5.46178247410357
1733511872198851600,7.4328515625,-3.394371804901957,-0.6237719500571489,-6.589668313658237
1733511872208926700,7.4429267578125,-4.879125209245085,-1.0595055462896823,-7.4667568531364195
1733511872219001600,7.453001708984375,-6.855038913488388,-1.2599796033173798,-7.7058040941864245
1733511872229076700,7.46307666015625,-5.438010553371906,-1.833379210487008,-5.634373667949438
1733511872239150600,7.473150634765625,-2.4070658179044724,-2.2971435539394616,-3.962380658943951
1733511872249225700,7.483225830078125,-0.45872854124233126,-1.488108559989929,-2.7582167586117983
1733511872259300400,7.49330029296875,0.28743980829715726,-0.14363573299646376,-1.3885105600319803
1733511872269375500,7.50337548828125,0.8691555545218288,1.8248679872512816,-0.014648849207907915
1733511872279450600,7.51345068359375,1.850439212489873,4.6175241910815235,0.9623945408418774
1733511872289524500,7.5235244140625,3.2229157525658607,8.351231411212682,1.685130869128555
1733511872299599600,7.533599609375,3.971571388876438,11.83461596304178,2.652251123318076
1733511872309674500,7.543674560546875,3.0536344139203426,12.973844449865817,3.3318706328034398
1733511872319749600,7.55374951171875,1.92300745896399,10.86358481901884,2.8806705873697993
1733511872329823500,7.563823486328125,1.7540321175277231,5.465631550747156,2.1088835201881824
1733511872339898600,7.573898681640625,2.312772646356374,0.8178419852614403,2.4750527279376984
1733511872349973800,7.583973876953125,2.9136697706520556,-1.5257710589081048,3.3220950887203213
1733511872360048600,7.594048583984375,3.005623247206211,-3.1840508921205997,4.005003702878952
1733511872370123500,7.60412353515625,2.873438882550597,-4.566171020463109,4.0404233913064
1733511872380197600,7.61419775390625,2.7335797454833983,-5.60529428845942,3.466590945677459
1733511872390272500,7.6242724609375,2.8219623778134584,-6.506023231244087,2.85571559433341
1733511872400347400,7.634347412109375,3.1840023768037558,-6.778577605098485,2.650633751249313
1733511872410422500,7.644422607421875,4.0322897692114115,-5.489661245632171,2.8777871408879756
1733511872420497700,7.65449755859375,4.881851419338584,-3.472471528148651,2.828161816975474
1733511872430571500,7.664571533203125,5.27614066002667,-1.6250573625683784,2.281757038106769
1733511872440646700,7.674646728515625,5.605902191224694,0.36992110762894154,1.6729254675500094
1733511872450721500,7.684721435546875,5.811201476451754,2.42353822927773,0.90605262202546
1733511872460796700,7.694796630859375,5.951655656802654,3.8923891310900447,-0.09206307440847158
1733511872470870500,7.70487060546875,5.335388967809081,4.6496284713506695,-1.0004197355926037
1733511872480945700,7.714945556640625,4.434607418054342,4.881924484574794,-1.8404247450843452
1733511872491020800,7.725020751953125,3.507787171679735,4.2983617953091855,-2.3952187282443047
1733511872501095400,7.735095458984375,2.826270888662338,2.8959616800040004,-2.4665277684375644
1733511872511170600,7.745170654296875,2.519274146980047,1.3752040653437376,-2.308542023049295
1733511872521244400,7.755244384765625,2.2774697161763906,0.14096563700437545,-1.973634945656359
1733511872531319600,7.765319580078125,1.7479085200808941,-0.8399690613955259,-1.2724154526509344
1733511872541394400,7.77539453125,1.7930647357553242,-1.5723036775022745,-0.9646954381953924
1733511872551469600,7.785469482421875,2.239284654688835,-1.7979916707634924,-1.2096234078470616
1733511872561544700,7.795544677734375,1.357392514321208,-1.387006731340289,-1.505255509623885
1733511872571618600,7.80561865234375,-0.3621358605802059,-0.2136164471954107,-1.5965546139225362
1733511872581693700,7.815693603515625,-1.836607524883747,0.9255974265813827,-1.7360450638078153
1733511872591769000,7.82576904296875,-2.8746599487781523,1.2768226015686988,-1.7530404761418699
1733511872601843700,7.83584375,-3.3277193583428857,0.9201298088252544,-1.5096376702308654
1733511872611918800,7.8459189453125,-3.338600817841291,0.1885030487269163,-1.1087964506160468
1733511872621992700,7.85599267578125,-3.1948423352479933,-0.385381127089262,-0.8054650995735079
1733511872632067800,7.86606787109375,-3.2151275829076766,-0.5649731396079063,-0.8499117056738584
1733511872642143000,7.87614306640625,-3.5521231570124625,-0.45880175260901446,-1.1389585838414729
1733511872652217900,7.8862177734375,-4.063777671147883,-0.12962883495390415,-1.5448608131729065
1733511872662293000,7.89629296875,-4.524795638501644,0.2340168456673622,-1.9454785262301564
1733511872672366800,7.906366943359375,-4.789233341395855,0.41151685434281826,-2.2513516707099974
1733511872682442000,7.91644189453125,-4.842652796894312,0.3387304350733757,-2.3998361589118837
1733511872692517000,7.92651708984375,-4.64630838701725,0.06056114394664764,-2.2678509700901803
1733511872702592000,7.936592041015625,-4.256606474119424,-0.2932078703045845,-1.8349305315822362
1733511872712667000,7.9466669921875,-3.9000025287032125,-0.48182197819054123,-1.312253395912051
1733511872722741000,7.956740966796875,-3.647151218706369,-0.403283279004693,-0.8451987056773156
1733511872732816000,7.96681591796875,-3.489543074458837,-0.15879063203036783,-0.449764386607334
1733511872742890800,7.976890869140625,-3.3344261625051494,0.10958557935655117,-0.11508322692476212
1733511872752966000,7.9869658203125,-3.1256314363777635,0.3340279564708471,0.11573920661546289
1733511872763039700,7.997039794921875,-2.8332641085505483,0.513633997514844,0.21602190090194343
1733511872773115000,8.007114990234374,-2.543713007187843,0.6864613382041453,0.22296083331964908
1733511872783190000,8.01718994140625,-2.3104268138825894,0.8901111026585101,0.14075754721164702
1733511872793265000,8.027264892578126,-2.1653705465637145,1.0339303755283356,0.01835033407434821
1733511872803340000,8.037340087890625,-2.0824258675038814,1.0071475825428962,-0.10178886106573044
1733511872813414000,8.047413818359376,-2.0337901391506192,0.8305693648874759,-0.24839111571758984
1733511872823489000,8.057489013671875,-1.9648400831736623,0.5823270099908113,-0.4723359185732901
1733511872833564200,8.067564208984376,-1.797037731039524,0.36026772862076756,-0.7025856667920947
1733511872843638800,8.077638671875,-1.575927274826914,0.20741993064284323,-0.7557747476007789
1733511872853714000,8.0877138671875,-1.3870306967377661,0.15321253963708878,-0.5860778138916939
1733511872863787800,8.097787841796874,-1.3521639660179614,0.27240473625063893,-0.2542125884126872
1733511872873863000,8.10786279296875,-1.48831197360754,0.577047608283162,0.1044200863521546
1733511872883937800,8.117937744140624,-1.7500480163276195,1.1266606816738842,0.26882183626256884
1733511872894013000,8.128012939453125,-2.1213445039629937,1.8046125502079724,0.15798640297539532
1733511872904088000,8.138088134765624,-2.449576925897598,2.5263357559293507,-0.2660455764822662
1733511872914162000,8.148161865234375,-2.7067361622214317,3.1101030278563497,-0.8237220562759786
1733511872924237000,8.158237060546876,-2.8679566517472264,3.3594892920911312,-1.289907416330278
1733511872934312000,8.16831201171875,-2.9964018298745154,3.23130948690176,-1.5702173727475106
1733511872944387000,8.178386962890626,-3.1127555881917477,2.7375837204277516,-1.67037359111011
1733511872954462000,8.1884619140625,-3.2185014432549477,2.0932178951531646,-1.526749840812385
1733511872964536000,8.1985361328125,-3.303388050162792,1.3697656736820936,-1.1901133823435752
1733511872974611000,8.20861083984375,-3.112741559666395,0.7812421471387148,-0.9343841788228601
1733511872984685800,8.218685791015625,-2.609931738504767,0.3820522749274969,-0.7557938906926661
1733511872994761000,8.228760986328124,-1.884903646019101,0.26025311068594453,-0.6024590398501605
1733511873004835800,8.2388359375,-0.9588619828015565,0.24337387207746505,-0.45764907544255257
1733511873014910000,8.248909912109376,0.07585873938687145,0.28929741886258126,-0.17853819261677562
1733511873024984800,8.25898486328125,1.1978788287132978,0.5638900205463171,-0.2318087411638349
1733511873035060000,8.26906005859375,2.4330197588503357,0.7102782671213149,-0.43692397506088015
1733511873045135000,8.279135009765625,3.688324940615892,0.8544125972896813,-0.6445424239505082
1733511873055210000,8.2892099609375,4.655599946975708,1.0814210254997014,-0.8988092267684638
1733511873065284000,8.2992841796875,5.288584546536207,1.452414146274328,-1.2834919963300226
1733511873075359000,8.30935888671875,5.768988474622368,1.933393828421831,-1.8745315973475574
1733511873085433900,8.319433837890625,6.334121188706159,2.3230320284336803,-2.5947829769507047
1733511873095509000,8.329509033203125,6.775968883904814,2.37758428735435,-3.0385300760298968
1733511873105582800,8.339582763671874,6.925000338464975,2.139644715285301,-3.3161399797081947
1733511873115658000,8.349657958984375,6.673044516003132,1.719754000350833,-3.4642435057684775
1733511873125732900,8.35973291015625,6.103603291070461,1.1884352930635214,-3.372754724116623
1733511873135808000,8.36980810546875,5.366751489800214,0.6156926884979009,-3.088699882082641
1733511873145883000,8.3798828125,4.739919567650556,0.04338555274009704,-2.9182696656629443
1733511873155957000,8.38995703125,4.239691579675674,-0.47367841922342774,-2.718891294917464
1733511873166032000,8.400031982421876,3.8230671730607746,-0.9424439319640397,-2.4413550409972666
1733511873176107000,8.41010693359375,3.4689380933254954,-1.3216834875583647,-2.074682413770258
1733511873186182100,8.42018212890625,3.1793606884777543,-1.5366776528477668,-1.6907400873124598
1733511873196256800,8.4302568359375,2.8267455204367637,-1.6956155843943357,-1.2036328621953725
1733511873206331100,8.4403310546875,2.4447066895127296,-1.7524942404359578,-0.6440641389142722
1733511873216405800,8.45040576171875,2.038103910696506,-1.6954408123493194,-0.09538016306720673
1733511873226481000,8.46048095703125,1.5773594995871185,-1.4049883782327175,0.4982813108865171
1733511873236556000,8.47055615234375,1.0866035427041352,-0.9132271898299456,1.175965541460365
1733511873246631000,8.480630859375,0.6664955317571759,-0.42640287330746646,1.8923235668867826
1733511873256705000,8.490705078125,0.4037077880270779,-0.11905015779435633,2.593126734176278
1733511873266780000,8.50077978515625,0.2974680119670927,0.012537994533777236,3.312817557287216
1733511873276855000,8.51085498046875,0.3650874038621783,-0.04386895234286785,3.8786744939923286
1733511873286930000,8.520929931640625,0.5813455977380275,-0.17907704873383043,4.218807197079062
1733511873297005000,8.531005126953126,0.8425470951899886,-0.36322190225124357,4.466440480166673
1733511873307079000,8.541078857421875,0.9969856694906949,-0.6343003583341836,4.634888875119388
1733511873317154000,8.551154052734375,1.11814595130682,-1.0005424851894378,4.6001545386075975
1733511873327229000,8.56122900390625,1.1176862248405814,-1.4019073633521795,4.426636293044686
1733511873337303800,8.5713037109375,1.0361382608361542,-1.6579846496582031,4.161054096290469
1733511873347379000,8.58137890625,0.9108161831654608,-1.7203204020619391,3.8086893958792087
1733511873357452800,8.591452880859375,0.7709132069565355,-1.6225152768701314,3.351190250301361
1733511873367528000,8.60152783203125,0.6037633273817599,-1.4836843138068914,2.8340613964080807
1733511873377603000,8.61160302734375,0.42474239274933934,-1.3639093488693237,2.3741641036473213
1733511873387678000,8.621677978515624,0.2396539747714996,-1.255304012721777,1.956780110836774
1733511873397753000,8.631753173828125,0.06805223035439849,-1.1082540873676539,1.4918895398333667
1733511873407827000,8.641826904296876,-0.1149142270334065,-0.9047627283453941,0.9870971665523945
1733511873417902000,8.651902099609375,-0.4172276332050562,-0.6602350100576877,0.41299481794089077
1733511873427977000,8.66197705078125,-1.0006956299245358,-0.46546413310766216,-0.2806592813115567
1733511873438051800,8.6720517578125,-2.317953556125611,-0.32484277949631213,-1.3165496318012475
1733511873448126000,8.6821259765625,-3.9620805069535967,-0.22189503071904182,-2.63674551115036
1733511873458200800,8.692200927734374,-5.200390714776516,-0.12350947529077529,-3.824150292122364
1733511873468276000,8.70227587890625,-6.684224081665277,0.04268120386302471,-4.861664663617312
1733511873478350800,8.712350830078124,-8.569957164245844,0.3840460790932178,-5.867330190908908
1733511873488426000,8.722426025390625,-9.93727427573204,0.848296160236001,-6.542226763525605
1733511873498499800,8.732499755859376,-9.507359010389447,1.5511469077050686,-5.843029277867078
1733511873508575000,8.742574951171875,-7.483277195304631,2.1685312025517223,-3.8011645533323284
1733511873518650000,8.752650146484376,-5.1389662319988005,2.376862402820587,-2.091028568415344
1733511873528725000,8.76272509765625,-3.0262732365250584,1.915023474472761,-0.6902021321676671
1733511873538800000,8.772800048828126,-1.3717698531113565,0.9511948091745376,0.4524506300166249
1733511873548874000,8.7828740234375,-0.07584478392675519,-0.22756664661467074,1.414319685679674
1733511873558949000,8.79294921875,0.7574241953082382,-0.8918646683275699,2.2526250516466795
1733511873569023700,8.803023681640624,1.2276800927370786,-0.2055214035451412,2.8959529121756553
1733511873579099000,8.813098876953125,1.7297265283107757,1.6725170328795909,3.375013901220262
1733511873589174000,8.823174072265624,2.538582658562064,4.2956800088793035,3.78441390953958
1733511873599248100,8.833248046875,3.5959319036006927,7.134172081211209,4.121417082428932
1733511873609323000,8.843322998046874,4.412584679077566,9.061248397049308,4.006403048282862
1733511873619398100,8.853398193359375,4.624594567859172,8.510048931249976,3.3704531691759825
1733511873629473000,8.86347314453125,4.4380233639776705,4.846341714540124,2.7502728138700125
1733511873639548200,8.873548095703125,3.5533722802907226,0.9544529341876506,2.5294565182983875
1733511873649622000,8.8836220703125,2.60509598891139,-1.3788649259388446,2.528560153980553
1733511873659697200,8.893697265625,2.1252451646633443,-2.758136094591021,2.267651063603908
1733511873669772000,8.90377197265625,1.8043303722657262,-3.7727035980015993,1.706793981012702
1733511873679847000,8.913846923828125,1.626563090956211,-4.575144015991688,1.2260180047437548
1733511873689922000,8.923922119140625,1.8039374274253843,-5.143851665952801,0.8352906943209469
1733511873699996000,8.933995849609374,2.1910781115330753,-5.463597999092936,0.5650919436819851
1733511873710071000,8.944071044921875,2.612113758718967,-5.311850855833292,0.3675014062013477
1733511873720146200,8.954146240234374,2.834430229720473,-4.44240669362843,0.12382701680734753
1733511873730221000,8.964220947265625,3.0550317134976384,-3.0282448288589716,-0.15192410726174713
1733511873740296200,8.974296142578124,3.223146638712287,-1.2947305987030266,-0.4206546850442886
1733511873750370000,8.9843701171875,3.104122199881077,0.3139847008734941,-0.6066488196901977
1733511873760445200,8.994445068359376,2.7592010934740303,1.5449918922066688,-0.9556270925335586
1733511873770520000,9.00452001953125,2.478938044938445,2.4904946272194386,-1.4854638907000421
1733511873780595000,9.014594970703126,2.4254027079753575,3.1928970463991164,-2.1262030499100684
1733511873790670000,9.024670166015625,2.373452155985683,3.474387006381154,-2.7610581195175645
1733511873800744000,9.034743896484375,1.9951637636363506,3.0655560301214453,-3.2226302136227485
1733511873810819000,9.044819091796874,1.4728431863188742,1.9696131427943706,-3.371846669360995
1733511873820894000,9.05489404296875,0.9164397221356629,0.9571645312339067,-3.338336613947153
1733511873830969000,9.064968994140624,0.29960546238720415,0.46408641501367087,-3.4868519356787204
1733511873841044000,9.0750439453125,-0.13797931466996669,0.202972303584218,-3.688624215823412
1733511873851118000,9.0851181640625,-0.3078757895391434,0.007612813091278076,-3.795917300328612
1733511873861193200,9.095193115234375,-0.36658228206243365,0.02060322756767273,-3.7884877348497508
1733511873871268000,9.10526806640625,-0.44840599426832045,0.2613835760205984,-3.806936414732039
1733511873881343200,9.11534326171875,-0.5277496166288852,0.5449520958423614,-4.0160371380686755
1733511873891417900,9.12541796875,-0.5975754325270652,0.64124506290555,-4.2013013510048385
1733511873901492200,9.1354921875,-0.7070230647176504,0.38583880772888657,-4.026497741806507
1733511873911566800,9.14556689453125,-0.7731395047038793,-0.07424129425287246,-3.555262916342914
1733511873921642000,9.15564208984375,-0.7910130150467157,-0.5636638105750084,-2.8346444569930433
1733511873931717000,9.165717041015625,-0.7851485069274902,-0.9494137709766626,-2.007290839281678
1733511873941792000,9.1757919921875,-0.797782363051176,-1.279293375596404,-1.2514046671956778
1733511873951866000,9.1858662109375,-0.8265069377541542,-1.442535726338625,-0.6571785450965165
1733511873961941000,9.19594091796875,-0.868751503765583,-1.5771008486509321,-0.23872801903299987
1733511873972016000,9.20601611328125,-0.8911679182350635,-1.6986486684799194,-0.0447260075636208
1733511873982091000,9.216091064453124,-0.9003846593916416,-1.714255987456441,0.04779883913770318
1733511873992166100,9.226166259765625,-0.886000744730234,-1.5393243679642676,0.18610731269679961
1733511874002240300,9.236240234375,-0.8212930024981498,-1.2221411633104085,0.3645036126248538
1733511874012315100,9.246315185546875,-0.7110077504396438,-0.8025041308760642,0.5816056369137018
1733511874022390000,9.25639013671875,-0.543415972316265,-0.25004092875123024,0.8177676779162139
1733511874032465000,9.26646484375,-0.3010895269325003,0.34620880813002586,1.0322865538440644
1733511874042540000,9.2765400390625,-0.00573299069404602,0.9016910658150911,1.257416767092049
1733511874052614000,9.28661376953125,0.3217512432217598,1.2821464269399643,1.4942138911277054
1733511874062689000,9.29668896484375,0.5598422064602375,1.3845458941847084,1.6948710496373474
1733511874072764200,9.30676416015625,0.6327320861041545,1.3283569739729166,1.8810136528432368
1733511874082839000,9.316839111328125,0.4163806609869003,1.1262503473073244,2.0285819029830394
1733511874092914200,9.3269140625,0.09735676036980002,0.8431032677680254,2.1211776229634878
1733511874102988000,9.336988037109375,-0.33046653766222295,0.5461591335445642,2.161696680356562
1733511874113063200,9.347063232421876,-0.8475579090893268,0.3811059339880943,2.2449584625415504
1733511874123138000,9.357137939453125,-1.2967818321444093,0.394812387779355,2.270062216398865
1733511874133213000,9.367212890625,-1.7372786972559988,0.4738818328410387,2.2130974895089865
1733511874143287300,9.377287353515625,-2.146536374495178,0.5940215394377708,2.040765092729777
1733511874153362000,9.38736181640625,-2.4876573579668997,0.6843342630475759,1.7585848123960195
1733511874163437000,9.39743701171875,-2.7618729430317877,0.667825026795268,1.4575919873036443
1733511874173512000,9.407511962890625,-3.070515698355436,0.553558011624217,1.042496032365039
1733511874183587000,9.417587158203125,-3.360100994248688,0.41209319292604923,0.36357743769064543
1733511874193661000,9.427660888671875,-3.564246433265507,0.4937146605581045,-0.44650275446288284
1733511874203736000,9.437736083984374,-3.5656069079637525,0.7747060233682393,-1.236931612946093
1733511874213811200,9.447811279296875,-3.3306314463973044,1.2900982627272606,-1.9741490326583384
1733511874223886000,9.457885986328124,-2.8884219321489333,1.7443430826842783,-2.6048992972955105
1733511874233961200,9.467961181640625,-2.5067630404531953,1.9754262129873037,-3.1260715813606974
1733511874244035000,9.47803515625,-2.4547312399208545,2.1266648222029207,-3.772858788563311
1733511874254110200,9.488110107421875,-2.6218507243573663,2.2711638940304515,-4.3704426966577765
1733511874264184800,9.498184814453126,-2.6110440836608406,2.3632360285282132,-4.741044187766313
1733511874274260000,9.508260009765625,-2.3663282954551277,2.274651151624322,-4.705492981913686
1733511874284335000,9.518335205078126,-1.9513491718292235,1.9061597845375537,-4.353097886364162
1733511874294409000,9.528408935546874,-1.4056149856984614,1.3528086936622856,-3.95943583766371
1733511874304484000,9.538484130859375,-0.9034161360420286,0.6063076050370931,-3.633117432656884
1733511874314559000,9.54855908203125,-0.549919362860918,-0.23357085546553133,-3.324045346005261
1733511874324634000,9.558634033203125,-0.25935126647539436,-0.9968681805908679,-2.9312589110955596
1733511874334709200,9.568709228515624,-0.014325535537675023,-1.556824953341484,-2.515450789299607
1733511874344783000,9.578783203125,0.028135303572937843,-1.999925863471627,-2.0883317305468023
1733511874354858200,9.588858154296876,-0.13692768672518432,-2.0100971288740634,-1.7239220798157155
1733511874364933000,9.59893310546875,-0.34551549210362137,-1.5838029766380786,-1.421176565837115
1733511874375008000,9.609008056640626,-0.5694472162820399,-1.097304238808155,-1.098649662067741
1733511874385083000,9.619082763671875,-0.8863491197764873,-0.6343284153848886,-0.7017636828847229
1733511874395157000,9.629156982421875,-1.4754548301219939,-0.2977998742699623,-0.33035975281950086
1733511874405231900,9.63923193359375,-2.2750971418261527,-0.1491758314669132,0.006829371096007526
1733511874415307000,9.64930712890625,-3.1355262229263783,-0.18699907390475273,0.27437939732447264
1733511874425382100,9.659382080078124,-3.9825755979716777,-0.2988590279340744,0.36142672593016173
1733511874435457000,9.66945703125,-5.117663331729173,-0.14783610729575156,0.3407826914280653
1733511874445531100,9.67953125,-6.430149951875209,0.4513765710443258,0.10162943272031844
1733511874455606000,9.68960595703125,-7.625283281272649,1.2210948691278696,-0.6829902280274778
1733511874465681200,9.69968115234375,-7.777268324941396,1.8165034790098666,-1.6926240013629197
1733511874475756300,9.70975634765625,-6.315502997475862,2.2506845851033925,-2.406016601112485
1733511874485831000,9.719830810546876,-4.32254288136363,2.7355612746894358,-2.8220716834068296
1733511874495905300,9.7299052734375,-2.45591431222558,3.081228231027722,-3.0233114641100167
1733511874505980000,9.73997998046875,-0.8663023570477962,3.3648704006075856,-3.1406445888534185
1733511874516055000,9.750054931640625,0.5948451307803392,3.6345547719836233,-3.2370936232611536
1733511874526130000,9.7601298828125,2.0729402462780473,3.6552164517402645,-3.186883485198021
1733511874536205000,9.770205078125,3.6171576469808815,3.583871463450789,-3.0011703594505783
1733511874546279000,9.78027880859375,4.99761890220046,3.7294361186832186,-2.904334371551871
1733511874556354000,9.79035400390625,6.271750364989042,4.196159896463156,-2.8141189708366987
1733511874566429200,9.80042919921875,7.442775673568248,4.651777758339047,-2.5122297814264893
1733511874576504000,9.810504150390624,8.29966722819209,4.70548362956345,-2.026933697384596
1733511874586579200,9.8205791015625,8.713878143924473,4.2766409618884325,-2.010467131230235
1733511874596653600,9.830653564453126,8.4756509870857,3.2048066799014805,-1.9979294289574026
1733511874606728200,9.840728271484375,7.8691323696464295,1.7356980039358139,-1.8492060174331069
1733511874616803300,9.85080322265625,7.069506424555182,0.2715495807260275,-1.5789090671166777
1733511874626878200,9.860878173828125,6.278676949381828,-0.9609563247323035,-1.2713466543756424
1733511874636953300,9.870953369140626,5.678585734641552,-1.977051768362522,-1.041909318518266
1733511874647027200,9.881027099609375,4.882478903587162,-2.6416613402426243,-0.8932095070652664
1733511874657102300,9.891102294921875,3.979696827664971,-2.937065259286761,-0.9155706111509352
1733511874667177500,9.901177490234375,3.304887641070783,-2.8994033448904752,-1.083257374081388
1733511874677252400,9.91125244140625,2.812026090210676,-2.68241888256669,-1.2637526921153068
1733511874687327500,9.921327392578124,2.3865257187008857,-2.482457451236248,-1.2912686216808855
1733511874697401300,9.9314013671875,2.1559163433894515,-2.361288986113667,-1.0555058091290295
1733511874707476500,9.9414765625,2.1570359950691462,-2.2837971656322478,-0.5107036431513726
1733511874717551400,9.95155126953125,2.361295708115399,-2.230403429096937,0.2451341597482562
1733511874727626200,9.961626220703126,2.644190858720243,-2.2163684740036724,1.0097840685263275
1733511874737701400,9.971701416015625,2.8950758370801806,-2.010390558862686,1.7304364301458
1733511874747776300,9.9817763671875,3.100997638119757,-1.6545365550309419,2.443333647593856
1733511874757850400,9.991850341796875,3.419805229105055,-1.3435434371888637,3.1860639855086803
1733511874767925200,10.00192529296875,3.733322020205855,-1.060406879043579,3.9533527183577415
1733511874778000400,10.01200048828125,3.885915258900821,-0.9027426206946373,4.632641388453543
1733511874788075500,10.022075439453126,3.8607828634709116,-1.0495745193839072,5.210758964055776
1733511874798149400,10.0321494140625,3.645365504333377,-1.4268752158701419,5.7016112209200855
1733511874808224500,10.042224609375,3.145157390102744,-1.6649796231120824,6.125059920597076
1733511874818299400,10.05229931640625,1.9335943194299936,-1.5179986713409424,6.473101204851269
1733511874828374300,10.062374267578125,-0.6974994495689869,-0.9213876999318599,7.1486512729406355
1733511874838449200,10.07244921875,-7.559629198101162,0.008043605723977089,8.498302963876723
1733511874848523300,10.082523193359375,-11.479846247315406,0.4903805476993322,7.51942461348474
1733511874858598400,10.092598388671876,-9.378879929992555,0.3618716566860676,5.072132583653927
1733511874868673300,10.10267333984375,-7.997962747699022,0.24282383697926996,3.734586633314192
1733511874878748400,10.11274853515625,-6.790706434309482,0.6562959170430899,2.1149505651421845
1733511874888823300,10.1228232421875,-5.792976083931326,1.4320418048530816,-0.08016352390870451
1733511874898898400,10.1328984375,-4.173880552376806,2.071609874457121,-2.5247674836993217
1733511874908972300,10.14297216796875,-2.666307705721259,2.2730770341753956,-4.361488405829668
1733511874919047400,10.15304736328125,-1.571352514257282,2.0197446626633404,-5.113208105885982
1733511874929122600,10.16312255859375,-0.5573753779552877,1.6549258466094732,-5.395908610701561
1733511874939197200,10.173197265625,0.26048224326670166,1.041454925814271,-5.252620083707571
1733511874949272300,10.183272216796874,0.642006841058284,0.518184500426054,-4.623528107671439
1733511874959346200,10.19334619140625,0.8019032423734664,0.4334726655632257,-3.8811528668045994
1733511874969421300,10.20342138671875,0.8566337804704904,0.9749556239902972,-3.279616713953018
1733511874979496200,10.21349609375,0.8847095358759164,2.2556045058488845,-2.7027272188410163
1733511874989571300,10.2235712890625,1.0727515429623424,4.04738095535934,-2.302371371590346
1733511874999645400,10.2336455078125,1.4544780930668115,6.069897420823573,-2.016062613149732
1733511875009720300,10.24372021484375,2.038130214181542,7.518684608772396,-1.573758406355232
1733511875019795500,10.25379541015625,2.84396553530693,7.419688227969408,-0.7573314024582505
1733511875029870300,10.263870361328125,3.9367753853052854,5.283512065577507,0.0071270754009485245
1733511875039945500,10.273945556640625,4.485297448588907,1.9303812026023863,0.4931623604375869
1733511875050020400,10.284020263671875,4.041602079696953,-1.2213631646752356,0.6792598823927343
1733511875060094500,10.294094482421874,3.232146229986846,-3.380046926951408,0.8526368197888136
1733511875070169300,10.30416943359375,2.6086571885243055,-4.601469712859392,1.2754413763433694
1733511875080244200,10.314244140625,2.3316503653056917,-5.261588987582922,1.9043099188871682
1733511875090319400,10.3243193359375,2.275680933063477,-5.631372148045897,2.708433613789081
1733511875100394200,10.334394287109374,2.131651378443837,-5.356218405348062,3.368562825384736
1733511875110468400,10.34446826171875,1.946027684545517,-4.186646802708506,3.552114973706007
1733511875120543200,10.354543212890626,1.7132938644260167,-2.518688456046581,3.4602503444790838
1733511875130618400,10.364618408203125,1.5016707830049096,-0.9362006536602974,3.2696324955552813
1733511875140693500,10.374693603515626,1.3958622379690409,0.24706454328894614,2.970874005386233
1733511875150768400,10.384768310546875,1.363634623581171,1.0366904878914356,2.823908251184225
1733511875160842500,10.394842529296875,1.3539151935994624,1.7166040118873118,2.776757208430767
1733511875170917400,10.40491748046875,1.4209253675550222,2.2559552189826966,2.7110329826325175
1733511875180992300,10.4149921875,1.4226736725270748,2.484308047538996,2.6800468927383423
1733511875191067400,10.4250673828125,1.316064917024225,2.4095120420128104,2.565226335337758
1733511875201142300,10.435142333984375,1.1028683026760815,2.0485124919861555,2.143724824205786
1733511875211216400,10.44521630859375,0.8955706101734191,1.4127560896247624,1.5005020314864814
1733511875221291300,10.455291259765625,0.7745459374357014,0.7397638893246651,0.9559420037016272
1733511875231366400,10.465366455078126,0.6661347356207669,0.28474633142948147,0.5502284288100898
1733511875241441300,10.475441162109375,0.6259142227828502,-0.09809504804909229,0.21381167750656604
1733511875251516400,10.485516357421876,0.7246020490933209,-0.38473756848871704,-0.04770590015724301
1733511875261590300,10.49559033203125,0.9537760578393936,-0.5282669185012578,-0.3171215375944972
1733511875271665400,10.50566552734375,1.2407095240496098,-0.37265140937566754,-0.7706237224906682
1733511875281740500,10.515740478515625,1.594977281603217,0.027020693394541738,-1.279507602868974
1733511875291815200,10.525815185546875,1.8590753772795199,0.5263806663632392,-1.771215453649312
1733511875301890300,10.535890380859374,1.9326777891069649,0.9449451011300086,-2.2564804119005797
1733511875311964200,10.545964111328125,1.8644208299607037,1.1994476854652165,-2.767979735474288
1733511875322039300,10.556039306640624,1.6697282789438963,1.15317050293684,-3.113374304611981
1733511875332114400,10.566114501953125,1.295616149365902,0.9509393731087445,-3.2969270374551414
1733511875342189300,10.576189208984376,0.844254775890708,0.6020335809797048,-3.387522085137665
1733511875352264400,10.586264404296875,0.38714291259739547,0.08077917158901692,-3.427099477766454
1733511875362338300,10.59633837890625,0.0006991247126832604,-0.4956669636696577,-3.3674487266629933
1733511875372413400,10.606413330078125,-0.30448037494719027,-1.1258493652909993,-3.1682714314475655
1733511875382488300,10.61648828125,-0.3903875205418095,-1.7075743177354334,-2.902171640560031
1733511875392563500,10.6265634765625,-0.37746202452778815,-2.1203782892793415,-2.5944483381688594
1733511875402638300,10.636638427734376,-0.3416366779088974,-2.2404192116767168,-2.349721736308187
1733511875412712400,10.64671240234375,-0.32220600125193594,-1.8698732501477002,-2.006938372582197
1733511875422787300,10.656787353515625,-0.4579892671823501,-1.150546584174037,-1.4986474896609783
1733511875432862200,10.6668623046875,-0.7515770767152309,-0.4885743750602007,-0.9749906953036784
1733511875442937300,10.676937255859375,-1.1170727691173552,-0.12770283532738685,-0.5911049213387072
1733511875453012500,10.687012451171874,-1.4416519292414187,-0.0925648864507675,-0.36774076791517435
1733511875463086300,10.69708642578125,-1.6826409520089625,-0.16712649869918822,-0.18714030900634823
1733511875473161500,10.707161376953126,-1.854392187899351,-0.19752689765989778,0.03515373096764087
1733511875483236400,10.717236328125,-1.966801592504978,-0.11831775186657904,0.30207689400203525
1733511875493311500,10.7273115234375,-2.067767227554321,0.12176818458139896,0.5507802905391901
1733511875503386400,10.737386474609375,-2.1552222236454486,0.40891573193371294,0.6986523459311574
1733511875513460500,10.74746044921875,-2.2509727543950078,0.7573825481235981,0.7096672956161201
1733511875523535400,10.757535400390625,-2.419634207576513,1.0502245077252388,0.60451129620485
1733511875533610200,10.7676103515625,-2.6593466345369814,1.086321072500944,0.37758104779757556
1733511875543685400,10.777685302734374,-2.871108393776417,0.8289923248291016,-0.002966886981576681
1733511875553760300,10.78776025390625,-2.9915351006209847,0.4489794467747211,-0.42400889084301885
1733511875563834400,10.79783447265625,-3.0457939295530316,0.07199380758702754,-0.7312289198871702
1733511875573909200,10.8079091796875,-3.062871321082115,-0.14637655613720416,-0.8384935820154845
1733511875583984400,10.817984375,-3.1787928254619238,0.07174597030580043,-0.8574136057365686
1733511875594059000,10.82805908203125,-3.5274726998805996,0.5202437710434198,-0.9933755161695181
1733511875604134100,10.838134033203126,-3.972552216607332,0.6961170552998781,-1.2920910439796744
1733511875614208000,10.8482080078125,-4.124483484262227,0.5815250459581613,-1.7048453311629592
1733511875624283100,10.858283203125,-3.8579181216895577,0.6743938837915658,-2.144859235063195
1733511875634358300,10.868358154296875,-3.3001182347118854,1.219525427854061,-2.6448253572314977
1733511875644433000,10.878432861328125,-2.7509461830869317,1.7374240970760584,-3.02450827267915
1733511875654508000,10.888508056640624,-2.4108219555675983,2.0507535489112136,-3.1345141232743856
1733511875664583000,10.8985830078125,-2.395809095352888,2.210216381114721,-3.1496064784660933
1733511875674657000,10.908656982421874,-2.5623779601693153,2.1661697341173887,-3.200199478366971
1733511875684732000,10.91873193359375,-2.6966414691865443,1.9360241769254207,-3.2478342129841447
1733511875694807000,10.92880712890625,-2.6844085950791836,1.7250152818799018,-3.253289555780589
1733511875704882200,10.938882080078125,-2.5509528953135012,1.571893927657604,-3.117802057926357
1733511875714957000,10.94895703125,-2.3311785100102425,1.467659061679244,-2.766070394721627
1733511875725031200,10.95903125,-2.0052362448394296,1.3545599212437867,-2.1878411754384635
1733511875735106000,10.96910595703125,-1.6073486873984335,1.0506406873106955,-1.5359987306728957
1733511875745181200,10.97918115234375,-1.2851416632331907,0.5914759466081857,-0.9549806843888013
1733511875755256000,10.989256103515626,-1.0839398764528334,0.10476794994175434,-0.4840643502898514
1733511875765331000,10.9993310546875,-0.9966462084032595,-0.22354981218874453,-0.08684227102026343
1733511875775405000,11.009405029296875,-1.1278583670258522,-0.7839782941043376,0.1008711616989225
1733511875785480000,11.01947998046875,-1.3455015855193138,-1.3473299699902535,0.1261917731773108
1733511875795555000,11.02955517578125,-1.5058055447220802,-1.7070272052466868,0.06412899249605834
1733511875805630000,11.0396298828125,-1.8060136491775511,-1.7748469420194626,0.23670075098909435
1733511875815705000,11.049705078125,-2.236483625793457,-1.5869558877110481,0.6268896436862648
1733511875825779000,11.059779052734376,-2.8397394420444964,-1.2313596580326556,1.0579641620665787
1733511875835854000,11.06985400390625,-3.785230486619472,-0.8239175057828426,1.21342886454463
1733511875845929200,11.07992919921875,-5.134404038649797,-0.3318699016541242,0.7120103516109287
1733511875856004000,11.090004150390625,-6.593781009674072,0.19067045589387416,-0.3571706393882632
1733511875866079000,11.100078857421876,-7.557219214349985,0.6565519376307726,-1.6761115502402186
1733511875876153000,11.110153076171875,-6.3935623887121675,1.1761907285183668,-2.332115790860355
1733511875886228000,11.12022802734375,-4.057281002604961,1.8514222321778535,-2.2269018507167697
1733511875896303000,11.13030322265625,-2.0332494564026593,2.6940280718177556,-1.8771328658871351
1733511875906378000,11.1403779296875,-0.20250527059435844,3.5628128933310506,-1.573624989233911
1733511875916453000,11.150453125,1.5874645678855477,4.465629163783788,-1.2622862728245556
1733511875926527000,11.16052685546875,3.246290782934427,5.337072390851378,-0.9624125879552214
1733511875936602000,11.17060205078125,4.7038113124370575,6.182317931345104,-0.5699868030514568
1733511875946677000,11.180677001953125,6.286814663130045,7.2496326900809995,0.16995010475255548
1733511875956752100,11.190752197265626,7.968814394626021,8.278682892352343,0.9310201092172413
1733511875966827300,11.2008271484375,8.996700813814996,8.701610783025622,1.3939324389502405
1733511875976901000,11.210901123046876,9.402274834105372,8.408027649667858,1.891529055508226
1733511875986976300,11.220976318359375,9.029804041993618,7.018600997704267,2.1133264710716904
1733511875997051000,11.23105078125,7.9949314171791075,4.50126746339798,1.9904710757754742
1733511876007126000,11.2411259765625,6.655656158828735,2.133180487707257,2.23457092403993
1733511876017201000,11.251200927734375,5.248191745871305,0.071703884729743,2.7265523310646413
1733511876027275000,11.26127490234375,4.233102556674182,-1.5948247213900089,2.9236545735716817
1733511876037350100,11.27135009765625,3.4192543172240257,-2.7651754917085167,2.759865694862604
1733511876047425000,11.281425048828124,2.6666157487571236,-3.471913309744,2.316666000533104
1733511876057500200,11.291500244140625,2.253022380401194,-3.8718946245938537,1.7307582094460725
1733511876067575000,11.301574951171874,2.3517378984361885,-4.317269909396767,1.3606354417651891
1733511876077649200,11.311649169921875,2.7123221456602216,-4.678649398651719,1.2149955293394625
1733511876087724000,11.32172412109375,3.056032414972782,-4.950033559682965,1.3179082068033516
1733511876097799200,11.331799072265625,3.5034225467294453,-5.262056605094671,1.6293528678052127
1733511876107874000,11.3418740234375,3.9352392617791887,-5.682246595236658,2.0416184946887195
1733511876117949000,11.351948974609375,4.168143762290478,-6.029382455083727,2.396556552719325
1733511876128024000,11.362024169921876,4.146993714495003,-6.136420688045025,2.643644623014331
1733511876138098000,11.372097900390624,4.087846236738562,-6.016334757462143,2.8212118517071008
1733511876148173000,11.382173095703125,4.050948292452096,-5.7530818804383275,3.086610508587956
1733511876158248000,11.392248046875,3.8500650701016186,-5.473710227784514,3.275498172718286
1733511876168323000,11.402322998046875,3.38293388056457,-5.071754982513189,3.32840149538815
1733511876178398200,11.412398193359374,2.823531234565377,-4.624591060727834,3.1923546100854874
1733511876188472000,11.42247216796875,2.241843983782828,-4.004497506922483,2.781956238378584
1733511876198547200,11.432547119140626,1.5052888273715972,-3.060670011645555,2.5181992112249136
1733511876208622000,11.4426220703125,0.3513257127523422,-1.5869062033504246,2.4960768112659455
1733511876218697000,11.452697021484376,-14.74510944174528,2.8725656068474055,-0.7970049489378929
1733511876228772000,11.462772216796875,-66.22690527102947,13.105629586070775,-13.380453073900938
1733511876238846000,11.472845947265625,-30.780630449950692,13.340662330782413,-6.175989312845468
1733511876248921000,11.482921142578125,-2.242421199148893,6.445354535269737,-1.1020593243807553
1733511876258996000,11.492995849609375,1.2207611071288584,2.8271687142848965,-1.0485574512958526
1733511876269071000,11.503071044921874,3.2651240782201287,0.7211696634918451,-0.8726260071113705
1733511876279146000,11.51314599609375,3.6901755369186398,0.5461614716321229,-0.5754685223981738
1733511876289220000,11.52322021484375,3.599431728415191,0.511494647398591,0.7316193074442445
1733511876299295000,11.533294921875,3.484789742451906,0.16842296825051306,2.0251511978819967
1733511876309370000,11.5433701171875,4.136575488594175,-0.00428688353896141,2.638542915961146
1733511876319445200,11.5534453125,5.477387454992533,0.6387111605137586,3.073330171254277
1733511876329519900,11.563519775390626,6.946099240595102,2.612455119502544,3.08512143907398
1733511876339594200,11.57359423828125,8.14606656602025,5.042164146369696,3.048397097788751
1733511876349668900,11.5836689453125,8.211430141812562,6.91266341946125,3.1378400528267023
1733511876359744000,11.593743896484375,7.699626282334327,8.030517694345116,2.8550772964298723
1733511876369819100,11.603819091796876,7.168662379834055,8.046357653033732,1.745380609038472
1733511876379894000,11.61389404296875,6.269506969976425,5.833772204700112,0.11092749548479915
1733511876389968100,11.623968017578125,5.209872828871012,2.3723048856467006,-0.8495671300198883
1733511876400043000,11.63404296875,3.924100612649321,-0.5608633662015199,-0.7039500139478594
1733511876410118100,11.6441181640625,2.9156150595009325,-2.381675940582156,-0.19595022292770445
1733511876420193000,11.654193115234374,2.5954285813778637,-3.6968566221177577,0.09653919690921903
1733511876430268200,11.66426806640625,2.6108915234476324,-4.568046751207113,0.3808806007996201
1733511876440343000,11.674343017578124,2.617211374118924,-4.968122758603096,0.5451790364660323
1733511876450417200,11.684417236328125,2.822717872355878,-4.8027182613909245,0.5593181825861334
1733511876460492000,11.694491943359376,3.271117765676975,-4.546981751346588,0.5478665950495749
1733511876470567000,11.70456689453125,3.24887729229629,-4.079356640812755,0.657551616192609
1733511876480642000,11.71464208984375,2.804455947217345,-2.8890204825639723,0.6896422332625836
1733511876490717200,11.72471728515625,2.4828087488919497,-1.446262053385377,0.540551888122037
1733511876500791000,11.734791015625,2.1712889768272636,-0.07101005724668502,0.177606391659379
1733511876510866200,11.7448662109375,1.8308057067371903,1.298098029309511,-0.3060952627979219
1733511876520941000,11.754941162109375,1.5860079393364488,2.6069489233016965,-0.8305199727877974
1733511876531016200,11.76501611328125,1.358918847105652,3.6513790655344724,-1.2403778078772127
1733511876541091000,11.775091064453125,1.085449038906768,4.225001960065961,-1.5547431786313652
1733511876551165200,11.785165283203124,0.7769706072993576,4.105210628515482,-1.7618337311893701
1733511876561240000,11.795239990234375,0.31035774254798887,3.037526451945305,-1.5933713077113032
1733511876571315000,11.80531494140625,-0.19682189119569957,1.7013246096909045,-1.5758493872851131
1733511876581390000,11.81539013671875,-0.6306055954694747,0.678683105418086,-1.9036768816806375
1733511876591465000,11.82546484375,-1.0542477718919514,0.10003566072285175,-2.3826396710477766
1733511876601539000,11.8355390625,-1.426145732551813,-0.18202713071107862,-2.947759379519522
1733511876611614000,11.845614013671875,-1.7147019776582717,-0.47557753084301946,-3.3791204597562547
1733511876621689000,11.855689208984375,-1.9390414789199828,-0.7058703875511885,-3.54964712228775
1733511876631764200,11.86576416015625,-2.0780501366376876,-0.6603045681625604,-3.710632926274836
1733511876641839000,11.875839111328125,-2.1699860775351523,-0.4560568378150463,-3.72143284496963
1733511876651913200,11.885913330078125,-2.2409809372127056,-0.364632938092947,-3.5841067335113883
1733511876661988000,11.895988037109374,-2.175290029162168,-0.496350854280591,-3.3383956506580112
1733511876672063200,11.906063232421875,-2.018435918152332,-0.7320487849026918,-3.125432991196215
1733511876682137900,11.916137939453124,-1.801944207781553,-0.9986655854016542,-2.8039485822170973
1733511876692213000,11.926212890625,-1.5396645597040652,-1.2756670017927885,-2.329183536800742
1733511876702288100,11.9362880859375,-1.2932967665076256,-1.3919827661871909,-1.8087269997894764
1733511876712362000,11.946362060546875,-0.994521909725666,-1.2630202861875295,-1.3040069610923528
1733511876722437000,11.95643701171875,-0.6320493645370007,-0.9602052141040563,-0.8973690378975122
1733511876732512000,11.966511962890625,-0.2563105288063176,-0.7798585838258266,-0.593219648470357
1733511876742587100,11.976587158203126,0.07003038942641578,-0.7145926231890917,-0.427851391615346
1733511876752662300,11.986662353515625,0.3010872071112506,-0.6289145736426115,-0.3383938235301524
1733511876762736000,11.996736083984375,0.42259646676182744,-0.500929414242506,-0.1643976582571864
1733511876772811300,12.006811279296874,0.5110720380723476,-0.4127735764056444,0.10918635090589522
1733511876782886100,12.01688623046875,0.6110907476603984,-0.332429873624444,0.37800241501480336
1733511876792961000,12.0269609375,0.7089046406805515,-0.29527941588163376,0.6671461776856332
1733511876803036000,12.037035888671875,0.8247451887786388,-0.2897656208962202,0.8820455042984336
1733511876813110000,12.047110107421876,0.9417617949187755,-0.29229250902533527,1.025934408338368
1733511876823185000,12.057184814453125,0.9270680836558342,-0.27794191211163993,1.1402686435267329
1733511876833260000,12.067260009765626,0.6757938137173652,-0.16038403870165346,1.2087690560400486
1733511876843335200,12.077335205078125,0.22306286892201752,0.05963993744850158,1.2707096716463564
1733511876853410000,12.08741015625,-0.32356450318880375,0.26700609207749365,1.3166643442220984
1733511876863484200,12.097484130859375,-0.8902246460355818,0.4127905275404453,1.4616048762068152
1733511876873559000,12.10755908203125,-1.4019289906620978,0.525062569501996,1.7814152144938706
1733511876883634200,12.11763427734375,-1.9052946921408176,0.6719459061175584,2.1203326965719462
1733511876893709000,12.127708984375,-2.526409990209341,0.9447375958591699,2.130922479647398
1733511876903784000,12.137783935546874,-3.341678910112381,1.470868671375513,1.5359657051861286
1733511876913858000,12.147858154296875,-4.20279071277976,2.014864489406347,0.3175683315139264
1733511876923933000,12.157932861328124,-4.774003915821016,2.0650860256463286,-1.0547452000200748
1733511876934008000,12.168008056640625,-4.8780350759208195,1.860842971473932,-2.1282775180965663
1733511876944083000,12.1780830078125,-4.667697212004661,2.0469740303725,-3.1389608735501766
1733511876954158000,12.188157958984375,-4.565574223613739,2.747707639557123,-4.520111280077695
1733511876964233200,12.198233154296876,-4.927054835155606,3.5395997755259274,-6.128817811825871
1733511876974307000,12.20830712890625,-5.757016881799697,3.919078985095024,-7.479806304323673
1733511876984382200,12.21838232421875,-6.917547684371471,3.802562729692459,-8.454927348008752
1733511876994457000,12.22845703125,-8.378550795292854,3.1258558927834033,-8.859477870470284
1733511877004532200,12.2385322265625,-10.058603484374284,2.4309540584921834,-8.608243348020315
1733511877014606800,12.24860693359375,-10.975549986988305,2.0171224974662065,-7.4061261510849
1733511877024681200,12.25868115234375,-10.252408731162548,1.7752642906486986,-5.323870963972807
1733511877034755800,12.268755859375,-8.761395097380875,1.981199535691738,-3.5584345321163533
1733511877044831000,12.2788310546875,-6.975486663120985,2.271754261139035,-2.440205578701198
1733511877054906000,12.288906005859374,-5.246869557356834,2.2558576038271188,-1.6834489073909817
1733511877064981000,12.29898095703125,-3.7313258779525755,1.9158727847784756,-1.0355516200546175
1733511877075055000,12.30905517578125,-2.484851652896404,1.4127508289277553,-0.33195290376245973
1733511877085130000,12.3191298828125,-1.4865186604499816,1.102979361835122,0.5662593069609254
1733511877095205000,12.329205078125,-0.5360077784189954,1.0256278266072272,1.573834686461836
1733511877105280300,12.3392802734375,0.1777495995223522,0.88181206086874,2.5495924206152556
1733511877115355100,12.349355224609376,0.8797440224230288,0.6213970376193523,2.9338877982944247
1733511877125429200,12.35942919921875,1.9261738140404223,0.3345195393800735,2.837838284598291
1733511877135504100,12.369504150390625,2.891719804650545,0.32830490264892576,2.3018621068939566
1733511877145579000,12.3795791015625,3.6052217099934816,0.7186603110194206,1.3628387970283626
1733511877155654000,12.38965380859375,4.253199296024442,1.3736428073763847,0.5470033292837441
1733511877165729000,12.39972900390625,5.042486802452802,2.283171727210283,0.011185630076751113
1733511877175804200,12.40980419921875,6.079659520903229,3.4576901386022567,-0.4130985705763101
1733511877185878000,12.4198779296875,7.479966463321447,4.894269586884975,-0.6720332921400666
1733511877195953200,12.429953125,8.83807560147941,6.335333487105369,-0.8821860087476671
1733511877206028000,12.440028076171876,9.240174054613709,7.366759186336398,-1.2697247522622346
1733511877216103200,12.450103271484375,8.931974951404333,7.721453498739003,-1.7958222177699208
1733511877226178000,12.460177978515626,7.700618800503015,7.231274611091614,-2.3191605938278137
1733511877236252200,12.470252197265625,6.228404559737443,5.934537933263182,-2.1523338087275623
1733511877246327000,12.4803271484375,5.3414802704215045,4.260694035694003,-1.7863056168839335
1733511877256402000,12.49040185546875,4.585699604536592,2.599941090366244,-1.757611437319219
1733511877266477000,12.50047705078125,3.134179776753485,0.8766998324215411,-1.7107824661269784
1733511877276552000,12.510552001953124,1.0020075893059373,-0.7441127321839333,-1.6680124149367213
1733511877286626000,12.5206259765625,-1.863368690559268,-1.9276169985860585,-1.5217847657509147
1733511877296701000,12.530700927734374,-2.9917595570266244,-2.7071728000730273,-0.9360564228840171
1733511877306776000,12.540776123046875,-1.2764321409463881,-3.4889456930875777,-0.18759791658073663
1733511877316851200,12.550851318359374,0.8390744506433606,-4.0199896750867365,0.493788310316205
1733511877326926000,12.560926025390625,2.637851134304702,-4.3808758278667925,1.2330242302440106
1733511877337000200,12.571000244140626,4.393122145977616,-4.652920498633384,1.9690970099657772
1733511877347075000,12.581074951171875,5.91717821766138,-4.875387776282429,2.68844354968369
1733511877357150000,12.59114990234375,6.819986889329552,-5.013979085370898,3.2754946655869484
1733511877367225000,12.60122509765625,7.198519757959247,-5.213942270267009,3.87507208558619
1733511877377300000,12.611300048828125,7.308471832540631,-5.567599640837312,4.358151954883337
1733511877387374000,12.6213740234375,7.095258705449104,-5.7546583359748125,4.464104146173596
1733511877397449000,12.631448974609375,6.541404341226816,-5.690829714664816,4.531725145503878
1733511877407524000,12.641524169921874,6.043138008713722,-5.547965550562739,4.658565226522088
1733511877417599000,12.651598876953125,5.574343269878626,-5.3464937146693465,4.665142851346731
1733511877427674000,12.661674072265624,5.1213458196341985,-5.065204830217361,4.5789036607861515
1733511877437749200,12.671749267578125,4.660411731171608,-4.6881508019685745,4.486904299263656
1733511877447823000,12.681822998046876,4.26770274541229,-4.024364821431041,4.4073388873785735
1733511877457898200,12.691898193359375,3.99923476408869,-3.1404017200082537,4.174385871550441
1733511877467973000,12.70197314453125,3.532192129617929,-2.1766525496870277,3.9640427469372748
1733511877478048000,12.712048095703125,2.809819520077109,-0.7130167521744966,3.422398168207705
1733511877488123100,12.722123046875,-0.07889262719005345,2.733212665736675,2.4827877061039207
1733511877498197000,12.732197021484374,-50.52174668252468,13.776521599221228,-4.779879237595201
