time,seconds_elapsed,z,y,x
1733512566903207700,0.017207763671875,-0.0538782961666584,-0.02155020646750927,0.03174147009849548
1733512566913282800,0.02728271484375,-0.05416681617498398,-0.012754730880260468,0.03365422412753105
1733512566923358000,0.03735791015625,-0.052403006702661514,-0.0018059432040899992,0.03328963741660118
1733512566933432800,0.047432861328125,-0.058821901679039,0.013564049266278744,0.03145356476306915
1733512566943507000,0.0575068359375,-0.0655149593949318,0.02850225195288658,0.036401186138391495
1733512566953581800,0.067581787109375,-0.07598517835140228,0.04734227806329727,0.03046136163175106
1733512566963657000,0.077656982421875,-0.08277463912963867,0.07329558581113815,0.015610776841640472
1733512566973732000,0.087732177734375,-0.08875693380832672,0.0939260870218277,0.009208655916154385
1733512566983806000,0.097805908203125,-0.10123757272958755,0.10456914454698563,0.008012363687157631
1733512566993881000,0.107881103515625,-0.10829675942659378,0.10758558660745621,0.004718433599919081
1733512567003956000,0.1179560546875,-0.11014339327812195,0.11467146128416061,0.005229227710515261
1733512567014030000,0.128030029296875,-0.10650969296693802,0.11445272713899612,0.009751930832862854
1733512567024105000,0.13810498046875,-0.09688476473093033,0.09894167631864548,0.01316157542169094
1733512567034179800,0.148179931640625,-0.09084916114807129,0.07371751964092255,0.001668740063905716
1733512567044254700,0.158254638671875,-0.08872076123952866,0.06098787114024162,-0.0032660975120961666
1733512567054328800,0.168328857421875,-0.08638068288564682,0.05943767726421356,-0.007379323709756136
1733512567064403700,0.17840380859375,-0.07590567320585251,0.07408905774354935,-0.015096098184585571
1733512567074478800,0.188478759765625,-0.0677761435508728,0.0829601064324379,-0.02202392742037773
1733512567084553000,0.198552978515625,-0.06803074479103088,0.08563631027936935,-0.026735860854387283
1733512567094627800,0.2086279296875,-0.07437504827976227,0.09301310032606125,-0.03224080055952072
1733512567104703000,0.218702880859375,-0.07512153685092926,0.1028289794921875,-0.03508159518241882
1733512567114777900,0.22877783203125,-0.07728030532598495,0.11150933802127838,-0.04446256160736084
1733512567124852000,0.23885205078125,-0.06904102116823196,0.12433645874261856,-0.044915299862623215
1733512567134926800,0.2489267578125,-0.05549405515193939,0.145564466714859,-0.04254793003201485
1733512567145002000,0.259001953125,-0.03931961953639984,0.16385291516780853,-0.03203297406435013
1733512567155075800,0.269075927734375,-0.030398312956094742,0.16467535495758057,-0.01797173172235489
1733512567165151000,0.27915087890625,-0.017135504633188248,0.1572616547346115,-0.01268855296075344
1733512567175225900,0.289225830078125,-0.007776029407978058,0.13709373772144318,-0.013372140005230904
1733512567185300700,0.29930078125,-0.00229284749366343,0.10276932269334793,-0.027278898283839226
1733512567195374800,0.309374755859375,0.0026708142831921577,0.06856468319892883,-0.051122136414051056
1733512567205449700,0.31944970703125,0.0065206796862185,0.04215198755264282,-0.07314301282167435
1733512567215524900,0.32952490234375,0.009760644286870956,0.024259597063064575,-0.083660788834095
1733512567225600000,0.33960009765625,0.008455428294837475,0.023479290306568146,-0.08564803749322891
1733512567235673900,0.349673828125,0.005457893013954163,0.02650420181453228,-0.08980797231197357
1733512567245749000,0.3597490234375,-0.004818979650735855,0.04080244526267052,-0.08922793716192245
1733512567255824000,0.369823974609375,-0.01123051904141903,0.05543757975101471,-0.09334049373865128
1733512567265897200,0.379897216796875,-0.005720173008739948,0.0708218663930893,-0.10379979014396667
1733512567275972400,0.389972412109375,-0.004661196377128363,0.07617019861936569,-0.10573030263185501
1733512567286047200,0.400047119140625,-0.000017442740499973297,0.06972881406545639,-0.10248124599456787
1733512567296122400,0.410122314453125,0.010199692100286484,0.06412798166275024,-0.09298249334096909
1733512567306196200,0.4201962890625,0.01278908271342516,0.05733958259224892,-0.0752761960029602
1733512567316271400,0.430271240234375,0.021412912756204605,0.051673468202352524,-0.0521661639213562
1733512567326346200,0.44034619140625,0.032534003257751465,0.03649797663092613,-0.03288140892982483
1733512567336420400,0.45042041015625,0.03044319897890091,0.007638069335371256,-0.017605813220143318
1733512567346495200,0.4604951171875,0.020897630602121353,-0.028354287147521973,-0.009043751284480095
1733512567356570400,0.4705703125,0.0071941097266972065,-0.06691557914018631,-0.017405128106474876
1733512567366645200,0.480645263671875,-0.00929218903183937,-0.10733917355537415,-0.036597464233636856
1733512567376719400,0.49071923828125,-0.03878799080848694,-0.13271114230155945,-0.036835845559835434
1733512567386794200,0.500794189453125,-0.06064162403345108,-0.12836407124996185,-0.013493770733475685
1733512567396869000,0.510869140625,-0.07474970072507858,-0.10461961477994919,0.0038213785737752914
1733512567406943200,0.520943115234375,-0.08227259665727615,-0.0905139148235321,0.020752690732479095
1733512567417018000,0.53101806640625,-0.08744601160287857,-0.08890406787395477,0.034634657204151154
1733512567427093200,0.54109326171875,-0.0929156094789505,-0.0824805200099945,0.01902187615633011
1733512567437168400,0.55116845703125,-0.09834778308868408,-0.07962389290332794,-0.001359657384455204
1733512567447242200,0.5612421875,-0.10532313585281372,-0.06046058610081673,-0.01358330063521862
1733512567457317400,0.5713173828125,-0.09989569336175919,0.004879865795373917,-0.008889159187674522
1733512567467392300,0.581392333984375,-0.08608853816986084,0.1017579436302185,0.00624212296679616
1733512567477467400,0.59146728515625,-0.05976651981472969,0.18830929696559906,0.030429497361183167
1733512567487541200,0.601541259765625,-0.022177599370479584,0.24580693244934082,0.04902395233511925
1733512567497616400,0.611616455078125,0.0067474376410245895,0.2825295329093933,0.06011056527495384
1733512567507691300,0.621691162109375,0.03520650789141655,0.31699857115745544,0.06782068312168121
1733512567517765400,0.631765380859375,0.05369173362851143,0.35931363701820374,0.06533961743116379
1733512567527840300,0.64184033203125,0.0736585184931755,0.4145691692829132,0.04768792539834976
1733512567537915100,0.6519150390625,0.08858494460582733,0.4847390055656433,0.019171636551618576
1733512567547990300,0.661990234375,0.0910414457321167,0.537600040435791,-0.015333343297243118
1733512567558064000,0.672064208984375,0.07959312945604324,0.564073920249939,-0.04332633316516876
1733512567568139300,0.68213916015625,0.05379721522331238,0.5512609481811523,-0.07117979973554611
1733512567578214100,0.692214111328125,0.024981936439871788,0.514258861541748,-0.10515284538269043
1733512567588288300,0.702288330078125,-0.001229959772899747,0.47005489468574524,-0.1383448839187622
1733512567598363100,0.712363037109375,-0.0316268727183342,0.40784645080566406,-0.1585291624069214
1733512567608438300,0.722438232421875,-0.049528371542692184,0.33390697836875916,-0.15462817251682281
1733512567618513400,0.732513427734375,-0.0625191479921341,0.2746318280696869,-0.14607028663158417
1733512567628587300,0.742587158203125,-0.06259957700967789,0.2440510243177414,-0.14477944374084473
1733512567638662400,0.752662353515625,-0.04636961594223976,0.24912448227405548,-0.16868655383586884
1733512567648737300,0.7627373046875,-0.018458358943462372,0.2900277078151703,-0.20164823532104492
1733512567658812200,0.772812255859375,0.011160848662257195,0.35814520716667175,-0.22015705704689026
1733512567668886300,0.78288623046875,0.04037865623831749,0.45522621273994446,-0.22751058638095856
1733512567678961200,0.792961181640625,0.07369369268417358,0.5776025056838989,-0.23484188318252563
1733512567689036300,0.803036376953125,0.10258206725120544,0.7042286396026611,-0.2510077953338623
1733512567699110100,0.813110107421875,0.1333838701248169,0.8044455647468567,-0.2790869474411011
1733512567709185300,0.823185302734375,0.1429656445980072,0.8515248894691467,-0.3046157658100128
1733512567719260200,0.83326025390625,0.1273667961359024,0.8249941468238831,-0.3116397261619568
1733512567729334300,0.843334228515625,0.08202807605266571,0.7167302966117859,-0.2917323410511017
1733512567739409200,0.8534091796875,0.003348792903125286,0.5591877698898315,-0.23224402964115143
1733512567749484300,0.863484375,-0.087971530854702,0.4107798635959625,-0.14670196175575256
1733512567759559200,0.87355908203125,-0.13426625728607178,0.37528520822525024,-0.07284074276685715
1733512567769633300,0.88363330078125,-0.12265514582395554,0.4834683835506439,-0.04434625059366226
1733512567779708200,0.893708251953125,-0.10220050066709518,0.6314671635627747,-0.02373727783560753
1733512567789783300,0.903783203125,-0.09310180693864822,0.7641578316688538,0.0009190654382109642
1733512567799858400,0.9138583984375,-0.08196970820426941,0.8855302929878235,0.023159869015216827
1733512567809932300,0.923932373046875,-0.07218578457832336,1.0293101072311401,0.03070513717830181
1733512567820007400,0.93400732421875,-0.050676994025707245,1.185376524925232,0.03908225893974304
1733512567830082300,0.944082275390625,-0.0114198699593544,1.3479419946670532,0.06030712276697159
1733512567840156400,0.954156494140625,0.0374734103679657,1.5217567682266235,0.09309770166873932
1733512567850231300,0.964231201171875,0.08352426439523697,1.6926685571670532,0.1274988204240799
1733512567860306200,0.97430615234375,0.11852505803108215,1.83463454246521,0.14096024632453918
1733512567870381300,0.98438134765625,0.12297014147043228,1.904050350189209,0.10593968629837036
1733512567880455200,0.994455078125,0.09814761579036713,1.8432285785675049,0.027666985988616943
1733512567890530300,1.0045302734375,0.024836119264364243,1.5975202322006226,-0.053311485797166824
1733512567900605200,1.014605224609375,-0.051576610654592514,1.2165725231170654,-0.1077689677476883
1733512567910680300,1.024680419921875,-0.1354411542415619,0.7677562236785889,-0.133994460105896
1733512567920754200,1.034754150390625,-0.22950714826583862,0.3021136224269867,-0.11247755587100983
1733512567930829300,1.044829345703125,-0.30673083662986755,-0.08134935051202774,-0.04370088502764702
1733512567940904400,1.054904541015625,-0.3698306381702423,-0.19397716224193573,0.002350439550355077
1733512567950978300,1.064978271484375,-0.4139498770236969,-0.08898576349020004,0.0650859922170639
1733512567961053400,1.075053466796875,-0.4270118176937103,0.10161794722080231,0.16941671073436737
1733512567971128300,1.08512841796875,-0.42316916584968567,0.33255264163017273,0.2948087155818939
1733512567981203200,1.095203125,-0.4250599145889282,0.5528537631034851,0.3984585404396057
1733512567991277300,1.10527734375,-0.4155905246734619,0.6966077089309692,0.4589748680591583
1733512568001352200,1.115352294921875,-0.39062488079071045,0.7420461773872375,0.4691106379032135
1733512568011427000,1.125427001953125,-0.34237799048423767,0.7203800082206726,0.4218696355819702
1733512568021501200,1.135501220703125,-0.2624553442001343,0.6143304705619812,0.3665389120578766
1733512568031576000,1.145576171875,-0.19742467999458313,0.4866364598274231,0.2780276834964752
1733512568041651200,1.155651123046875,-0.19295980036258698,0.4460204541683197,0.13595356047153473
1733512568051726300,1.165726318359375,-0.19134138524532318,0.41965675354003906,0.0037782141007483006
1733512568061800200,1.17580029296875,-0.15984289348125458,0.37329012155532837,-0.07445335388183594
1733512568071875300,1.185875244140625,-0.09909352660179138,0.3477559983730316,-0.08811537176370621
1733512568081950200,1.1959501953125,-0.038129325956106186,0.3725309371948242,-0.03826218470931053
1733512568092024300,1.2060244140625,-0.00999036617577076,0.4497775435447693,0.05015129968523979
1733512568102099200,1.21609912109375,0.005753607023507357,0.5707348585128784,0.13926322758197784
1733512568112174300,1.22617431640625,0.022615943104028702,0.6859940886497498,0.18246209621429443
1733512568122249500,1.23624951171875,0.04913291707634926,0.7161092162132263,0.18163961172103882
1733512568132323300,1.2463232421875,0.06659126281738281,0.6381062865257263,0.14863106608390808
1733512568142398500,1.2563984375,0.096682608127594,0.4694744348526001,0.0934116467833519
1733512568152473000,1.26647314453125,0.13081981241703033,0.29603099822998047,0.031661197543144226
1733512568162548200,1.27654833984375,0.1642514318227768,0.1793535351753235,-0.0031083417125046253
1733512568172622000,1.2866220703125,0.1701391488313675,0.13940559327602386,0.002689625835046172
1733512568182697200,1.296697265625,0.16121529042720795,0.17097721993923187,0.01819348894059658
1733512568192772000,1.306772216796875,0.1465521901845932,0.2474972903728485,0.016164425760507584
1733512568202846200,1.31684619140625,0.14716430008411407,0.31316623091697693,0.0004774383269250393
1733512568212921300,1.32692138671875,0.1522544026374817,0.35992947220802307,0.000605536624789238
1733512568222996200,1.336996337890625,0.1472531408071518,0.40205785632133484,0.00991824921220541
1733512568233071400,1.3470712890625,0.14072945713996887,0.46054700016975403,0.017198000103235245
1733512568243145200,1.357145263671875,0.13934354484081268,0.5124035477638245,0.016881883144378662
1733512568253220400,1.367220458984375,0.15548336505889893,0.5429774522781372,0.014324182644486427
1733512568263295200,1.377295166015625,0.17230066657066345,0.5636904835700989,0.011067061685025692
1733512568273369300,1.387369384765625,0.18179138004779816,0.5872176289558411,-0.008488263934850693
1733512568283444500,1.397444580078125,0.18590354919433594,0.5728394985198975,-0.026978757232427597
1733512568293519600,1.40751953125,0.19204851984977722,0.5125998258590698,-0.042791541665792465
1733512568303594200,1.41759423828125,0.19690357148647308,0.4506508409976959,-0.06200258806347847
1733512568313668600,1.427668701171875,0.20124451816082,0.412575364112854,-0.09277354925870895
1733512568323743200,1.4377431640625,0.21093221008777618,0.3724837601184845,-0.11203843355178833
1733512568333818400,1.447818359375,0.22021891176700592,0.31544044613838196,-0.11251594126224518
1733512568343892200,1.457892333984375,0.23258082568645477,0.24097253382205963,-0.09152361005544662
1733512568353967400,1.46796728515625,0.2322620451450348,0.17477992177009583,-0.06611998379230499
1733512568364042500,1.47804248046875,0.2236732393503189,0.1311822235584259,-0.05263969302177429
1733512568374117400,1.488117431640625,0.2382042407989502,0.1333436518907547,-0.046704307198524475
1733512568384191500,1.49819140625,0.27230560779571533,0.19641996920108795,-0.05420190840959549
1733512568394266400,1.508266357421875,0.36074361205101013,0.29063141345977783,-0.06255677342414856
1733512568404341500,1.518341552734375,0.46549031138420105,0.3675908148288727,-0.061188481748104095
1733512568414416400,1.52841650390625,0.5441585183143616,0.6080583333969116,-0.13621585071086884
1733512568424490500,1.538490478515625,0.627955973148346,0.8508336544036865,-0.15566369891166687
1733512568434565600,1.548565673828125,0.6722730994224548,0.8843072056770325,-0.061216022819280624
1733512568444640500,1.558640625,0.6785767078399658,0.8010832071304321,0.031165096908807755
1733512568454714600,1.568714599609375,0.6670231223106384,0.7555455565452576,0.06572174280881882
1733512568464789500,1.57878955078125,0.6610088348388672,0.829221248626709,0.042150069028139114
1733512568474864400,1.588864501953125,0.65422123670578,0.9534177780151367,-0.04543623700737953
1733512568484939300,1.598939208984375,0.5964170098304749,1.021209478378296,-0.19477885961532593
1733512568495013400,1.609013427734375,0.4960435628890991,0.991733193397522,-0.38367393612861633
1733512568505088300,1.619088134765625,0.3917052745819092,0.9004097580909729,-0.5467391014099121
1733512568515163400,1.629163330078125,0.3008510172367096,0.7788383364677429,-0.6442009210586548
1733512568525237200,1.6392373046875,0.22338047623634338,0.5836843252182007,-0.6302886605262756
1733512568535312400,1.6493125,0.15705737471580505,0.29969438910484314,-0.46294283866882324
1733512568545387500,1.659387451171875,0.08275683969259262,0.04575441777706146,-0.19148562848567963
1733512568555462400,1.66946240234375,-0.029808852821588516,-0.018667180091142654,0.026532195508480072
1733512568565536500,1.67953662109375,-0.16021518409252167,0.14318284392356873,0.1110990047454834
1733512568575611400,1.689611328125,-0.28703704476356506,0.41730496287345886,0.14138475060462952
1733512568585686500,1.6996865234375,-0.40511196851730347,0.673641562461853,0.2254393845796585
1733512568595761700,1.70976171875,-0.4991620182991028,0.8448087573051453,0.35929813981056213
1733512568605835500,1.71983544921875,-0.5503479242324829,0.924073338508606,0.47546714544296265
1733512568615910700,1.72991064453125,-0.5598751306533813,0.9229486584663391,0.5795687437057495
1733512568625985300,1.7399853515625,-0.5517213344573975,0.8280383348464966,0.7086529731750488
1733512568636059600,1.7500595703125,-0.5584561824798584,0.7223601341247559,0.7999818325042725
1733512568646134300,1.76013427734375,-0.5956860184669495,0.6291972398757935,0.7517500519752502
1733512568656209400,1.77020947265625,-0.6639769077301025,0.49771249294281006,0.5884692668914795
1733512568666284300,1.7802841796875,-0.7652400135993958,0.3673383891582489,0.3515145480632782
1733512568676358400,1.7903583984375,-0.8756930232048035,0.3837205469608307,0.1314367949962616
1733512568686433300,1.800433349609375,-0.9745219349861145,0.6431620717048645,0.048306193202733994
1733512568696508400,1.81050830078125,-1.0224602222442627,1.0332927703857422,0.13147032260894775
1733512568706582500,1.82058251953125,-1.0108121633529663,1.4471222162246704,0.2986074686050415
1733512568716657400,1.830657470703125,-0.998126745223999,1.8496949672698975,0.44734475016593933
1733512568726732500,1.840732666015625,-0.9977861046791077,2.230023145675659,0.46304523944854736
1733512568736807400,1.850807373046875,-1.001323938369751,2.609254837036133,0.36529311537742615
1733512568746881500,1.860881591796875,-1.0386253595352173,2.926790952682495,0.29870864748954773
1733512568756956400,1.870956298828125,-1.1013742685317993,3.0602798461914062,0.3929818868637085
1733512568767031600,1.881031494140625,-1.1589739322662354,2.9237754344940186,0.623548686504364
1733512568777106400,1.8911064453125,-1.2070298194885254,2.5368947982788086,0.8744757175445557
1733512568787180500,1.9011806640625,-1.2227089405059814,2.035400152206421,1.0332398414611816
1733512568797255400,1.91125537109375,-1.2235033512115479,1.5742626190185547,0.9962208867073059
1733512568807330300,1.921330322265625,-1.1983661651611328,1.221705675125122,0.7267374992370605
1733512568817404400,1.931404296875,-1.1722074747085571,0.9851389527320862,0.29025501012802124
1733512568827479300,1.941479248046875,-1.1362329721450806,0.8710497617721558,-0.19265116751194
1733512568837554400,1.951554443359375,-1.108098030090332,0.8596562147140503,-0.6019923686981201
1733512568847629600,1.961629638671875,-1.0664353370666504,0.8226482272148132,-0.8780021667480469
1733512568857703400,1.971703369140625,-1.0115535259246826,0.6734967827796936,-1.0663970708847046
1733512568867778600,1.981778564453125,-0.9252257347106934,0.3831155300140381,-1.2334777116775513
1733512568877853400,1.991853515625,-0.8666806817054749,0.019628925248980522,-1.3685444593429565
1733512568887927600,2.001927490234375,-0.8698810935020447,-0.24600768089294434,-1.4582476615905762
1733512568898002400,2.01200244140625,-0.9321783185005188,-0.2836962342262268,-1.5279170274734497
1733512568908077600,2.02207763671875,-0.999029815196991,-0.051286350935697556,-1.593973994255066
1733512568918152400,2.03215234375,-1.0257006883621216,0.36876100301742554,-1.6072440147399902
1733512568928226600,2.0422265625,-0.9757373332977295,0.6799306273460388,-1.3009097576141357
1733512568938301400,2.052301513671875,-0.8364018201828003,0.8471499681472778,-0.804163932800293
1733512568948376300,2.062376220703125,-0.6279760599136353,0.9903984069824219,-0.455816388130188
1733512568958451500,2.072451416015625,-0.3952178955078125,1.0985996723175049,-0.29084688425064087
1733512568968525300,2.082525390625,-0.1820673942565918,1.2152262926101685,-0.25427040457725525
1733512568978600400,2.092600341796875,0.029435254633426666,1.4235867261886597,-0.26212966442108154
1733512568988675300,2.10267529296875,0.20676521956920624,1.8223950862884521,-0.22300325334072113
1733512568998749400,2.11274951171875,0.3633849322795868,2.4285082817077637,-0.1003795936703682
1733512569008824300,2.12282421875,0.5194560289382935,3.112544536590576,0.07397869974374771
1733512569018899500,2.1328994140625,0.6523056626319885,3.6332316398620605,0.1715388000011444
1733512569028974600,2.142974609375,0.7149972915649414,3.8312742710113525,0.13359993696212769
1733512569039048400,2.15304833984375,0.6777899861335754,3.665816307067871,-0.03572862595319748
1733512569049123600,2.16312353515625,0.5487240552902222,3.1191391944885254,-0.30400827527046204
1733512569059198500,2.173198486328125,0.3560992181301117,2.1334481239318848,-0.5952316522598267
1733512569069272600,2.1832724609375,0.16597695648670197,0.771403431892395,-0.8506271839141846
1733512569079347500,2.193347412109375,-0.004862163681536913,-0.5468250513076782,-1.0335224866867065
1733512569089422600,2.203422607421875,-0.1325090080499649,-1.4326727390289307,-1.1267560720443726
1733512569099497200,2.213497314453125,-0.24968543648719788,-1.85938560962677,-1.0550681352615356
1733512569109571600,2.223571533203125,-0.33699890971183777,-1.9136366844177246,-0.7805675268173218
1733512569119646200,2.233646240234375,-0.359173983335495,-1.7253315448760986,-0.39833787083625793
1733512569129721300,2.243721435546875,-0.31893739104270935,-1.355225682258606,-0.1656728833913803
1733512569139795500,2.25379541015625,-0.25739651918411255,-0.7017855048179626,-0.22427068650722504
1733512569149870300,2.263870361328125,-0.16991804540157318,0.04096454381942749,-0.31216827034950256
1733512569159945500,2.273945556640625,0.002114974893629551,0.571718692779541,-0.13749738037586212
1733512569170020400,2.284020263671875,0.2950395345687866,0.9604700803756714,0.2641652524471283
1733512569180094500,2.294094482421875,0.6385918855667114,1.3352071046829224,0.6932492256164551
1733512569190169300,2.30416943359375,0.9007852077484131,1.8023220300674438,1.0283886194229126
1733512569200244500,2.314244384765625,0.994320273399353,2.577486515045166,1.1598645448684692
1733512569210319600,2.324319580078125,0.911466121673584,3.6776351928710938,0.9464477896690369
1733512569220393500,2.3343935546875,0.7555660009384155,4.53939962387085,0.5010191798210144
1733512569230468600,2.344468505859375,0.6683539748191833,4.74975061416626,-0.024193894118070602
1733512569240543500,2.35454345703125,0.7059897184371948,4.424938678741455,-0.5484941601753235
1733512569250617600,2.36461767578125,0.7004547715187073,3.778264284133911,-1.0361329317092896
1733512569260692500,2.3746923828125,0.5650144219398499,2.844064235687256,-1.3744993209838867
1733512569270768000,2.38476806640625,0.39823052287101746,1.8687434196472168,-1.5330381393432617
1733512569280843000,2.394843017578125,0.2512091100215912,1.1527210474014282,-1.5301746129989624
1733512569290917000,2.404917236328125,0.14475762844085693,0.6731435060501099,-1.3886425495147705
1733512569300992300,2.4149921875,0.05614733323454857,0.27514928579330444,-1.1707741022109985
1733512569311067100,2.425067138671875,-0.05303506180644035,-0.0976051464676857,-0.9779776334762573
1733512569321142300,2.435142333984375,-0.18635396659374237,-0.536982536315918,-0.8600385189056396
1733512569331216100,2.445216064453125,-0.3057192862033844,-1.0284370183944702,-0.8318363428115845
1733512569341291300,2.455291259765625,-0.3637889623641968,-1.5150582790374756,-0.8632462024688721
1733512569351366100,2.4653662109375,-0.3382513225078583,-1.901910424232483,-0.8690975904464722
1733512569361440300,2.475440185546875,-0.2718784213066101,-2.135354518890381,-0.7850583791732788
1733512569371515100,2.48551513671875,-0.2345983237028122,-2.218766689300537,-0.6242790222167969
1733512569381590000,2.495590087890625,-0.21829818189144135,-2.1528875827789307,-0.43505772948265076
1733512569391665200,2.5056650390625,-0.21485796570777893,-1.950118899345398,-0.24239858984947205
1733512569401739000,2.515739013671875,-0.20990101993083954,-1.5895591974258423,-0.07047049701213837
1733512569411814100,2.525814208984375,-0.19895461201667786,-1.06790030002594,0.07093969732522964
1733512569421889000,2.535888916015625,-0.15991799533367157,-0.43983104825019836,0.1712479293346405
1733512569431964200,2.545964111328125,-0.11752501875162125,0.21337930858135223,0.24027201533317566
1733512569442038000,2.5560380859375,-0.08336305618286133,0.8133208155632019,0.279954731464386
1733512569452113200,2.566113037109375,-0.0650172159075737,1.2987078428268433,0.29492151737213135
1733512569462188300,2.576188232421875,-0.07194197177886963,1.6380363702774048,0.2789129912853241
1733512569472262100,2.58626220703125,-0.09550538659095764,1.8078601360321045,0.23452991247177124
1733512569482337300,2.596337158203125,-0.12914857268333435,1.7944433689117432,0.15893235802650452
1733512569492412200,2.606412109375,-0.1689893752336502,1.5842270851135254,0.04470711946487427
1733512569502487300,2.6164873046875,-0.2098933905363083,1.1710333824157715,-0.11296480149030685
1733512569512561200,2.62656103515625,-0.23918233811855316,0.5899711847305298,-0.3031127154827118
1733512569522636300,2.63663623046875,-0.2634093761444092,-0.061959441751241684,-0.5060362815856934
1733512569532711000,2.6467109375,-0.2619830071926117,-0.689072847366333,-0.6658817529678345
1733512569542785300,2.656785400390625,-0.23071642220020294,-1.1867306232452393,-0.7831796407699585
1733512569552860000,2.66685986328125,-0.1895095705986023,-1.4892997741699219,-0.8532623052597046
1733512569562935000,2.67693505859375,-0.15401096642017365,-1.5853363275527954,-0.8803389668464661
1733512569573010200,2.68701025390625,-0.1348777860403061,-1.5126991271972656,-0.8856358528137207
1733512569583084000,2.697083984375,-0.12269515544176102,-1.3322765827178955,-0.8796914219856262
1733512569593159200,2.7071591796875,-0.10420974344015121,-1.0909405946731567,-0.8902076482772827
1733512569603234000,2.717234130859375,-0.07946258783340454,-0.8107019662857056,-0.9512813687324524
1733512569613309200,2.72730908203125,-0.04908327758312225,-0.5342867970466614,-1.085705280303955
1733512569623383000,2.737383056640625,-0.008672738447785378,-0.31659412384033203,-1.3052347898483276
1733512569633458200,2.747458251953125,0.049614906311035156,-0.16507500410079956,-1.553376317024231
1733512569643533300,2.757533203125,0.13958021998405457,-0.1334901750087738,-1.7654374837875366
1733512569653607200,2.767607177734375,0.269243448972702,-0.2367144078016281,-1.8879399299621582
1733512569663682300,2.777682373046875,0.3939369022846222,-0.433174192905426,-1.9217472076416016
1733512569673757200,2.787757080078125,0.4892556369304657,-0.6449036598205566,-1.9133405685424805
1733512569683832000,2.79783203125,0.54441237449646,-0.7869840860366821,-1.875108242034912
1733512569693906200,2.80790625,0.5694466233253479,-0.779296338558197,-1.805186152458191
1733512569703981000,2.81798095703125,0.5554612874984741,-0.6295521259307861,-1.7069416046142578
1733512569714056200,2.82805615234375,0.5218024849891663,-0.3682916462421417,-1.5541090965270996
1733512569724131000,2.838131103515625,0.4985257089138031,-0.09501509368419647,-1.313955307006836
1733512569734205200,2.848205078125,0.5028930306434631,0.2183963805437088,-1.0040258169174194
1733512569744280000,2.858280029296875,0.5662951469421387,0.5348654389381409,-0.6326099038124084
1733512569754355200,2.868355224609375,0.6843937039375305,0.8421583771705627,-0.19038626551628113
1733512569764429000,2.878428955078125,0.8325735926628113,1.1340059041976929,0.30692097544670105
1733512569774504200,2.888504150390625,0.9524192214012146,1.4475314617156982,0.8034318089485168
1733512569784579000,2.8985791015625,0.9893441796302795,1.739473819732666,1.2246140241622925
1733512569794654200,2.908654296875,0.9017928242683411,1.9362965822219849,1.5210936069488525
1733512569804728000,2.91872802734375,0.6926736831665039,1.9608550071716309,1.6727696657180786
1733512569814803200,2.92880322265625,0.368953138589859,1.8106627464294434,1.7060729265213013
1733512569824878300,2.93887841796875,0.0020385198295116425,1.507024884223938,1.6698403358459473
1733512569834953000,2.948952880859375,-0.2879987359046936,1.1028406620025635,1.6090147495269775
1733512569845027300,2.95902734375,-0.45510411262512207,0.6123237013816833,1.5655871629714966
1733512569855102000,2.96910205078125,-0.5412583947181702,0.08884339034557343,1.5056589841842651
1733512569865177000,2.979177001953125,-0.6504743695259094,-0.3863345980644226,1.3763710260391235
1733512569875251000,2.9892509765625,-0.787285327911377,-0.7127436995506287,1.1497175693511963
1733512569885326000,2.999326171875,-0.9098929762840271,-0.7638276219367981,0.8115392923355103
1733512569895401200,3.009401123046875,-0.9156144857406616,-0.5857528448104858,0.5509578585624695
1733512569905476000,3.01947607421875,-0.7460115551948547,-0.37230610847473145,0.5511946082115173
1733512569915550200,3.02955029296875,-0.42874571681022644,-0.12366452813148499,0.7902247309684753
1733512569925625000,3.039625,-0.01856939122080803,0.13342531025409698,1.2106691598892212
1733512569935700200,3.0497001953125,0.31062760949134827,0.450265109539032,1.717840313911438
1733512569945775000,3.059775146484375,0.4775542914867401,0.7976222634315491,2.2174904346466064
1733512569955849200,3.06984912109375,0.5392857789993286,1.2707666158676147,2.63055682182312
1733512569965924000,3.079924072265625,0.5969226956367493,1.8949888944625854,2.9141175746917725
1733512569975999200,3.089999267578125,0.6684916615486145,2.4976751804351807,3.115662097930908
1733512569986073300,3.1000732421875,0.7161486744880676,2.9645814895629883,3.2271652221679688
1733512569996148200,3.110148193359375,0.693003237247467,3.2244935035705566,3.210542678833008
1733512570006223000,3.12022314453125,0.5859137773513794,3.2313313484191895,3.019160270690918
1733512570016298000,3.130298095703125,0.4422031342983246,2.9018990993499756,2.606633186340332
1733512570026372000,3.1403720703125,0.2880348563194275,2.268275022506714,2.000197172164917
1733512570036447000,3.150447021484375,0.1113174557685852,1.5399245023727417,1.331250786781311
1733512570046522000,3.160522216796875,-0.14372575283050537,0.9165350198745728,0.7794657349586487
1733512570056597200,3.17059716796875,-0.42771676182746887,0.4925377070903778,0.41314104199409485
1733512570066671000,3.180671142578125,-0.689993143081665,0.15274177491664886,0.2550920248031616
1733512570076746200,3.190746337890625,-0.882404625415802,-0.2699117660522461,0.30085664987564087
1733512570086821000,3.200821044921875,-1.0348588228225708,-0.6339954137802124,0.47367823123931885
1733512570096895200,3.210895263671875,-1.1936637163162231,-0.7956117987632751,0.6564633846282959
1733512570106970000,3.22097021484375,-1.3371609449386597,-0.6751415729522705,0.8104529976844788
1733512570117045200,3.231045166015625,-1.4394795894622803,-0.2776940166950226,0.9393244385719299
1733512570127120400,3.241120361328125,-1.4742130041122437,0.2479945421218872,1.0276821851730347
1733512570137194200,3.2511943359375,-1.4428350925445557,0.782434344291687,1.0858182907104492
1733512570147269400,3.261269287109375,-1.3575153350830078,1.2214125394821167,1.1211978197097778
1733512570157344000,3.271343994140625,-1.24015474319458,1.5599757432937622,1.1400833129882812
1733512570167419100,3.281419189453125,-1.1195991039276123,1.836591124534607,1.1405330896377563
1733512570177493000,3.291492919921875,-1.0116037130355835,2.072166919708252,1.123775601387024
1733512570187568000,3.301568115234375,-0.9298946857452393,2.239870548248291,1.076856017112732
1733512570197643000,3.31164306640625,-0.8633635640144348,2.285587787628174,0.9785743951797485
1733512570207717000,3.321717041015625,-0.8038848042488098,2.209620475769043,0.830453097820282
1733512570217792000,3.3317919921875,-0.7484328746795654,1.9938310384750366,0.6375194787979126
1733512570227867100,3.3418671875,-0.6915448307991028,1.680411696434021,0.40575599670410156
1733512570237942300,3.3519423828125,-0.6347919702529907,1.3395476341247559,0.1555805504322052
1733512570248016100,3.36201611328125,-0.5799905061721802,0.9666449427604675,-0.10750219970941544
1733512570258091300,3.37209130859375,-0.5065787434577942,0.5733230710029602,-0.38467052578926086
1733512570268166100,3.382166259765625,-0.420002281665802,0.16877742111682892,-0.6482837796211243
1733512570278241000,3.392240966796875,-0.31307095289230347,-0.20629777014255524,-0.8873780965805054
1733512570288315100,3.402315185546875,-0.2226654291152954,-0.4754466712474823,-1.1465851068496704
1733512570298390000,3.41239013671875,-0.14134946465492249,-0.5656352043151855,-1.4637888669967651
1733512570308465000,3.42246484375,-0.05013514310121536,-0.37337255477905273,-1.8325368165969849
1733512570318540000,3.4325400390625,0.09389014542102814,0.03768107667565346,-2.25188946723938
1733512570328614000,3.44261376953125,0.31074443459510803,0.5341049432754517,-2.3703601360321045
1733512570338689000,3.45268896484375,0.341499388217926,0.7997262477874756,-1.2251256704330444
1733512570348764000,3.462763916015625,0.3884780704975128,0.9110802412033081,-0.4037536084651947
1733512570358838000,3.472838134765625,0.46621331572532654,0.8264133334159851,-0.08827110379934311
1733512570368913000,3.482912841796875,0.5339484214782715,0.6331709027290344,0.015610285103321075
1733512570378988000,3.492988037109375,0.5111697316169739,0.3618844151496887,0.01423121802508831
1733512570389063200,3.503063232421875,0.4442833960056305,-0.03526027500629425,-0.17388729751110077
1733512570399137000,3.513136962890625,0.399177223443985,-0.36369603872299194,-0.5215290188789368
1733512570409212200,3.523212158203125,0.3701937794685364,-0.3528899848461151,-0.8252372145652771
1733512570419287000,3.533287109375,0.34300318360328674,-0.0955740362405777,-0.9548270106315613
1733512570429362200,3.543362060546875,0.34962087869644165,0.19535845518112183,-0.924506664276123
1733512570439436000,3.55343603515625,0.4024001657962799,0.3962724208831787,-0.7650691270828247
1733512570449511200,3.56351123046875,0.48607003688812256,0.48632800579071045,-0.4560958743095398
1733512570459585800,3.573585693359375,0.5646278858184814,0.4528962969779968,0.005606024991720915
1733512570469660200,3.58366015625,0.5777495503425598,0.2924046218395233,0.5555285811424255
1733512570479734800,3.59373486328125,0.4769459068775177,0.01592201180756092,0.9963263869285583
1733512570489810000,3.603809814453125,0.20397163927555084,-0.23188352584838867,1.020785927772522
1733512570499885000,3.613885009765625,-0.12802787125110626,-0.43929851055145264,0.665676474571228
1733512570509959000,3.623958984375,-0.30661439895629883,-0.5547292828559875,0.24804916977882385
1733512570520034000,3.634033935546875,-0.39557623863220215,-0.4621092677116394,-0.06189314275979996
1733512570530109000,3.64410888671875,-0.43122079968452454,-0.19199125468730927,-0.2761217951774597
1733512570540184000,3.65418408203125,-0.39384424686431885,0.2330070585012436,-0.4692055284976959
1733512570550258000,3.6642578125,-0.31894683837890625,0.7466820478439331,-0.6967835426330566
1733512570560333000,3.6743330078125,-0.22619925439357758,1.0333853960037231,-0.9145041704177856
1733512570570408200,3.684408203125,-0.08264395594596863,0.9533944725990295,-1.0319747924804688
1733512570580483000,3.694483154296875,0.050284720957279205,0.5866058468818665,-1.0373125076293945
1733512570590557200,3.70455712890625,0.1560569554567337,0.03062065690755844,-1.0104132890701294
1733512570600632000,3.714632080078125,0.2522105574607849,-0.5505387783050537,-0.9952393174171448
1733512570610707000,3.72470703125,0.34947797656059265,-1.0520747900009155,-1.0100816488265991
1733512570620781000,3.734781005859375,0.42211639881134033,-1.4471381902694702,-1.0535839796066284
1733512570630856000,3.74485595703125,0.49145233631134033,-1.7887953519821167,-1.257904291152954
1733512570640931000,3.75493115234375,0.5303951501846313,-2.065459966659546,-1.6506272554397583
1733512570651006000,3.765005859375,0.5164334774017334,-2.1660380363464355,-2.0212883949279785
1733512570661080000,3.775080078125,0.46501290798187256,-1.988173007965088,-2.09875226020813
1733512570671155000,3.785155029296875,0.38370075821876526,-1.5338867902755737,-1.886917233467102
1733512570681230000,3.79522998046875,0.2920214533805847,-1.0088624954223633,-1.4623329639434814
1733512570691305000,3.805304931640625,0.2847616970539093,-0.42016252875328064,-0.9559619426727295
1733512570701379000,3.815379150390625,0.40460726618766785,0.17852769792079926,-0.5088729858398438
1733512570711454000,3.825453857421875,0.5831149220466614,0.6969335675239563,-0.23036596179008484
1733512570721529000,3.835529052734375,0.7218446731567383,1.1012356281280518,-0.10206333547830582
1733512570731604200,3.845604248046875,0.7434450387954712,1.446457028388977,-0.040315013378858566
1733512570741678000,3.855677978515625,0.6067716479301453,1.7480378150939941,-0.0009124134667217731
1733512570751753200,3.865753173828125,0.37470006942749023,1.9397649765014648,0.01663808338344097
1733512570761827800,3.875827880859375,0.12036177515983582,2.0067005157470703,0.017696332186460495
1733512570771902200,3.885902099609375,-0.07146571576595306,1.9626684188842773,-0.02188250422477722
1733512570781976800,3.895976806640625,-0.184294655919075,1.825156331062317,-0.09800319373607635
1733512570792052000,3.906052001953125,-0.23943273723125458,1.59070885181427,-0.1738675981760025
1733512570802127000,3.916127197265625,-0.293254554271698,1.2863142490386963,-0.22469207644462585
1733512570812201000,3.926200927734375,-0.38560551404953003,0.9004884362220764,-0.24427032470703125
1733512570822276000,3.936276123046875,-0.4900028109550476,0.41217365860939026,-0.25756487250328064
1733512570832351000,3.94635107421875,-0.5416905283927917,-0.1493450552225113,-0.26171380281448364
1733512570842426000,3.956426025390625,-0.5353065729141235,-0.725333571434021,-0.25851932168006897
1733512570852500000,3.9665,-0.5037371516227722,-1.222912311553955,-0.24660301208496094
1733512570862575000,3.9765751953125,-0.4858013093471527,-1.6006110906600952,-0.2340165674686432
1733512570872650000,3.98664990234375,-0.49913495779037476,-1.8424780368804932,-0.2179505079984665
1733512570882725000,3.99672509765625,-0.5367147922515869,-1.9574155807495117,-0.21848423779010773
1733512570892799000,4.006799072265625,-0.5698556900024414,-1.9330767393112183,-0.272207647562027
1733512570902874000,4.0168740234375,-0.5950043201446533,-1.8045345544815063,-0.39265361428260803
1733512570912949000,4.026948974609375,-0.6030617356300354,-1.5795345306396484,-0.5801599025726318
1733512570923024000,4.03702392578125,-0.5476981997489929,-1.283890962600708,-0.7906155586242676
1733512570933098000,4.047097900390625,-0.4587635397911072,-0.9501891732215881,-0.969457745552063
1733512570943172900,4.0571728515625,-0.3470938205718994,-0.6160510182380676,-1.1006245613098145
1733512570953248000,4.067248046875,-0.24659784138202667,-0.31762784719467163,-1.1704297065734863
1733512570963321900,4.07732177734375,-0.17382767796516418,-0.09874485433101654,-1.218480110168457
1733512570973397000,4.08739697265625,-0.10693333297967911,0.038562145084142685,-1.267496943473816
1733512570983472000,4.09747216796875,-0.025447631254792213,0.06495150178670883,-1.3301230669021606
1733512570993547000,4.107547119140625,0.09811665117740631,-0.015494074672460556,-1.394286870956421
1733512571003621000,4.11762109375,0.26271188259124756,-0.20517492294311523,-1.425055742263794
1733512571013696000,4.127696044921875,0.4247630834579468,-0.4061679542064667,-1.42865788936615
1733512571023771100,4.137771240234375,0.5181699991226196,-0.6114899516105652,-1.435756802558899
1733512571033846000,4.147845947265625,0.5698595643043518,-0.7507767081260681,-1.414894461631775
1733512571043920100,4.157920166015625,0.6155799031257629,-0.8423676490783691,-1.2530744075775146
1733512571053995000,4.1679951171875,0.6807671785354614,-0.7568910717964172,-0.9248190522193909
1733512571064070000,4.17806982421875,0.7379631996154785,-0.4865087866783142,-0.4963392913341522
1733512571074145000,4.18814501953125,0.7745321393013,-0.10694945603609085,-0.07940812408924103
1733512571084219000,4.198218994140625,0.8087449669837952,0.3383582532405853,0.24609151482582092
1733512571094294000,4.2082939453125,0.8402273058891296,0.7570135593414307,0.48092108964920044
1733512571104369000,4.218368896484375,0.8928802013397217,1.120361328125,0.6485217213630676
1733512571114443000,4.228443115234375,0.93088698387146,1.3996784687042236,0.7571943998336792
1733512571124518000,4.238517822265625,0.836064875125885,1.532989263534546,0.8270910382270813
1733512571134593000,4.248593017578125,0.5231450200080872,1.4845768213272095,0.8773869872093201
1733512571144668200,4.258668212890625,0.06995212286710739,1.2488770484924316,0.8847861289978027
1733512571154742000,4.268741943359375,-0.3358529210090637,0.8228924870491028,0.844639003276825
1733512571164817200,4.278817138671875,-0.5658506751060486,0.2726796567440033,0.7836794853210449
1733512571174892000,4.28889208984375,-0.616328239440918,-0.3156760036945343,0.6984591484069824
1733512571184967200,4.29896728515625,-0.6126276254653931,-0.8053827881813049,0.5731485486030579
1733512571195041000,4.309041015625,-0.6853145956993103,-1.133317232131958,0.36786168813705444
1733512571205116200,4.3191162109375,-0.8211578726768494,-1.3024940490722656,0.05074799433350563
1733512571215191000,4.32919091796875,-0.9302305579185486,-1.236701250076294,-0.31960877776145935
1733512571225266000,4.339265869140625,-0.873721718788147,-0.6093310117721558,-0.33264103531837463
1733512571235340000,4.349340087890625,-0.5314359664916992,0.2678169906139374,0.38648301362991333
1733512571245415000,4.359414794921875,-0.049909260123968124,0.960594892501831,1.449922800064087
1733512571255490000,4.369489990234375,0.3838629424571991,1.4302780628204346,2.3524274826049805
1733512571265565000,4.37956494140625,0.6779460310935974,1.785846471786499,3.0354151725769043
1733512571275639000,4.38963916015625,0.8596274256706238,2.2447330951690674,3.627485752105713
1733512571285714000,4.3997138671875,0.9721898436546326,2.770153284072876,4.1244940757751465
1733512571295789000,4.4097890625,1.0137715339660645,3.121211528778076,4.4551825523376465
1733512571305863000,4.41986279296875,0.9528206586837769,3.1420319080352783,4.544339179992676
1733512571315938000,4.42993798828125,0.8288654088973999,2.8228960037231445,4.414549827575684
1733512571326013200,4.44001318359375,0.6863148808479309,2.1709389686584473,4.124213695526123
1733512571336088000,4.450088134765625,0.5451273918151855,1.3472126722335815,3.660799741744995
1733512571346163000,4.460162841796875,0.4125773310661316,0.7035927176475525,2.996975898742676
1733512571356237000,4.470237060546875,0.2542246878147125,0.4550234377384186,2.1910130977630615
1733512571366312000,4.48031201171875,0.0811515748500824,0.42408299446105957,1.4218240976333618
1733512571376387000,4.490386962890625,-0.1477614939212799,0.6413902640342712,0.7807421088218689
1733512571386461000,4.5004609375,-0.3978416919708252,0.8359081149101257,0.32904013991355896
1733512571396536000,4.5105361328125,-0.5772820115089417,0.6987782716751099,0.0635080635547638
1733512571406611000,4.52061083984375,-0.6620088219642639,0.2775736451148987,-0.06041886284947395
1733512571416686000,4.53068603515625,-0.6991082429885864,-0.2337956428527832,-0.0926353856921196
1733512571426760000,4.540760009765625,-0.7643033266067505,-0.6707144975662231,-0.07210773229598999
1733512571436835000,4.5508349609375,-0.8719227313995361,-0.8490692973136902,0.005218478851020336
1733512571446910000,4.560909912109375,-0.9719046354293823,-0.6772785186767578,0.15926620364189148
1733512571456985000,4.570985107421875,-1.0251126289367676,-0.2458493560552597,0.3610163629055023
1733512571467059000,4.581058837890625,-0.9887189865112305,0.4036266803741455,0.5942758917808533
1733512571477134000,4.591134033203125,-0.8786713480949402,1.0105129480361938,0.7990418076515198
1733512571487209000,4.601208984375,-0.7332345843315125,1.3693702220916748,0.8999462723731995
1733512571497283800,4.611283935546875,-0.5976479649543762,1.4243844747543335,0.8802257776260376
1733512571507358000,4.62135791015625,-0.5127348899841309,1.2731269598007202,0.7590955495834351
1733512571517432800,4.631432861328125,-0.5009716749191284,1.0489803552627563,0.5798653364181519
1733512571527508000,4.641508056640625,-0.5521442294120789,0.8537912964820862,0.3797852098941803
1733512571537583000,4.6515830078125,-0.6401973962783813,0.671424150466919,0.1867014765739441
1733512571547657000,4.661656982421875,-0.7334086298942566,0.47699403762817383,0.0032901500817388296
1733512571557732000,4.671732177734375,-0.7957998514175415,0.2889660894870758,-0.18513621389865875
1733512571567807000,4.681806884765625,-0.8204762935638428,0.13630367815494537,-0.36534199118614197
1733512571577882000,4.691882080078125,-0.7933807373046875,0.024967826902866364,-0.5515669584274292
1733512571587956000,4.7019560546875,-0.7413806915283203,0.02405679039657116,-0.7925718426704407
1733512571598031000,4.712031005859375,-0.6625745892524719,0.2312629669904709,-1.0696409940719604
1733512571608106000,4.72210595703125,-0.43448153138160706,0.6882950067520142,-0.5351860523223877
1733512571618180000,4.73218017578125,-0.17950570583343506,0.8854610919952393,0.19642025232315063
1733512571628255200,4.742255126953125,-0.03329175338149071,0.713413417339325,0.6350917816162109
1733512571638329900,4.752329833984375,0.012556428089737892,0.307698130607605,0.7657392621040344
1733512571648405000,4.762405029296875,0.02545805275440216,0.021255264058709145,0.6683775186538696
1733512571658478800,4.772478759765625,0.0009417915716767311,-0.10687607526779175,0.48562872409820557
1733512571668554000,4.782553955078125,-0.04555743932723999,-0.22326457500457764,0.3260654807090759
1733512571678628900,4.79262890625,-0.10167983174324036,-0.3857930600643158,0.2223220318555832
1733512571688704000,4.8027041015625,-0.14140217006206512,-0.5997397303581238,0.10554292052984238
1733512571698777900,4.81277783203125,-0.15595261752605438,-0.8109062910079956,-0.07560849189758301
1733512571708853000,4.82285302734375,-0.1573798656463623,-0.9138171076774597,-0.33225709199905396
1733512571718928100,4.83292822265625,-0.15784379839897156,-0.9276389479637146,-0.6310815811157227
1733512571729003000,4.8430029296875,-0.14145082235336304,-0.9112220406532288,-0.8955751657485962
1733512571739077000,4.8530771484375,-0.09476295113563538,-0.824463427066803,-1.0529189109802246
1733512571749152000,4.863152099609375,0.02003958448767662,-0.63959139585495,-1.0900959968566895
1733512571759227100,4.87322705078125,0.1933639645576477,-0.4183058738708496,-1.0464342832565308
1733512571769302000,4.883302001953125,0.33151713013648987,-0.21059244871139526,-0.9859607219696045
1733512571779376000,4.893376220703125,0.3930007517337799,0.03881285339593887,-0.9706392884254456
1733512571789451000,4.903450927734375,0.40587887167930603,0.3865962326526642,-1.0361591577529907
1733512571799526000,4.91352587890625,0.4297642409801483,0.794371485710144,-1.1460052728652954
1733512571809601000,4.92360107421875,0.4476965069770813,1.215827465057373,-1.2441154718399048
1733512571819675000,4.9336748046875,0.41428741812705994,1.5916556119918823,-1.270305871963501
1733512571829750000,4.94375,0.323513001203537,1.8552932739257812,-1.1852904558181763
1733512571839825000,4.953824951171875,0.20040839910507202,1.9880821704864502,-0.9882179498672485
1733512571849900000,4.963900146484375,0.07759086787700653,1.9498854875564575,-0.7138055562973022
1733512571859974000,4.973973876953125,-0.007230543997138739,1.6228892803192139,-0.3760341703891754
1733512571870049000,4.984049072265625,-0.07099752873182297,0.9819009900093079,-0.028614774346351624
1733512571880124200,4.994124267578125,-0.1769905388355255,0.11832708865404129,0.18933194875717163
1733512571890199000,5.004198974609375,-0.3755135238170624,-0.7854573130607605,0.10241856426000595
1733512571900273200,5.014273193359375,-0.6639155149459839,-1.4877305030822754,-0.40982475876808167
1733512571910348000,5.02434814453125,-1.0434069633483887,-1.819757342338562,-1.1644147634506226
1733512571920423000,5.0344228515625,-1.4229878187179565,-1.8897700309753418,-1.7609909772872925
1733512571930497000,5.0444970703125,-1.648085594177246,-2.044325590133667,-1.9519985914230347
1733512571940572000,5.054572021484375,-1.7143665552139282,-2.436986207962036,-1.7410762310028076
1733512571950647000,5.06464697265625,-1.64754056930542,-2.9563307762145996,-1.3193514347076416
1733512571960722000,5.074721923828125,-1.5220973491668701,-3.338897943496704,-0.9517502784729004
1733512571970796000,5.084796142578125,-1.4347376823425293,-3.3807787895202637,-0.7751702666282654
1733512571980871000,5.094870849609375,-1.3593950271606445,-3.183248281478882,-0.7338258028030396
1733512571990946000,5.104946044921875,-1.1865549087524414,-2.7613561153411865,-0.6848664879798889
1733512572001021000,5.11502099609375,-0.8141658306121826,-2.309645175933838,-0.5364570617675781
1733512572011095000,5.125094970703125,-0.30790600180625916,-1.9437999725341797,-0.26979362964630127
1733512572021170000,5.135169921875,0.1524389684200287,-1.8147951364517212,0.06522456556558609
1733512572031245000,5.1452451171875,0.5260478854179382,-1.8545567989349365,0.43631091713905334
1733512572041320200,5.1553203125,0.8625651597976685,-1.932289719581604,0.8161945939064026
1733512572051394000,5.16539404296875,1.1955578327178955,-1.9701684713363647,1.200171709060669
1733512572061469200,5.17546923828125,1.5382091999053955,-1.8846149444580078,1.5462229251861572
1733512572071543800,5.185543701171875,1.8540425300598145,-1.557356357574463,1.806850790977478
1733512572081619000,5.195618896484375,2.0615949630737305,-0.9275416731834412,1.9262235164642334
1733512572091692800,5.20569287109375,2.081026554107666,-0.009029930457472801,1.7979403734207153
1733512572101768000,5.215767822265625,1.9322781562805176,1.1846195459365845,1.2824496030807495
1733512572111843000,5.225843017578125,1.6511765718460083,2.256500005722046,0.5417919754981995
1733512572121918000,5.23591796875,1.3306853771209717,3.1008551120758057,-0.22485750913619995
1733512572131992000,5.245991943359375,1.060459017753601,3.687195301055908,-0.884854257106781
1733512572142067000,5.25606689453125,0.8946064710617065,3.8953092098236084,-1.3777399063110352
1733512572152142000,5.26614208984375,0.8572105765342712,3.7765111923217773,-1.6417821645736694
1733512572162217000,5.276217041015625,0.890401303768158,3.395434856414795,-1.7752907276153564
1733512572172291000,5.286291015625,0.9076762795448303,2.6470682621002197,-1.9426003694534302
1733512572182366000,5.296365966796875,0.8872330188751221,1.1708686351776123,-2.429328441619873
1733512572192441000,5.306441162109375,0.7434059977531433,-0.8685091733932495,-3.107611894607544
1733512572202516000,5.316515869140625,0.435780793428421,-2.674410820007324,-3.448406219482422
1733512572212590000,5.326590087890625,0.09717618674039841,-4.017590045928955,-3.297159433364868
1733512572222665000,5.3366650390625,-0.21325251460075378,-4.880673885345459,-2.8117804527282715
1733512572232739800,5.34673974609375,-0.47001442313194275,-5.33046293258667,-2.139749526977539
1733512572242815000,5.35681494140625,-0.6796448826789856,-5.585949420928955,-1.4862782955169678
1733512572252888800,5.366888916015625,-0.8354528546333313,-5.709379196166992,-0.9879582524299622
1733512572262964000,5.3769638671875,-0.9512721300125122,-5.667314052581787,-0.6772738695144653
1733512572273038600,5.38703857421875,-1.0373038053512573,-5.476219177246094,-0.5173766613006592
1733512572283112400,5.397112548828125,-1.1185762882232666,-5.194504261016846,-0.4179489016532898
1733512572293187600,5.4071875,-1.165687918663025,-4.824988842010498,-0.3734823763370514
1733512572303262500,5.417262451171875,-1.1645337343215942,-4.338903903961182,-0.3796288073062897
1733512572313337600,5.427337646484375,-1.1236053705215454,-3.7560253143310547,-0.40811687707901
1733512572323411500,5.437411376953125,-1.0235562324523926,-3.0304532051086426,-0.44343599677085876
1733512572333486600,5.447486572265625,-0.8241479992866516,-2.181678295135498,-0.43953508138656616
1733512572343561500,5.4575615234375,-0.5573053956031799,-1.2893426418304443,-0.34473615884780884
1733512572353636600,5.46763671875,-0.2943269610404968,-0.45784705877304077,-0.18356196582317352
1733512572363710500,5.47771044921875,-0.10940983891487122,0.24031071364879608,-0.02371184714138508
1733512572373785600,5.48778564453125,-0.017768213525414467,0.7210457921028137,0.09393658488988876
1733512572383860500,5.497860595703125,0.03174394369125366,1.0046716928482056,0.15181240439414978
1733512572393935400,5.507935302734375,0.0801577940583229,1.1020808219909668,0.13869120180606842
1733512572404009500,5.518009521484375,0.14294473826885223,1.0455845594406128,0.06079133599996567
1733512572414084400,5.52808447265625,0.20115816593170166,0.8616011142730713,-0.05493112653493881
1733512572424159500,5.538159423828125,0.2573300898075104,0.5961705446243286,-0.16894079744815826
1733512572434234600,5.548234619140625,0.32338982820510864,0.30179932713508606,-0.23035772144794464
1733512572444308500,5.55830859375,0.400811105966568,0.0393323078751564,-0.21424293518066406
1733512572454383600,5.568383544921875,0.4960419535636902,-0.15362957119941711,-0.1291547417640686
1733512572464458500,5.57845849609375,0.5873206853866577,-0.21869432926177979,-0.019316665828227997
1733512572474533600,5.58853369140625,0.6752946972846985,-0.12412650883197784,0.10214468091726303
1733512572484607500,5.598607421875,0.7588245272636414,0.14423249661922455,0.21073055267333984
1733512572494682600,5.6086826171875,0.8322675824165344,0.5520796179771423,0.3082594871520996
1733512572504757500,5.618757568359375,0.8771879076957703,1.0727097988128662,0.39650970697402954
1733512572514832400,5.628832275390625,0.8553262948989868,1.615829348564148,0.444367378950119
1733512572524906500,5.638906494140625,0.7496839761734009,1.9935917854309082,0.40033626556396484
1733512572534981400,5.6489814453125,0.5599563121795654,2.064380407333374,0.23265805840492249
1733512572545056500,5.659056396484375,0.32001879811286926,1.8112753629684448,0.013020251877605915
1733512572555131400,5.66913134765625,0.08303622901439667,1.3650909662246704,-0.15627825260162354
1733512572565205500,5.67920556640625,-0.11027330905199051,0.835136353969574,-0.1967974305152893
1733512572575280400,5.6892802734375,-0.23352722823619843,0.2804833948612213,-0.12575222551822662
1733512572585355500,5.69935546875,-0.3294513523578644,-0.2809343934059143,0.009010382927954197
1733512572595430700,5.7094306640625,-0.42891302704811096,-0.8157088160514832,0.1374519169330597
1733512572605504500,5.71950439453125,-0.5177528858184814,-1.2809715270996094,0.20904435217380524
1733512572615579600,5.72957958984375,-0.5755321383476257,-1.6549828052520752,0.22890986502170563
1733512572625654500,5.739654541015625,-0.6052141189575195,-1.907393217086792,0.21096175909042358
1733512572635729700,5.749729736328125,-0.6097310781478882,-2.036820650100708,0.16220968961715698
1733512572645803500,5.759803466796875,-0.6045386791229248,-2.0611863136291504,0.06777825951576233
1733512572655878700,5.769878662109375,-0.6115261912345886,-1.9800665378570557,-0.0644213855266571
1733512572665953300,5.779953369140625,-0.6542896032333374,-1.7530044317245483,-0.24489636719226837
1733512572676028400,5.7900283203125,-0.7434737086296082,-1.333184003829956,-0.46576568484306335
1733512572686102500,5.8001025390625,-0.8184195756912231,-0.7066996693611145,-0.6917570233345032
1733512572696177400,5.810177490234375,-0.7135980725288391,0.3871907889842987,-0.3879827857017517
1733512572706252500,5.82025244140625,-0.29315313696861267,1.6848725080490112,0.9320851564407349
1733512572716327400,5.830327392578125,0.19823625683784485,2.7506942749023438,2.3411383628845215
1733512572726401500,5.840401611328125,0.5533608198165894,3.4639687538146973,3.2401540279388428
1733512572736476400,5.850476318359375,0.6624917984008789,3.7186851501464844,3.561251163482666
1733512572746551600,5.860551513671875,0.6634806394577026,3.638139486312866,3.7377920150756836
1733512572756626700,5.870626708984375,0.6724144816398621,3.3513431549072266,3.9928829669952393
1733512572766700500,5.880700439453125,0.701772928237915,2.9052724838256836,4.321511268615723
1733512572776775700,5.890775634765625,0.7128484845161438,2.2261712551116943,4.657012462615967
1733512572786850600,5.9008505859375,0.6227564215660095,1.2926533222198486,4.824238300323486
1733512572796925400,5.910925537109375,0.4104534387588501,0.15330806374549866,4.69448184967041
1733512572806999600,5.92099951171875,0.15051427483558655,-0.899135947227478,4.204876899719238
1733512572817074400,5.931074462890625,-0.01815084181725979,-1.640823483467102,3.4635183811187744
1733512572827149600,5.941149658203125,-0.17461740970611572,-1.7257622480392456,2.571498155593872
1733512572837224400,5.951224365234375,-0.41153866052627563,-1.193989634513855,1.613535761833191
1733512572847298600,5.961298583984375,-0.6738773584365845,-0.396335631608963,0.7412404417991638
1733512572857373400,5.97137353515625,-0.8307530283927917,0.23890742659568787,0.1130671575665474
1733512572867448600,5.981448486328125,-0.8465197086334229,0.48634785413742065,-0.2898121178150177
1733512572877523500,5.9915234375,-0.725706934928894,0.3155547082424164,-0.5324571132659912
1733512572887597600,6.00159765625,-0.5434069037437439,-0.07650627940893173,-0.6522626280784607
1733512572897672400,6.01167236328125,-0.3901873826980591,-0.4790288507938385,-0.6714984178543091
1733512572907747600,6.02174755859375,-0.2987480163574219,-0.7111622095108032,-0.5777221322059631
1733512572917822700,6.03182275390625,-0.2485787570476532,-0.6822153925895691,-0.34440428018569946
1733512572927896600,6.041896484375,-0.25271064043045044,-0.4272845387458801,0.017369098961353302
1733512572937971700,6.0519716796875,-0.2933829724788666,-0.06700781732797623,0.4370565712451935
1733512572948046300,6.06204638671875,-0.34914344549179077,0.16404856741428375,0.7611206769943237
1733512572958121500,6.07212158203125,-0.3923710584640503,0.18116998672485352,0.8967559933662415
1733512572968195300,6.0821953125,-0.4216514229774475,0.026930613443255424,0.8602922558784485
1733512572978270500,6.0922705078125,-0.42207199335098267,-0.1986074149608612,0.693987250328064
1733512572988345600,6.102345703125,-0.427987664937973,-0.41743242740631104,0.45256155729293823
1733512572998420500,6.11242041015625,-0.4325738847255707,-0.5666213631629944,0.17231786251068115
1733512573008494600,6.12249462890625,-0.42171379923820496,-0.6574413180351257,-0.1060386672616005
1733512573018569500,6.132569580078125,-0.40547147393226624,-0.6993761658668518,-0.374078631401062
1733512573028644600,6.14264453125,-0.3813520073890686,-0.6866113543510437,-0.6199291348457336
1733512573038719500,6.152719482421875,-0.3618472218513489,-0.6461212635040283,-0.8304464817047119
1733512573048793600,6.162793701171875,-0.34232333302497864,-0.5638719201087952,-1.0008559226989746
1733512573058868500,6.172868408203125,-0.3211384117603302,-0.3943718671798706,-1.1334002017974854
1733512573068943600,6.182943603515625,-0.283234179019928,-0.07887808978557587,-1.2149029970169067
1733512573079018500,6.1930185546875,-0.18432754278182983,0.4032334089279175,-1.3005497455596924
1733512573089092600,6.203092529296875,-0.01582854613661766,1.0300376415252686,-1.4523422718048096
1733512573099167500,6.21316748046875,0.2459324151277542,1.5804922580718994,-1.7384791374206543
1733512573109242400,6.223242431640625,0.5738975405693054,1.9172996282577515,-2.252288341522217
1733512573119317500,6.2333173828125,0.7343862652778625,1.2881163358688354,-2.4935803413391113
1733512573129391400,6.243391357421875,0.2766821086406708,-1.5908629894256592,-0.2419911026954651
1733512573139466500,6.253466552734375,0.10673686861991882,-1.7111691236495972,0.4078342914581299
1733512573149541600,6.263541748046875,-0.07898106426000595,-0.1675359159708023,0.5021565556526184
1733512573159616500,6.273616455078125,-0.2235412299633026,1.6304515600204468,0.5310419201850891
1733512573169690600,6.283690673828125,-0.3200051784515381,2.7321677207946777,0.5476502180099487
1733512573179765500,6.293765625,-0.44151759147644043,3.050950527191162,0.5865795612335205
1733512573189840600,6.303840576171875,-0.5007463097572327,2.9897165298461914,0.7018086910247803
1733512573199915500,6.31391552734375,-0.5098114013671875,2.74696683883667,0.8875680565834045
1733512573209989600,6.32398974609375,-0.5226629972457886,2.370664596557617,1.100264072418213
1733512573220064500,6.334064453125,-0.5668907165527344,1.8821837902069092,1.2829270362854004
1733512573230139400,6.344139404296875,-0.6061875224113464,1.2411364316940308,1.3628495931625366
1733512573240214500,6.354214599609375,-0.5340397357940674,0.41208067536354065,1.3230102062225342
1733512573250288400,6.364288330078125,-0.2960226535797119,-0.4956660270690918,1.1806796789169312
1733512573260363500,6.374363525390625,0.14104536175727844,-1.448150873184204,0.9848759174346924
1733512573270438400,6.3844384765625,0.6427865028381348,-2.3303749561309814,0.6236250400543213
1733512573280513500,6.394513427734375,0.9503194093704224,-2.767714500427246,0.0600888691842556
1733512573290587400,6.40458740234375,0.9156271815299988,-2.763603687286377,-0.657950758934021
1733512573300662500,6.41466259765625,0.5898482203483582,-2.2010819911956787,-1.4998630285263062
1733512573310737700,6.424737548828125,0.3585606813430786,-1.1553536653518677,-2.335496187210083
1733512573320812500,6.4348125,0.35550716519355774,-0.030361689627170563,-2.914332628250122
1733512573330886700,6.44488671875,0.4581102430820465,0.891838788986206,-3.133103132247925
1733512573340961500,6.45496142578125,0.5658000707626343,1.4536195993423462,-3.024972438812256
1733512573351036700,6.46503662109375,0.6492377519607544,1.6331987380981445,-2.662702798843384
1733512573361111300,6.475111328125,0.6876496076583862,1.5583170652389526,-2.1444480419158936
1733512573371185700,6.485185546875,0.6812984943389893,1.3295460939407349,-1.6057007312774658
1733512573381260300,6.49526025390625,0.6634939908981323,1.0233978033065796,-1.1159698963165283
1733512573391335400,6.50533544921875,0.6693273782730103,0.6934474110603333,-0.7091500163078308
1733512573401410600,6.51541064453125,0.6728873252868652,0.32677748799324036,-0.43979039788246155
1733512573411484400,6.525484375,0.7381512522697449,-0.14192475378513336,-0.7032774090766907
1733512573421559600,6.5355595703125,0.8743446469306946,-0.8460052609443665,-1.715456485748291
1733512573431634400,6.545634521484375,0.9342841506004333,-1.574018955230713,-2.656073808670044
1733512573441709600,6.55570947265625,0.8536235690116882,-2.0279526710510254,-2.9735147953033447
1733512573451783400,6.565783447265625,0.6713334321975708,-2.1543331146240234,-2.677750587463379
1733512573461858600,6.575858642578125,0.49522146582603455,-1.9460960626602173,-2.010221481323242
1733512573471933700,6.58593359375,0.42079252004623413,-1.4841872453689575,-1.2033026218414307
1733512573482008600,6.596008544921875,0.4415203034877777,-0.9179468750953674,-0.4430757761001587
1733512573492082700,6.606082763671875,0.5198286771774292,-0.2534352242946625,0.19621391594409943
1733512573502157600,6.616157470703125,0.6222264766693115,0.5113657712936401,0.644456148147583
1733512573512232400,6.626232421875,0.68846195936203,1.3696261644363403,0.8734360337257385
1733512573522307300,6.636307373046875,0.6809752583503723,2.2209439277648926,0.9176455736160278
1733512573532381400,6.64638134765625,0.5893627405166626,2.9095141887664795,0.8310965299606323
1733512573542456600,6.65645654296875,0.4779845178127289,3.4083213806152344,0.6865259408950806
1733512573552531500,6.666531494140625,0.3050321638584137,3.7219460010528564,0.5365542769432068
1733512573562606600,6.676606689453125,0.060174718499183655,3.7428126335144043,0.3871125876903534
1733512573572680400,6.686680419921875,-0.18701696395874023,3.4727959632873535,0.2568187713623047
1733512573582755600,6.696755615234375,-0.41021668910980225,2.976170063018799,0.16259290277957916
1733512573592830500,6.70683056640625,-0.5658795237541199,2.3241631984710693,0.11824541538953781
1733512573602905600,6.716905517578125,-0.6848597526550293,1.5554949045181274,0.10912065953016281
1733512573612979500,6.7269794921875,-0.7907438278198242,0.7195335030555725,0.11752266436815262
1733512573623054600,6.7370546875,-0.8714977502822876,-0.12940378487110138,0.12876655161380768
1733512573633129500,6.74712939453125,-0.8908453583717346,-0.8903874158859253,0.12976443767547607
1733512573643204400,6.757204345703125,-0.8573154807090759,-1.4848628044128418,0.12258334457874298
1733512573653278500,6.767278564453125,-0.8237698078155518,-1.978949785232544,0.11550359427928925
1733512573663353300,6.777353271484375,-0.8067296743392944,-2.3260655403137207,0.08861386030912399
1733512573673428500,6.787428466796875,-0.8132179379463196,-2.5977447032928467,0.013811256736516953
1733512573683503600,6.797503662109375,-0.8544918298721313,-2.77463698387146,-0.16912202537059784
1733512573693577500,6.807577392578125,-0.9543904662132263,-2.8101603984832764,-0.5271773934364319
1733512573703652600,6.817652587890625,-1.0084187984466553,-2.577906847000122,-1.0868216753005981
1733512573713727500,6.8277275390625,-0.9643367528915405,-2.1239585876464844,-1.6364879608154297
1733512573723802600,6.837802734375,-0.823798418045044,-1.5830836296081543,-1.984283208847046
1733512573733876500,6.84787646484375,-0.5895296931266785,-1.1083985567092896,-2.0385091304779053
1733512573743951600,6.85795166015625,-0.34196341037750244,-0.6985105872154236,-1.9068405628204346
1733512573754026500,6.868026611328125,-0.12438208609819412,-0.36078447103500366,-1.7500945329666138
1733512573764101600,6.8781015625,0.09971164166927338,-0.10847064852714539,-1.7217249870300293
1733512573774175500,6.888175537109375,0.4489564299583435,0.06360737234354019,-1.8250916004180908
1733512573784250600,6.898250732421875,0.8420537114143372,0.13805148005485535,-1.925356388092041
1733512573794325500,6.908325439453125,1.169470191001892,0.040136102586984634,-1.93932044506073
1733512573804400400,6.918400390625,1.363946557044983,0.017889278009533882,-1.805099368095398
1733512573814474500,6.928474609375,1.383216142654419,0.05476952716708183,-1.6035465002059937
1733512573824549400,6.93854931640625,1.2586628198623657,0.17360901832580566,-1.4299758672714233
1733512573834624500,6.94862451171875,1.0847680568695068,0.5049355626106262,-1.2713558673858643
1733512573844699600,6.95869970703125,0.9742656946182251,1.0069923400878906,-1.0905191898345947
1733512573854774500,6.9687744140625,0.9951600432395935,1.5670872926712036,-0.8915891647338867
1733512573864848600,6.9788486328125,1.1095279455184937,2.0877890586853027,-0.6240881085395813
1733512573874923500,6.988923583984375,1.2328636646270752,2.5291225910186768,-0.2506825625896454
1733512573884998700,6.99899853515625,1.2774003744125366,2.847633123397827,0.21513104438781738
1733512573895073500,7.009073486328125,1.2115353345870972,2.9745678901672363,0.7320982813835144
1733512573905147600,7.019147705078125,1.0497136116027832,2.861741065979004,1.2084513902664185
1733512573915222500,7.029222412109375,0.8323187232017517,2.4937498569488525,1.5396618843078613
1733512573925297400,7.03929736328125,0.6174592971801758,2.008885383605957,1.7170941829681396
1733512573935372500,7.04937255859375,0.4182175099849701,1.609605073928833,1.8166548013687134
1733512573945446400,7.0594462890625,0.24743588268756866,1.2693066596984863,1.8453079462051392
1733512573955521500,7.069521484375,0.06544718891382217,1.04039466381073,1.8229832649230957
1733512573965596400,7.079596435546875,-0.09442274272441864,0.9203684329986572,1.826501488685608
1733512573975671600,7.089671630859375,-0.17622679471969604,0.7913603782653809,1.955150842666626
1733512573985745400,7.099745361328125,-0.1605156809091568,0.655817985534668,2.208481788635254
1733512573995820500,7.109820556640625,-0.09915991127490997,0.45781514048576355,2.452946901321411
1733512574005895700,7.119895751953125,0.012430451810359955,0.33572179079055786,2.685527801513672
1733512574015970600,7.129970458984375,0.13884857296943665,0.27530720829963684,2.9966492652893066
1733512574026044700,7.140044677734375,0.2518409788608551,0.20304755866527557,3.3389639854431152
1733512574036119600,7.15011962890625,0.3731359839439392,0.40662679076194763,3.57916259765625
1733512574046194400,7.1601943359375,0.5247457027435303,0.7385097146034241,3.748100757598877
1733512574056269300,7.170269287109375,0.7158504128456116,1.152601957321167,3.8523812294006348
1733512574066343400,7.180343505859375,0.8918768763542175,1.818652629852295,3.770397663116455
1733512574076418300,7.190418212890625,0.9772272109985352,2.7158422470092773,3.431734561920166
1733512574086493400,7.200493408203125,0.930931806564331,3.650615692138672,2.8664121627807617
1733512574096568600,7.210568603515625,0.6230666637420654,4.615411281585693,2.0817573070526123
1733512574106642400,7.220642333984375,0.15552663803100586,5.132792949676514,1.0583233833312988
1733512574116717600,7.230717529296875,-0.26845768094062805,4.541077136993408,0.051042590290308
1733512574126792400,7.24079248046875,-0.6071805953979492,2.919689178466797,-0.6065466403961182
1733512574136867600,7.25086767578125,-0.901887059211731,0.9358355402946472,-0.6766732335090637
1733512574146941400,7.26094140625,-1.1423324346542358,-0.770910918712616,-0.29701679944992065
1733512574157016600,7.2710166015625,-1.2921110391616821,-1.7575899362564087,0.2686058580875397
1733512574167091700,7.281091796875,-1.4240541458129883,-1.9027987718582153,0.7786281704902649
1733512574177166300,7.291166259765625,-1.5902880430221558,-1.4570121765136719,1.106102705001831
1733512574187240700,7.30124072265625,-1.7849299907684326,-0.6134768128395081,1.2340973615646362
1733512574197315300,7.3113154296875,-1.9587839841842651,0.38568314909935,1.2636736631393433
1733512574207390500,7.321390380859375,-2.0427844524383545,1.2629570960998535,1.2991671562194824
1733512574217465300,7.33146533203125,-2.0677273273468018,1.8747535943984985,1.3406940698623657
1733512574227539500,7.34153955078125,-2.0275533199310303,2.3078060150146484,1.3415672779083252
1733512574237614300,7.3516142578125,-1.8926538228988647,2.6129815578460693,1.2541453838348389
1733512574247689500,7.361689453125,-1.7219500541687012,2.8613429069519043,1.0746760368347168
1733512574257764600,7.3717646484375,-1.5484060049057007,3.037083148956299,0.8227133750915527
1733512574267838500,7.38183837890625,-1.3806536197662354,3.0842881202697754,0.5473304390907288
1733512574277913900,7.391913818359375,-1.2233918905258179,3.0658299922943115,0.29733923077583313
1733512574287988700,7.40198876953125,-1.0951433181762695,2.9376978874206543,0.07838420569896698
1733512574298064000,7.41206396484375,-1.0004515647888184,2.653604030609131,-0.11076654493808746
1733512574308138800,7.422138671875,-0.9104050993919373,2.2727415561676025,-0.28787460923194885
1733512574318212900,7.432212890625,-0.8197268843650818,1.8547821044921875,-0.47715452313423157
1733512574328287700,7.442287841796875,-0.7284544706344604,1.4005483388900757,-0.6682111024856567
1733512574338362600,7.452362548828125,-0.6506438255310059,0.8548059463500977,-0.8601874709129333
1733512574348437800,7.462437744140625,-0.6091188192367554,0.29724445939064026,-1.0996612310409546
1733512574358511600,7.47251171875,-0.5982017517089844,-0.06318508833646774,-1.542236566543579
1733512574368586800,7.482586669921875,-0.5690329074859619,0.04997844621539116,-2.2284791469573975
1733512574378662000,7.492661865234375,-0.40495240688323975,1.165009617805481,-2.930203437805176
1733512574388736800,7.50273681640625,-0.02553664892911911,3.144468307495117,-2.19256591796875
1733512574398811000,7.512810791015625,0.2367604821920395,3.457505702972412,-0.8984636068344116
1733512574408885800,7.5228857421875,0.3345893323421478,2.3063178062438965,-0.22465452551841736
1733512574418961000,7.5329609375,0.27330920100212097,0.9220688939094543,0.21857057511806488
1733512574429035800,7.543035888671875,0.10187696665525436,-0.35431841015815735,0.5188047885894775
1733512574439110000,7.55310986328125,0.010936410166323185,-1.196536898612976,0.5362657904624939
1733512574449184800,7.563184814453125,0.07950970530509949,-1.4730501174926758,0.33799323439598083
1733512574459259600,7.573259765625,0.25169745087623596,-1.3319848775863647,0.07710465043783188
1733512574469334800,7.583334716796875,0.44347649812698364,-0.8073089718818665,-0.181928351521492
1733512574479408600,7.59340869140625,0.6089991927146912,0.008241262286901474,-0.4029718041419983
1733512574489483800,7.60348388671875,0.7573176026344299,0.8313422799110413,-0.5943883061408997
1733512574499558700,7.61355859375,0.9473064541816711,1.3405277729034424,-0.7970897555351257
1733512574509633800,7.6236337890625,1.2114382982254028,1.513466715812683,-0.9537935853004456
1733512574519707600,7.633707763671875,1.473966121673584,1.5918488502502441,-0.9342859387397766
1733512574529782800,7.64378271484375,1.5956792831420898,1.6004738807678223,-0.6628360748291016
1733512574539858000,7.65385791015625,1.54865562915802,1.531782627105713,-0.17640677094459534
1733512574549932800,7.663932861328125,1.2892578840255737,1.2886842489242554,0.3572949171066284
1733512574560007000,7.6740068359375,0.7884594798088074,0.9170824885368347,0.6645448803901672
1733512574570081800,7.684081787109375,0.1349920779466629,0.49426668882369995,0.4989457130432129
1733512574580157000,7.694156982421875,-0.361827552318573,0.07269414514303207,0.01859772391617298
1733512574590231600,7.7042314453125,-0.6756725907325745,-0.009321559220552444,-0.43920838832855225
1733512574600306000,7.714305908203125,-0.9120033979415894,0.23915882408618927,-0.75086510181427
1733512574610380500,7.724380615234375,-1.0754590034484863,0.5388922691345215,-0.9423113465309143
1733512574620455700,7.73445556640625,-1.106360912322998,0.6689557433128357,-1.0228530168533325
1733512574630530800,7.74453076171875,-1.0242056846618652,0.4911820888519287,-0.9984404444694519
1733512574640604700,7.754604736328125,-0.8722509741783142,-0.010263434611260891,-0.9256378412246704
1733512574650679800,7.7646796875,-0.6576082706451416,-0.751273512840271,-0.8261615037918091
1733512574660754700,7.774754638671875,-0.40222418308258057,-1.5137443542480469,-0.7390106320381165
1733512574670829800,7.784829833984375,-0.11203482002019882,-2.1203999519348145,-0.683445155620575
1733512574680905000,7.794905029296875,0.17627766728401184,-2.5622620582580566,-0.6523112058639526
1733512574690978800,7.804978759765625,0.39170584082603455,-2.8613476753234863,-0.6677414178848267
1733512574701054000,7.815053955078125,0.4500349462032318,-2.9754555225372314,-0.828447699546814
1733512574711128800,7.82512890625,0.3487549424171448,-2.8507394790649414,-1.1987279653549194
1733512574721203700,7.83520361328125,0.19632254540920258,-2.4765195846557617,-1.590880274772644
1733512574731277800,7.84527783203125,0.1387118399143219,-1.8829392194747925,-1.7680691480636597
1733512574741352700,7.855352783203125,0.23657794296741486,-1.1649738550186157,-1.6934033632278442
1733512574751427600,7.865427490234375,0.40463128685951233,-0.4520372748374939,-1.4189708232879639
1733512574761502700,7.875502685546875,0.5631221532821655,0.24255694448947906,-1.0359179973602295
1733512574771576800,7.885576904296875,0.6760920882225037,0.9090020656585693,-0.65656977891922
1733512574781651700,7.895651611328125,0.7483708262443542,1.5356096029281616,-0.36586418747901917
1733512574791726800,7.905726806640625,0.7712728977203369,2.107508659362793,-0.21235568821430206
1733512574801801700,7.9158017578125,0.7377647757530212,2.5590591430664062,-0.20743043720722198
1733512574811875800,7.925875732421875,0.6353757977485657,2.8059329986572266,-0.3158554434776306
1733512574821950700,7.93595068359375,0.4313563108444214,2.839268207550049,-0.43740877509117126
1733512574832025900,7.94602587890625,0.16746491193771362,2.7230772972106934,-0.514342188835144
1733512574842100700,7.956100830078125,-0.07662685215473175,2.4576714038848877,-0.5164839029312134
1733512574852174800,7.9661748046875,-0.25784435868263245,2.081603765487671,-0.4505183696746826
1733512574862249700,7.976249755859375,-0.37781551480293274,1.6113108396530151,-0.3650370240211487
1733512574872324600,7.98632470703125,-0.47457265853881836,1.0606626272201538,-0.29208412766456604
1733512574882399700,7.996399658203125,-0.5597280263900757,0.47463083267211914,-0.2647760808467865
1733512574892473600,8.0064736328125,-0.615844190120697,-0.1278276890516281,-0.27955523133277893
1733512574902548700,8.016548828125,-0.6065382957458496,-0.7288312315940857,-0.31606078147888184
1733512574912623600,8.02662353515625,-0.5586303472518921,-1.3082858324050903,-0.36982589960098267
1733512574922698800,8.03669873046875,-0.5056264996528625,-1.803525686264038,-0.4275003969669342
1733512574932772900,8.04677294921875,-0.4670669734477997,-2.1565213203430176,-0.48195409774780273
1733512574942847700,8.05684765625,-0.4540531635284424,-2.350728750228882,-0.5319802761077881
1733512574952923000,8.0669228515625,-0.4557732343673706,-2.3828511238098145,-0.6180600523948669
1733512574962997800,8.076997802734375,-0.47932517528533936,-2.2845609188079834,-0.7719563841819763
1733512574973072600,8.08707275390625,-0.49920374155044556,-2.032691717147827,-1.045455813407898
1733512574983146800,8.097146728515625,-0.4545917809009552,-1.6287164688110352,-1.3974045515060425
1733512574993221600,8.1072216796875,-0.3330812454223633,-1.1179907321929932,-1.7000634670257568
1733512575003296800,8.117296875,-0.18633601069450378,-0.6378983855247498,-1.9440255165100098
1733512575013371600,8.12737158203125,-0.04721211642026901,-0.32819145917892456,-2.1099395751953125
1733512575023445800,8.13744580078125,0.0654209554195404,-0.17444637417793274,-2.2006452083587646
1733512575033520600,8.147520751953126,0.16481119394302368,-0.14482563734054565,-2.2556002140045166
1733512575043595800,8.157595703125,0.30578240752220154,-0.17276911437511444,-2.2978267669677734
1733512575053670700,8.167670654296876,0.48643219470977783,-0.22298280894756317,-2.2460439205169678
1733512575063744800,8.177744873046874,0.6711850166320801,-0.16466890275478363,-2.0413873195648193
1733512575073820000,8.18781982421875,0.8093937039375305,0.04425451159477234,-1.729358196258545
1733512575083894800,8.197894775390624,0.9129410982131958,0.43160197138786316,-1.3896675109863281
1733512575093970000,8.207969970703125,1.003607153892517,1.0013242959976196,-1.078428030014038
1733512575104043800,8.218043701171876,1.1015979051589966,1.6711673736572266,-0.8111917972564697
1733512575114119000,8.228118896484375,1.1857835054397583,2.3421647548675537,-0.5515230894088745
1733512575124193800,8.23819384765625,1.2102733850479126,2.833751916885376,-0.2399180680513382
1733512575134268700,8.2482685546875,1.0919297933578491,2.977121114730835,0.17164179682731628
1733512575144342800,8.2583427734375,0.7642515301704407,2.6963772773742676,0.7687978744506836
1733512575154417700,8.268417724609375,0.2812279760837555,2.131791114807129,1.4603979587554932
1733512575164492800,8.278492919921876,-0.2317863404750824,1.5110031366348267,2.134706735610962
1733512575174567700,8.288567626953125,-0.610955536365509,0.8484220504760742,2.774827003479004
1733512575184641800,8.298641845703125,-0.823148250579834,0.18458974361419678,3.2940335273742676
1733512575194716700,8.308716552734374,-0.9879502654075623,-0.19425927102565765,3.6422674655914307
1733512575204791800,8.318791748046875,-1.1573257446289062,-0.39528027176856995,3.88863468170166
1733512575214867000,8.328866943359374,-1.305116057395935,-0.5613002777099609,4.000552654266357
1733512575224941800,8.33894189453125,-1.3352923393249512,-0.5979501605033875,3.9669442176818848
1733512575235016000,8.349015869140626,-1.161323070526123,-0.3455261290073395,3.919171094894409
1733512575245090800,8.3590908203125,-0.8494071960449219,0.6232325434684753,3.9227945804595947
1733512575255165700,8.369165771484376,-0.43942663073539734,1.4955995082855225,3.9831762313842773
1733512575265240600,8.379240478515625,-0.0008015967905521393,1.8639575242996216,3.9647693634033203
1733512575275314700,8.389314697265625,0.3266405165195465,1.7046862840652466,3.7684152126312256
1733512575285389600,8.3993896484375,0.4722810685634613,1.4871834516525269,3.4338619709014893
1733512575295464700,8.409464599609375,0.43975505232810974,1.4518386125564575,2.9441444873809814
1733512575305539800,8.419539794921874,0.3217839300632477,1.593104362487793,2.398958921432495
1733512575315613700,8.42961376953125,0.2720676362514496,1.6742630004882812,1.9051121473312378
1733512575325688800,8.439688720703124,0.2955809533596039,1.8059874773025513,1.341120719909668
1733512575335763700,8.449763671875,0.36338064074516296,1.9509449005126953,0.645088255405426
1733512575345838800,8.4598388671875,0.40628334879875183,1.8468495607376099,-0.1087208017706871
1733512575355912700,8.46991259765625,0.3463863134384155,1.2745428085327148,-0.7602285742759705
1733512575365987800,8.47998779296875,0.17836618423461914,0.17283804714679718,-1.1035236120224
1733512575376063000,8.49006298828125,-0.06827840209007263,-1.1074695587158203,-1.049514889717102
1733512575386137600,8.5001376953125,-0.3740583062171936,-2.039738416671753,-0.6019977331161499
1733512575396212000,8.5102119140625,-0.6618586778640747,-1.9218602180480957,0.08743489533662796
1733512575406286600,8.52028662109375,-0.8426430821418762,-0.8189090490341187,0.8378785252571106
1733512575416361700,8.53036181640625,-0.9064252972602844,0.5909700393676758,1.4911268949508667
1733512575426436600,8.5404365234375,-0.8901142477989197,1.8126301765441895,1.9309120178222656
1733512575436511700,8.55051171875,-0.8897584676742554,2.5413784980773926,2.1533114910125732
1733512575446585600,8.560585693359375,-0.9404823780059814,2.6799538135528564,2.2505059242248535
1733512575456660700,8.57066064453125,-1.0116608142852783,2.3482072353363037,2.228259563446045
1733512575466735900,8.58073583984375,-1.0947998762130737,1.792831540107727,2.052375555038452
1733512575476810800,8.590810791015626,-1.1801347732543945,1.217248797416687,1.7112189531326294
1733512575486884900,8.600884765625,-1.2301236391067505,0.6905883550643921,1.2520875930786133
1733512575496959700,8.610959716796875,-1.238573670387268,0.21441689133644104,0.7403799295425415
1733512575507035000,8.621034912109375,-1.2066760063171387,-0.21788258850574493,0.2497931271791458
1733512575517109800,8.63110986328125,-1.1519322395324707,-0.556738555431366,-0.18932509422302246
1733512575527184000,8.641183837890624,-1.0823073387145996,-0.7938157916069031,-0.5515283346176147
1733512575537258800,8.6512587890625,-0.998969554901123,-0.9438313245773315,-0.8270754814147949
1733512575547333600,8.661333740234374,-0.9033687114715576,-1.042196273803711,-1.0470483303070068
1733512575557408800,8.67140869140625,-0.7837223410606384,-1.1236861944198608,-1.2381826639175415
1733512575567482600,8.681482666015626,-0.6620147824287415,-1.143993616104126,-1.3988701105117798
1733512575577557800,8.691557861328125,-0.540398120880127,-1.058913230895996,-1.577195644378662
1733512575587632600,8.701632568359376,-0.3569316267967224,-0.8161598443984985,-1.7826550006866455
1733512575597707800,8.711707763671875,-0.008398443460464478,-0.19058853387832642,-2.090634346008301
1733512575607781600,8.72178173828125,0.538535475730896,0.8858571648597717,-2.51832914352417
1733512575617856800,8.731856689453124,1.0034831762313843,3.2015225887298584,-2.0368728637695312
1733512575627932000,8.741931884765625,1.051603078842163,5.531036376953125,0.2531220018863678
1733512575638006800,8.7520068359375,0.9845204949378967,3.8787901401519775,1.2873666286468506
1733512575648081000,8.762080810546875,0.8554682731628418,0.4097493588924408,0.9617821574211121
1733512575658155800,8.77215576171875,0.8212710022926331,-2.2121455669403076,0.15505065023899078
1733512575668230700,8.782230712890625,0.8060611486434937,-3.394928216934204,-0.468840092420578
1733512575678305800,8.792305908203126,0.6961004734039307,-3.7194719314575195,-0.5676316022872925
1733512575688380700,8.802380615234375,0.5274435877799988,-3.3403379917144775,-0.24216321110725403
1733512575698454800,8.812454833984376,0.4029473066329956,-2.3698997497558594,0.2105177789926529
1733512575708529700,8.82252978515625,0.406283438205719,-1.3215701580047607,0.5334465503692627
1733512575718604800,8.832604736328125,0.5444648265838623,-0.5283363461494446,0.6880298256874084
1733512575728679700,8.8426796875,0.7676752805709839,-0.09554387629032135,0.7636092305183411
1733512575738753800,8.85275390625,1.0083056688308716,-0.0065585533156991005,0.7966915369033813
1733512575748828700,8.86282861328125,1.2147835493087769,0.00860948022454977,0.7382010221481323
1733512575758903800,8.87290380859375,1.2435311079025269,0.21671535074710846,0.4619327187538147
1733512575768979000,8.88297900390625,0.9817062020301819,0.6753278970718384,-0.037739675492048264
1733512575779052800,8.893052734375,0.5205519199371338,1.2748600244522095,-0.6222947835922241
1733512575789128000,8.9031279296875,0.1223725974559784,1.6990395784378052,-1.1430433988571167
1733512575799202600,8.91320263671875,-0.10631642490625381,1.7982678413391113,-1.5140787363052368
1733512575809277700,8.923277587890626,-0.1598970890045166,1.5350375175476074,-1.7443294525146484
1733512575819351600,8.9333515625,-0.08419504761695862,0.8714578151702881,-1.852807879447937
1733512575829426700,8.9434267578125,0.051279421895742416,-0.13684292137622833,-1.86104154586792
1733512575839501800,8.953501708984374,0.22133786976337433,-1.3336024284362793,-1.7890204191207886
1733512575849576700,8.96357666015625,0.3928704857826233,-2.320303440093994,-1.6386396884918213
1733512575859651800,8.97365185546875,0.5625106692314148,-2.9907631874084473,-1.408647060394287
1733512575869725700,8.9837255859375,0.6720983982086182,-3.3647890090942383,-1.1242105960845947
1733512575879800800,8.99380078125,0.6996570825576782,-3.4187896251678467,-0.832337498664856
1733512575889875700,9.003875732421875,0.6770590543746948,-3.201395273208618,-0.5669998526573181
1733512575899950800,9.013950927734374,0.6544290781021118,-2.793384552001953,-0.3729207515716553
1733512575910025000,9.02402490234375,0.6612992882728577,-2.357645034790039,-0.29179847240448
1733512575920099800,9.034099853515626,0.7502002120018005,-2.095982074737549,-0.5051233172416687
1733512575930174700,9.0441748046875,0.9184166789054871,-2.2508394718170166,-1.2575796842575073
1733512575940249600,9.05424951171875,1.0378003120422363,-2.4943130016326904,-1.963849663734436
1733512575950323700,9.06432373046875,0.9812103509902954,-2.34144926071167,-2.2477853298187256
1733512575960398600,9.074398681640625,0.8157119750976562,-1.8320339918136597,-2.159230947494507
1733512575970473700,9.0844736328125,0.6118901371955872,-1.1934572458267212,-1.8565188646316528
1733512575980548900,9.094548828125,0.47508305311203003,-0.478447824716568,-1.4629192352294922
1733512575990622700,9.104622802734376,0.49527567625045776,0.08316782861948013,-1.11708664894104
1733512576000697900,9.11469775390625,0.5829635858535767,0.3982710838317871,-0.9503873586654663
1733512576010772700,9.124772705078126,0.6037823557853699,0.5309827327728271,-0.9135339856147766
1733512576020847900,9.134847900390625,0.4554257392883301,0.601930558681488,-0.8669936060905457
1733512576030922800,9.1449228515625,0.1816866099834442,0.6736651659011841,-0.7524396181106567
1733512576040996900,9.154996826171875,-0.12926864624023438,0.7716200947761536,-0.5756499767303467
1733512576051071700,9.16507177734375,-0.39230480790138245,0.8503545522689819,-0.3853663206100464
1733512576061146600,9.175146728515625,-0.5501535534858704,0.871251106262207,-0.21935687959194183
1733512576071221800,9.1852216796875,-0.6219334602355957,0.8396715521812439,-0.08772933483123779
1733512576081295600,9.195295654296874,-0.6583782434463501,0.7922112941741943,0.0041277711279690266
1733512576091370800,9.205370849609375,-0.6513054370880127,0.7566056251525879,0.05156825855374336
1733512576101445600,9.215445556640624,-0.5947040915489197,0.7328426241874695,0.04869671165943146
1733512576111520800,9.225520751953125,-0.5156084299087524,0.6852607727050781,-0.018039178103208542
1733512576121594600,9.2355947265625,-0.4459058344364166,0.5866726636886597,-0.12322206050157547
1733512576131669800,9.245669677734375,-0.4090000092983246,0.40813833475112915,-0.25279709696769714
1733512576141745000,9.255744873046876,-0.42199796438217163,0.14393454790115356,-0.398379385471344
1733512576151819800,9.26581982421875,-0.49756622314453125,-0.18547451496124268,-0.4420488178730011
1733512576161894000,9.275893798828125,-0.5285033583641052,-0.6231865882873535,-0.4732314944267273
1733512576171968800,9.28596875,-0.5030219554901123,-0.9753190875053406,-0.5202157497406006
1733512576182044000,9.2960439453125,-0.48687875270843506,-1.2658379077911377,-0.6492520570755005
1733512576192118500,9.306118408203124,-0.4806288480758667,-1.4026621580123901,-0.9957900047302246
1733512576202193000,9.31619287109375,-0.4968942701816559,-1.4605576992034912,-1.7005245685577393
1733512576212267800,9.326267822265624,-0.4982745945453644,-1.4922988414764404,-2.5573220252990723
1733512576222342700,9.3363427734375,-0.3445861041545868,-1.5482169389724731,-3.0773520469665527
1733512576232417800,9.346417724609376,-0.0035787089727818966,-1.6565556526184082,-3.137601375579834
1733512576242492700,9.35649267578125,0.3821150064468384,-1.8074631690979004,-2.8953588008880615
1733512576252566800,9.36656689453125,0.6432832479476929,-1.8541805744171143,-2.533859968185425
1733512576262641700,9.3766416015625,0.7632630467414856,-1.6407430171966553,-2.120206356048584
1733512576272716800,9.386716796875,0.8379258513450623,-1.2381495237350464,-1.610607624053955
1733512576282792000,9.3967919921875,0.9522524476051331,-0.6061574816703796,-1.0206961631774902
1733512576292865800,9.40686572265625,1.068359375,0.21104201674461365,-0.4331602454185486
1733512576302941000,9.41694091796875,1.1215240955352783,1.185829520225525,0.020122651010751724
1733512576313015800,9.427015869140625,1.1147615909576416,2.1540186405181885,0.27447211742401123
1733512576323090700,9.437090576171874,1.0829195976257324,2.9192705154418945,0.3156018853187561
1733512576333164800,9.447164794921875,1.0414785146713257,3.2813522815704346,0.24398307502269745
1733512576343239700,9.45723974609375,0.9380475878715515,3.1861236095428467,0.22165344655513763
1733512576353314800,9.467314697265625,0.7163127660751343,2.725252866744995,0.39658212661743164
1733512576363389700,9.4773896484375,0.3729606866836548,1.9473692178726196,0.8224126100540161
1733512576373464800,9.48746484375,-0.0108500886708498,1.0796830654144287,1.4132087230682373
1733512576383538700,9.49753857421875,-0.3624826967716217,0.2688194513320923,2.0737087726593018
1733512576393613800,9.50761376953125,-0.6565089821815491,-0.5044144988059998,2.711843729019165
1733512576403688700,9.517688720703125,-0.9515710473060608,-1.061461329460144,3.1969921588897705
1733512576413763800,9.527763916015624,-1.2415664196014404,-1.424219012260437,3.465381145477295
1733512576423837700,9.537837646484375,-1.480870246887207,-1.6288306713104248,3.536869764328003
1733512576433912800,9.547912841796874,-1.5707907676696777,-1.5874296426773071,3.4978339672088623
1733512576443988000,9.557988037109375,-1.4662889242172241,-1.3008497953414917,3.4209649562835693
1733512576454062600,9.5680625,-1.1773277521133423,-0.79289710521698,3.3534598350524902
1733512576464137000,9.578136962890625,-0.734050452709198,-0.04891609400510788,3.468329429626465
1733512576474211600,9.588211669921876,-0.20161664485931396,0.8375599384307861,3.747040033340454
1733512576484286700,9.59828662109375,0.21092760562896729,1.6350754499435425,3.9845075607299805
1733512576494361900,9.60836181640625,0.4406721293926239,2.2577054500579834,4.078380107879639
1733512576504435700,9.618435791015624,0.4449121057987213,2.7341606616973877,3.958691358566284
1733512576514510800,9.6285107421875,0.27540457248687744,3.0031068325042725,3.545902729034424
1733512576524585700,9.638585693359374,0.09281757473945618,2.993690252304077,2.868229627609253
1733512576534660900,9.648660888671875,-0.010858758352696896,2.73128604888916,2.03408145904541
1733512576544735700,9.65873583984375,-0.041949715465307236,2.4136359691619873,1.1563773155212402
1733512576554809900,9.668809814453125,-0.06792698800563812,2.0051827430725098,0.4023166298866272
1733512576564884700,9.678884765625,-0.10633817315101624,1.4083237648010254,-0.19279475510120392
1733512576574959900,9.6889599609375,-0.145450159907341,0.6042778491973877,-0.6034318208694458
1733512576585034800,9.69903466796875,-0.1760571300983429,-0.25792768597602844,-0.7591953277587891
1733512576595108900,9.70910888671875,-0.28290021419525146,-0.9953290820121765,-0.6441835165023804
1733512576605183700,9.719183837890625,-0.4764193594455719,-1.3963829278945923,-0.2321716994047165
1733512576615258600,9.729258544921874,-0.6957799792289734,-1.1950005292892456,0.47691279649734497
1733512576625333800,9.739333740234375,-0.8791117072105408,-0.28004178404808044,1.209434986114502
1733512576635407600,9.74940771484375,-1.0199404954910278,0.8261266946792603,1.7583163976669312
1733512576645482800,9.759482666015625,-1.1140422821044922,1.6941070556640625,2.043609380722046
1733512576655558000,9.769557861328124,-1.1580827236175537,2.1242032051086426,2.1502771377563477
1733512576665632800,9.7796328125,-1.1741161346435547,2.08210825920105,2.1550068855285645
1733512576675707000,9.789706787109376,-1.168613314628601,1.7530639171600342,2.0173392295837402
1733512576685781800,9.79978173828125,-1.1517916917800903,1.4115043878555298,1.7497633695602417
1733512576695857000,9.80985693359375,-1.1381230354309082,1.1196812391281128,1.362961769104004
1733512576705931800,9.819931884765625,-1.1256310939788818,0.9063183069229126,0.933515727519989
1733512576716006700,9.830006591796876,-1.118746280670166,0.6993281245231628,0.5180284976959229
1733512576726080800,9.840080810546874,-1.101952314376831,0.47582733631134033,0.12420573830604553
1733512576736155600,9.85015576171875,-1.078541874885559,0.2849106192588806,-0.2579384446144104
1733512576746230800,9.860230712890624,-1.0704569816589355,0.0705764964222908,-0.6003773212432861
1733512576756305700,9.8703056640625,-1.0766335725784302,-0.18285790085792542,-0.8896757364273071
1733512576766379800,9.8803798828125,-1.057546615600586,-0.44967883825302124,-1.1543704271316528
1733512576776454700,9.89045458984375,-1.0321770906448364,-0.7380648255348206,-1.366852045059204
1733512576786529800,9.90052978515625,-0.9991201758384705,-0.951473593711853,-1.5468899011611938
1733512576796605000,9.91060498046875,-0.897833526134491,-1.0646100044250488,-1.730373740196228
1733512576806678800,9.9206787109375,-0.6462286710739136,-0.9177071452140808,-1.9848445653915405
1733512576816754000,9.93075390625,-0.08296000212430954,-0.3033665120601654,-2.4212844371795654
1733512576826828800,9.940828857421875,0.7400121688842773,0.79550701379776,-3.178734064102173
1733512576836904000,9.950904052734375,1.267561435699463,3.386101245880127,-2.3894104957580566
1733512576846978600,9.960978515625,1.2848936319351196,4.65561056137085,0.5545790195465088
1733512576857053000,9.971052978515624,1.2221088409423828,2.192227840423584,1.345295786857605
1733512576867127600,9.98112744140625,1.0460352897644043,-0.49326199293136597,0.9170223474502563
1733512576877202700,9.99120263671875,0.8554914593696594,-2.051544666290283,0.264678955078125
1733512576887277800,10.00127783203125,0.6164625287055969,-2.4672915935516357,-0.15364037454128265
1733512576897351700,10.0113515625,0.3304392993450165,-2.443756341934204,-0.15393145382404327
1733512576907426800,10.0214267578125,0.10360032320022583,-2.0836687088012695,0.14277011156082153
1733512576917501700,10.031501708984376,0.0322909913957119,-1.5275328159332275,0.4773198962211609
1733512576927576800,10.041576904296875,0.17860132455825806,-1.0546786785125732,0.6527068614959717
1733512576937650700,10.051650634765625,0.49188199639320374,-0.8200547099113464,0.6446353793144226
1733512576947725800,10.061725830078124,0.8454390168190002,-0.7683236002922058,0.5288373827934265
1733512576957801000,10.071801025390625,1.1520612239837646,-0.826890766620636,0.39285314083099365
1733512576967875800,10.081875732421874,1.374609351158142,-0.8559263944625854,0.22949999570846558
1733512576977950700,10.09195068359375,1.3975958824157715,-0.6305973529815674,-0.018147630617022514
1733512576988024800,10.10202490234375,1.174675703048706,-0.15753844380378723,-0.39808133244514465
1733512576998099700,10.112099609375,0.8301274180412292,0.5145906805992126,-0.8590335249900818
1733512577008174600,10.122174560546876,0.5276772975921631,1.119783878326416,-1.2881066799163818
1733512577018249700,10.132249755859375,0.33358901739120483,1.4438146352767944,-1.582769751548767
1733512577028323600,10.142323486328126,0.29248762130737305,1.3378126621246338,-1.7566215991973877
1733512577038398700,10.152398681640625,0.3701781630516052,0.7918236255645752,-1.7725861072540283
1733512577048473900,10.162473876953126,0.4977571368217468,-0.010212602093815804,-1.684934377670288
1733512577058548700,10.172548828125,0.6016955375671387,-0.8594903945922852,-1.5642201900482178
1733512577068622800,10.182622802734375,0.6709239482879639,-1.484065055847168,-1.4186502695083618
1733512577078697700,10.19269775390625,0.7271946668624878,-1.81929612159729,-1.302670955657959
1733512577088772900,10.20277294921875,0.7819292545318604,-1.8141058683395386,-1.2334747314453125
1733512577098847700,10.21284765625,0.8157886862754822,-1.5240905284881592,-1.1748743057250977
1733512577108922600,10.222922607421875,0.8264493346214294,-1.079610824584961,-1.0995692014694214
1733512577118996700,10.232996826171876,0.8720735907554626,-0.6092439293861389,-1.0217578411102295
1733512577129071600,10.243071533203125,0.9486083388328552,-0.23269300162792206,-0.974734902381897
1733512577139146800,10.253146728515626,1.1008214950561523,-0.31441235542297363,-1.2446603775024414
1733512577149221600,10.2632216796875,1.310042381286621,-1.203757643699646,-2.040412664413452
1733512577159295700,10.273295654296875,1.334755539894104,-2.1045944690704346,-2.7302470207214355
1733512577169370600,10.28337060546875,1.052927017211914,-2.4247398376464844,-2.899319887161255
1733512577179445800,10.29344580078125,0.5976221561431885,-2.1815929412841797,-2.6874887943267822
1733512577189521000,10.30352099609375,0.17571412026882172,-1.5941712856292725,-2.2898552417755127
1733512577199594800,10.3135947265625,-0.03117302618920803,-1.0175071954727173,-1.8351249694824219
1733512577209670000,10.323669921875,-0.010117601603269577,-0.6631833910942078,-1.4694246053695679
1733512577219744800,10.333744873046875,0.10182198137044907,-0.5097163319587708,-1.251077651977539
1733512577229819600,10.343819580078126,0.11558158695697784,-0.41172656416893005,-1.079647421836853
1733512577239893800,10.353893798828125,-0.06785215437412262,-0.2448965609073639,-0.8765392899513245
1733512577249968600,10.36396875,-0.3938809931278229,-0.017549246549606323,-0.6558852195739746
1733512577260043800,10.374043701171875,-0.7109396457672119,0.19224339723587036,-0.4550892114639282
1733512577270118700,10.38411865234375,-0.9085394144058228,0.3283670246601105,-0.2755117416381836
1733512577280194000,10.394194091796875,-0.9929376244544983,0.4230027198791504,-0.10228800028562546
1733512577290268000,10.404267822265625,-0.9625898599624634,0.4920230805873871,0.05983690544962883
1733512577300343000,10.414343017578124,-0.820803701877594,0.5351234078407288,0.2061573565006256
1733512577310418000,10.42441796875,-0.6284142136573792,0.5669299960136414,0.3496672511100769
1733512577320493000,10.4344931640625,-0.468643456697464,0.560754120349884,0.4833528697490692
1733512577330567000,10.44456689453125,-0.40144985914230347,0.4872368276119232,0.5904309153556824
1733512577340642000,10.45464208984375,-0.41980141401290894,0.32041454315185547,0.6483290791511536
1733512577350717000,10.464717041015625,-0.4570420980453491,0.09616418182849884,0.6164302229881287
1733512577360791800,10.474791748046876,-0.4708884060382843,-0.08977106958627701,0.4762667715549469
1733512577370867000,10.484866943359375,-0.4817845821380615,-0.24910275638103485,0.3521970510482788
1733512577380940800,10.49494091796875,-0.41880908608436584,-0.5879966616630554,0.1136137917637825
1733512577391016000,10.505015869140625,-0.2751081585884094,-0.7509216070175171,-0.2602451741695404
1733512577401090800,10.5150908203125,-0.08317814022302628,-0.6718624830245972,-0.7136339545249939
1733512577411166000,10.525166015625,0.11391906440258026,-0.44279745221138,-1.1959508657455444
1733512577421239800,10.53523974609375,0.26397594809532166,-0.20601101219654083,-1.627992868423462
1733512577431315000,10.54531494140625,0.3112395405769348,-0.05758317932486534,-1.9980767965316772
1733512577441390000,10.55539013671875,0.3111913800239563,0.052271682769060135,-2.359358310699463
1733512577451465000,10.56546484375,0.34748631715774536,0.15055055916309357,-2.7060351371765137
1733512577461539000,10.5755390625,0.4572349190711975,0.21439744532108307,-2.8993782997131348
1733512577471614000,10.585614013671876,0.6211777329444885,0.2545454502105713,-2.777566432952881
1733512577481689000,10.595689208984375,0.7836193442344666,0.31412726640701294,-2.3505783081054688
1733512577491763700,10.605763671875,0.8834114074707031,0.526154637336731,-1.8263927698135376
1733512577501838800,10.6158388671875,0.8680077195167542,0.9589550495147705,-1.4553760290145874
1733512577511912700,10.62591259765625,0.82009357213974,1.5058544874191284,-1.2493247985839844
1733512577521987800,10.63598779296875,0.7940587997436523,2.015829086303711,-0.9971607327461243
1733512577532063000,10.64606298828125,0.7264206409454346,2.1612331867218018,-0.48040032386779785
1733512577542137900,10.656137939453124,0.5648906230926514,2.0002894401550293,0.35424208641052246
1733512577552212000,10.6662119140625,0.32151222229003906,1.817718505859375,1.274330496788025
1733512577562286800,10.676286865234376,0.00751086650416255,1.5956395864486694,2.1067309379577637
1733512577572362000,10.686362060546875,-0.3619551658630371,1.2452377080917358,2.721531629562378
1733512577582437000,10.69643701171875,-0.7081162929534912,0.8394598364830017,3.162529468536377
1733512577592511000,10.706510986328125,-0.9856653809547424,0.513205885887146,3.3636295795440674
1733512577602586000,10.716586181640626,-1.1586397886276245,0.31185781955718994,3.4892494678497314
1733512577612661000,10.726660888671875,-1.2135201692581177,0.13515400886535645,3.6632258892059326
1733512577622736000,10.73673583984375,-1.1594940423965454,-0.03514634817838669,3.8622820377349854
1733512577632810800,10.746810791015625,-0.9856638312339783,-0.13373370468616486,3.9885494709014893
1733512577642884900,10.756884765625,-0.7169119715690613,-0.15017393231391907,4.0019073486328125
1733512577652959700,10.766959716796874,-0.3827456533908844,-0.10037742555141449,3.975720167160034
1733512577663035000,10.777034912109375,-0.09501133859157562,0.09374145418405533,3.935922384262085
1733512577673110000,10.787110107421874,0.02804552949965,0.5040861964225769,3.806044340133667
1733512577683183900,10.797183837890625,0.0665186196565628,0.9542989134788513,3.5236809253692627
1733512577693259000,10.807259033203126,0.09733574092388153,1.3587242364883423,3.108316659927368
1733512577703334000,10.817333984375,0.15325360000133514,1.5874439477920532,2.6412055492401123
1733512577713409000,10.827408935546876,0.2800067067146301,1.7034342288970947,2.260319948196411
1733512577723483000,10.83748291015625,0.4034266471862793,1.7395662069320679,1.9489079713821411
1733512577733558000,10.84755810546875,0.45217153429985046,1.812842607498169,1.65004563331604
1733512577743633200,10.857633056640625,0.399978369474411,1.9702798128128052,1.2386751174926758
1733512577753707800,10.867707763671875,0.296169638633728,2.0539956092834473,0.7046052813529968
1733512577763783000,10.877782958984374,0.19809791445732117,1.7639223337173462,0.1687636822462082
1733512577773856800,10.887856689453125,0.08600176870822906,1.1475714445114136,-0.20647189021110535
1733512577783932000,10.897931884765624,-0.07217162102460861,0.39753657579421997,-0.328952819108963
1733512577794006800,10.9080068359375,-0.26905232667922974,-0.3193865120410919,-0.18357250094413757
1733512577804082000,10.91808203125,-0.49165451526641846,-0.763847827911377,0.21510830521583557
1733512577814155800,10.92815576171875,-0.6523717641830444,-0.7133727073669434,0.78228360414505
1733512577824231000,10.93823095703125,-0.7608766555786133,-0.14167694747447968,1.3020433187484741
1733512577834306000,10.94830615234375,-0.844352126121521,0.62275230884552,1.6828553676605225
1733512577844381000,10.958380859375,-0.9304617047309875,1.2017114162445068,1.876334309577942
1733512577854455000,10.968455078125,-1.000308871269226,1.3874863386154175,1.8946428298950195
1733512577864530000,10.978530029296875,-1.038783311843872,1.1811063289642334,1.7708511352539062
1733512577874605000,10.98860498046875,-1.0631498098373413,0.7661036849021912,1.5204910039901733
1733512577884680000,10.998679931640625,-1.0766345262527466,0.3681369125843048,1.1647968292236328
1733512577894754800,11.0087548828125,-1.075892448425293,0.04741751402616501,0.7635416984558105
1733512577904829000,11.018828857421875,-1.0700033903121948,-0.22382889688014984,0.34772050380706787
1733512577914903800,11.02890380859375,-1.0686430931091309,-0.39172935485839844,-0.027759522199630737
1733512577924979000,11.03897900390625,-1.0514838695526123,-0.47730550169944763,-0.37134963274002075
1733512577935053800,11.0490537109375,-1.0357426404953003,-0.4667290449142456,-0.6545957326889038
1733512577945128000,11.0591279296875,-1.0225967168807983,-0.45064330101013184,-0.8643484711647034
1733512577955202800,11.069202880859375,-0.9897556900978088,-0.49898767471313477,-1.015790343284607
1733512577965278000,11.07927783203125,-0.9348572492599487,-0.6803795695304871,-1.098951816558838
1733512577975353000,11.08935302734375,-0.8598588109016418,-0.7645974159240723,-1.2059993743896484
1733512577985428000,11.099427978515624,-0.7731958031654358,-0.8280022144317627,-1.3700644969940186
1733512577995502000,11.109502197265625,-0.6011791229248047,-0.5737008452415466,-1.733628511428833
1733512578005577000,11.119576904296874,-0.1441817581653595,0.2854445278644562,-2.376539468765259
1733512578015651800,11.12965185546875,0.3983774185180664,2.2008533477783203,-2.2261319160461426
1733512578025727000,11.13972705078125,0.8511523604393005,4.448973655700684,-1.2207001447677612
1733512578035800800,11.14980078125,1.1470292806625366,3.7572128772735596,-0.3359632194042206
1733512578045876000,11.1598759765625,1.184720516204834,1.652903437614441,0.06192396581172943
1733512578055950800,11.169950927734375,0.978950023651123,-0.2803332209587097,0.0023699875455349684
1733512578066026000,11.18002587890625,0.5389790534973145,-1.7289413213729858,-0.30673539638519287
1733512578076099800,11.190099853515624,-0.008670588955283165,-2.6097002029418945,-0.6227393746376038
1733512578086175000,11.200175048828125,-0.4924508333206177,-2.967893600463867,-0.739041805267334
1733512578096249900,11.210249755859374,-0.6914405822753906,-2.8687055110931396,-0.655236005783081
1733512578106325000,11.220324951171875,-0.5586563944816589,-2.3672327995300293,-0.5167673826217651
1733512578116400000,11.230400146484374,-0.26741713285446167,-1.6189159154891968,-0.3421876132488251
1733512578126474000,11.240473876953125,0.05786535516381264,-0.9686383605003357,-0.0040044900961220264
1733512578136549000,11.250549072265626,0.43793660402297974,-0.7939906716346741,0.39992856979370117
1733512578146623700,11.260623779296875,0.8228930830955505,-0.8837085962295532,0.6419126987457275
1733512578156699000,11.270698974609376,1.065812349319458,-0.6435884833335876,0.5637657046318054
1733512578166772700,11.280772705078125,1.0889149904251099,-0.061055298894643784,0.17975734174251556
1733512578176848000,11.290847900390625,0.9241353869438171,0.44291678071022034,-0.29219087958335876
1733512578186923000,11.300923095703125,0.6964702606201172,0.6520606875419617,-0.631210207939148
1733512578196998000,11.310997802734375,0.5053313374519348,0.6819632649421692,-0.8213751912117004
1733512578207073000,11.321072998046875,0.3743823766708374,0.7857407927513123,-0.9579615592956543
1733512578217147000,11.33114697265625,0.29823359847068787,0.9569660425186157,-1.1057348251342773
1733512578227222000,11.341221923828124,0.30745428800582886,1.0035879611968994,-1.2643465995788574
1733512578237297000,11.351296875,0.4327574670314789,0.8416448831558228,-1.4037072658538818
1733512578247372000,11.3613720703125,0.6698035597801208,0.37335440516471863,-1.4295599460601807
1733512578257446000,11.37144580078125,0.9379220604896545,-0.37593579292297363,-1.3161476850509644
1733512578267521000,11.38152099609375,1.0849379301071167,-1.1327965259552002,-1.1121490001678467
1733512578277596000,11.391595947265625,1.0821309089660645,-1.7114847898483276,-0.8892759680747986
1733512578287670800,11.4016708984375,0.9922237396240234,-2.0500409603118896,-0.7312272191047668
1733512578297745000,11.411744873046874,0.8839053511619568,-2.09260892868042,-0.6605319976806641
1733512578307819800,11.42181982421875,0.7946284413337708,-1.8831902742385864,-0.6760515570640564
1733512578317895000,11.43189501953125,0.8100641965866089,-1.573100209236145,-0.9179162383079529
1733512578327970000,11.441969970703125,0.8923103213310242,-1.203499436378479,-1.347230315208435
1733512578338045000,11.452044921875,0.8927326202392578,-0.7544506788253784,-1.7805806398391724
1733512578348119000,11.462119140625,0.7843115925788879,-0.2326815277338028,-2.0416722297668457
1733512578358194000,11.47219384765625,0.628842294216156,0.1901281177997589,-2.1011743545532227
1733512578368269000,11.48226904296875,0.5111476182937622,0.36135977506637573,-2.02421236038208
1733512578378344000,11.492343994140626,0.4523170292377472,0.2769160270690918,-1.8958958387374878
1733512578388418000,11.50241796875,0.3876038193702698,-0.06420506536960602,-1.765647053718567
1733512578398493000,11.512492919921876,0.2280198335647583,-0.47061285376548767,-1.5975096225738525
1733512578408567800,11.52256787109375,0.014328591525554657,-0.8218685984611511,-1.353914499282837
1733512578418643000,11.532642822265625,-0.20403413474559784,-1.055587887763977,-1.0276678800582886
1733512578428717800,11.5427177734375,-0.353142112493515,-1.1698654890060425,-0.6925652623176575
1733512578438792000,11.5527919921875,-0.4340333342552185,-1.2002613544464111,-0.4191408157348633
1733512578448866800,11.56286669921875,-0.5113153457641602,-1.1706140041351318,-0.234113410115242
1733512578458942000,11.57294189453125,-0.6253416538238525,-1.1216225624084473,-0.1306396871805191
1733512578469017000,11.58301708984375,-0.7509610652923584,-1.0497838258743286,-0.08268867433071136
1733512578479091000,11.593091064453125,-0.8560468554496765,-0.9303289651870728,-0.07629097998142242
1733512578489166000,11.603166015625,-0.8895904421806335,-0.8139330744743347,-0.10401289165019989
1733512578499241000,11.613240966796875,-0.8213632702827454,-0.7236172556877136,-0.14232206344604492
1733512578509315800,11.62331591796875,-0.6954271197319031,-0.6699468493461609,-0.16339299082756042
1733512578519390700,11.633390625,-0.5734900832176208,-0.6541129946708679,-0.1594443917274475
1733512578529465000,11.643465087890625,-0.4983508586883545,-0.6933171153068542,-0.13008517026901245
1733512578539539700,11.653539794921874,-0.4757636785507202,-0.7817699313163757,-0.09060505032539368
1733512578549614800,11.66361474609375,-0.4865745007991791,-0.900185227394104,-0.07952097058296204
1733512578559690000,11.67368994140625,-0.49545273184776306,-0.9899086952209473,-0.12538430094718933
1733512578569763800,11.683763916015625,-0.5580122470855713,-1.0439423322677612,-0.1148429811000824
1733512578579839000,11.6938388671875,-0.5325738191604614,-1.1053123474121094,-0.19577950239181519
1733512578589913900,11.703913818359375,-0.3901783227920532,-1.0298740863800049,-0.421404629945755
1733512578599989000,11.713989013671876,-0.15661123394966125,-0.8429957032203674,-0.7498605251312256
1733512578610064100,11.724064208984375,0.09916089475154877,-0.5896249413490295,-1.1299657821655273
1733512578620138000,11.734137939453126,0.2968982458114624,-0.3385158181190491,-1.479933738708496
1733512578630213000,11.744213134765625,0.39984405040740967,-0.19132398068904877,-1.7276828289031982
1733512578640288000,11.7542880859375,0.46991825103759766,-0.13874658942222595,-1.8976327180862427
1733512578650363000,11.76436279296875,0.5442383289337158,-0.19551905989646912,-2.054192304611206
1733512578660437000,11.77443701171875,0.6098500490188599,-0.37744590640068054,-2.228343963623047
1733512578670511900,11.784511962890624,0.6874681115150452,-0.6321301460266113,-2.309020519256592
1733512578680586800,11.794586669921875,0.7754087448120117,-0.8723875284194946,-2.183380126953125
1733512578690662000,11.804661865234374,0.860420286655426,-0.9916079044342041,-1.8468668460845947
1733512578700736000,11.814736083984375,0.9056408405303955,-0.9070337414741516,-1.3875888586044312
1733512578710811000,11.824810791015626,0.8819248676300049,-0.6466543674468994,-0.9124217629432678
1733512578720886000,11.834885986328125,0.7956351637840271,-0.26162219047546387,-0.5042206645011902
1733512578730961000,11.8449609375,0.6536313891410828,0.18371480703353882,-0.20510908961296082
1733512578741036000,11.8550361328125,0.5166206359863281,0.5437077879905701,-0.06086736172437668
1733512578751110000,11.86510986328125,0.4181731939315796,0.7026122212409973,0.00513828732073307
1733512578761185000,11.87518505859375,0.340408593416214,0.6572205424308777,0.13680100440979004
1733512578771260000,11.885260009765625,0.19991084933280945,0.4823744297027588,0.45624929666519165
1733512578781334800,11.895334716796874,-0.046644069254398346,0.3258516490459442,0.9923842549324036
1733512578791409000,11.905408935546875,-0.38888901472091675,0.25963348150253296,1.6058762073516846
1733512578801483800,11.91548388671875,-0.7434055805206299,0.212595134973526,2.1238772869110107
1733512578811559000,11.925558837890625,-1.0776371955871582,0.050102099776268005,2.492962121963501
1733512578821633800,11.9356337890625,-1.3598949909210205,-0.08233367651700974,2.7845535278320312
1733512578831709000,11.945708984375,-1.5570945739746094,0.001109820674173534,3.011615753173828
1733512578841783000,11.955782958984376,-1.6393029689788818,0.19399163126945496,3.2123987674713135
1733512578851858000,11.96585791015625,-1.5614399909973145,0.3829975128173828,3.399542808532715
1733512578861933000,11.97593310546875,-1.3664191961288452,0.5971989035606384,3.586017370223999
1733512578872008000,11.986008056640625,-1.0678799152374268,0.9630871415138245,3.7753069400787354
1733512578882082000,11.99608203125,-0.5917799472808838,1.4078267812728882,3.9492692947387695
1733512578892157000,12.006156982421874,-0.14674095809459686,1.5789636373519897,4.179876804351807
1733512578902231800,12.016231689453125,0.15456609427928925,1.4318753480911255,4.360576629638672
1733512578912307000,12.026306884765624,0.32110396027565,1.087756633758545,4.3555450439453125
1733512578922381800,12.0363818359375,0.33999553322792053,0.706962525844574,4.0665364265441895
1733512578932456000,12.0464560546875,0.23907342553138733,0.5683111548423767,3.4381697177886963
1733512578942530800,12.05653076171875,0.2271222025156021,0.459440141916275,2.6554298400878906
1733512578952606000,12.06660595703125,0.42135319113731384,0.3687842786312103,1.9610639810562134
1733512578962680800,12.076680908203125,0.5624459981918335,0.6449438333511353,1.3476430177688599
1733512578972755000,12.0867548828125,0.5331509709358215,1.389986276626587,0.7737443447113037
1733512578982830000,12.096830078125,0.3922790586948395,2.1750621795654297,0.2659060060977936
1733512578992905000,12.106905029296875,0.316067099571228,2.363713264465332,-0.19097603857517242
1733512579002980000,12.11697998046875,0.36937209963798523,1.8343334197998047,-0.5580533146858215
1733512579013054700,12.1270546875,0.44621309638023376,0.8101580739021301,-0.6996530890464783
1733512579023129000,12.137129150390624,0.3813818693161011,-0.24705824255943298,-0.5127022862434387
1733512579033204000,12.147203857421875,0.16604559123516083,-0.9381733536720276,0.10504027456045151
1733512579043278800,12.15727880859375,-0.13714124262332916,-0.7846566438674927,0.8753549456596375
1733512579053354000,12.16735400390625,-0.436384916305542,0.024302726611495018,1.5266879796981812
1733512579063427800,12.177427734375,-0.7022509574890137,0.989088773727417,1.9505587816238403
1733512579073503000,12.1875029296875,-0.9257586002349854,1.628284215927124,2.140737771987915
1733512579083577900,12.197577880859376,-1.0797218084335327,1.7501827478408813,2.158447742462158
1733512579093653000,12.207653076171875,-1.1447398662567139,1.4609870910644531,2.0458202362060547
1733512579103726800,12.217726806640625,-1.1677485704421997,1.0057361125946045,1.7815041542053223
1733512579113802000,12.227802001953124,-1.1753984689712524,0.5788779854774475,1.369309663772583
1733512579123876900,12.237876953125,-1.1770639419555664,0.20616886019706726,0.8765803575515747
1733512579133952000,12.247951904296874,-1.1599360704421997,-0.011179707944393158,0.37507709860801697
1733512579144027000,12.25802685546875,-1.1056947708129883,-0.08837131410837173,-0.06769464164972305
1733512579154101000,12.26810107421875,-1.033920168876648,-0.07347918301820755,-0.42048946022987366
1733512579164176000,12.27817578125,-0.9600608348846436,0.004570460878312588,-0.6742030382156372
1733512579174250800,12.288250732421876,-0.904880940914154,0.0859912857413292,-0.8567185401916504
1733512579184326000,12.298325927734375,-0.8510648608207703,0.1299138069152832,-0.9861575365066528
1733512579194399700,12.308399658203125,-0.7911655306816101,0.09114377200603485,-1.0839154720306396
1733512579204475000,12.318474853515625,-0.7387423515319824,-0.0042916941456496716,-1.197275996208191
1733512579214550000,12.328550048828125,-0.6533307433128357,0.008985761553049088,-1.382203221321106
1733512579224625000,12.338625,-0.4720389246940613,0.3638673424720764,-1.70417320728302
1733512579234700000,12.348699951171875,-0.13243208825588226,1.1207791566848755,-2.2392897605895996
1733512579244774000,12.35877392578125,0.31650587916374207,2.0525529384613037,-2.4105961322784424
1733512579254849000,12.36884912109375,0.5627537369728088,1.8590632677078247,-1.2822073698043823
1733512579264924000,12.378923828125,0.523339033126831,0.7202356457710266,-0.27216076850891113
1733512579274998800,12.388998779296875,0.24684222042560577,-0.23870150744915009,0.322201132774353
1733512579285073000,12.399072998046876,-0.03655770421028137,-0.7642227411270142,0.4162975251674652
1733512579295147800,12.409147705078125,-0.10821618139743805,-0.8459221124649048,0.24554525315761566
1733512579305222700,12.41922265625,0.007991157472133636,-0.7164391875267029,-0.03762836754322052
1733512579315297800,12.4292978515625,0.16336263716220856,-0.5643268823623657,-0.29623541235923767
1733512579325372700,12.43937255859375,0.24858343601226807,-0.34294968843460083,-0.39584389328956604
1733512579335446800,12.44944677734375,0.2783828675746918,-0.04853111132979393,-0.3652667999267578
1733512579345521700,12.459521728515625,0.3493556082248688,0.17432057857513428,-0.2591003477573395
1733512579355596800,12.4695966796875,0.46710488200187683,0.24687840044498444,-0.15410920977592468
1733512579365672000,12.479671875,0.5742624998092651,0.11788447201251984,-0.07264052331447601
1733512579375745800,12.489745849609376,0.6030803322792053,-0.15123328566551208,0.014937791042029858
1733512579385821000,12.499821044921875,0.5807053446769714,-0.5037493705749512,0.14772780239582062
1733512579395895800,12.509895751953126,0.5855131149291992,-0.9951044321060181,0.2892897129058838
1733512579405970700,12.519970703125,0.6579312086105347,-1.5450488328933716,0.33074310421943665
1733512579416045600,12.530045654296876,0.7238540053367615,-1.9599133729934692,0.16609954833984375
1733512579426119700,12.54011962890625,0.6759399771690369,-1.8683542013168335,-0.360934317111969
1733512579436194600,12.550194580078125,0.5992044806480408,-1.331753134727478,-1.1844327449798584
1733512579446269700,12.560269775390625,0.45834851264953613,-0.8556029796600342,-1.780120611190796
1733512579456344800,12.5703447265625,0.24833859503269196,-0.30331718921661377,-2.066636323928833
