time,seconds_elapsed,z,y,x
1733512573342496000,0.02749609375,0.2823912927359342,0.06956570365726947,0.13813143649175763
1733512573352514000,0.03751416015625,0.26165537869930267,0.16343465844392777,0.05515227064043283
1733512573362532900,0.047532958984375,0.29138766914010045,0.24357903926074503,-0.05457184040397405
1733512573372551000,0.057551025390625,0.37771044633090495,0.254808289283514,-0.1138672021985054
1733512573382570000,0.067570068359375,0.4642003967821598,0.18505144696831702,-0.12547653758004307
1733512573392587800,0.077587890625,0.5594567142739891,0.07908347358703613,-0.11866554239094257
1733512573402606000,0.087606201171875,0.6261760885894299,-0.018356909945607184,-0.044613340969383714
1733512573412625000,0.097625,0.638423283483088,-0.060014615979790686,0.040282179897278544
1733512573422643000,0.107642822265625,0.6027896600440145,-0.11093348683416843,0.0973863152578473
1733512573432660700,0.11766064453125,0.5828980878770351,-0.18609131141006946,0.1631209163196385
1733512573442679800,0.1276796875,0.5195984588772058,-0.20990765580534934,0.18497867399305104
1733512573452698000,0.137697998046875,0.382333722217381,-0.14687047713398932,0.14364099369347094
1733512573462717000,0.147717041015625,0.20663141061365603,-0.09516133268475532,0.10463555573374032
1733512573472735000,0.15773486328125,0.01971037038117647,-0.05731646293699741,0.10839578505009412
1733512573482753000,0.1677529296875,-0.11118015507161616,-0.014847440519928931,0.1494276142708957
1733512573492771800,0.177771728515625,-0.20034663125574587,-0.029748657053709028,0.23508520555123685
1733512573502790000,0.187789794921875,-0.28813831195533274,-0.03165653650164604,0.2804565252810716
1733512573512809000,0.19780908203125,-0.28379794466346503,-0.0934194574534893,0.26683248907625673
1733512573522827000,0.207826904296875,-0.31820027274191376,-0.031117022797465324,0.1991721806488931
1733512573532845000,0.217844970703125,-0.4119757040262222,-0.0958200888544321,0.10138561402708292
1733512573542864000,0.22786376953125,-0.38902036037445065,-0.1576502298235893,0.026981968819350003
1733512573552882000,0.2378818359375,-0.4348287563472986,-0.2013829885661602,-0.026191110702604055
1733512573562899700,0.247899658203125,-0.47031157313883304,-0.2219043830692768,-0.052935179112851616
1733512573572918800,0.257918701171875,-0.4987453482016921,-0.16917407887876032,-0.10642229302003979
1733512573582937000,0.26793701171875,-0.49234980194568634,-0.11449264062047004,-0.18540245236307382
1733512573592956000,0.277955810546875,-0.4630371982216835,-0.07127484566271304,-0.271777105871588
1733512573602974000,0.287973876953125,-0.43906712456941605,-0.05524959353506565,-0.33752105928361414
1733512573612992000,0.297991943359375,-0.383963661506772,-0.05934943006932735,-0.3945231955744326
1733512573623010800,0.3080107421875,-0.33200901786386966,-0.07634732662141322,-0.38657705887556076
1733512573633028900,0.31802880859375,-0.28519524424076076,-0.10447919612824916,-0.3502466853439808
1733512573643046400,0.32804638671875,-0.25455489904433487,-0.11889350592792033,-0.22990926421806215
1733512573653065500,0.3380654296875,-0.2654597394183278,-0.1475520296573639,-0.08642068460732698
1733512573663083300,0.348083251953125,-0.3190294170424342,-0.17252923452556132,0.0149991239503026
1733512573673102300,0.358102294921875,-0.38769700281620023,-0.20766309174895287,0.014868483307957649
1733512573683120400,0.368120361328125,-0.43425534037351604,-0.2300514491677284,-0.021537878069281577
1733512573693138400,0.378138427734375,-0.4602911143839359,-0.2472586045563221,-0.02157090355604887
1733512573703157500,0.388157470703125,-0.5204536144018173,-0.24906068554222582,0.04238149026408791
1733512573713175600,0.398175537109375,-0.6167416130289435,-0.22593466149866578,0.02312339369505644
1733512573723194400,0.4081943359375,-0.5783116368696093,-0.2687736862719059,-0.014435352587699889
1733512573733212400,0.41821240234375,-0.6567401536792516,-0.29643910731077194,0.009101298083364963
1733512573743230500,0.42823046875,-0.7948065621107816,-0.27874446066617964,0.04860620999783277
1733512573753249300,0.438249267578125,-0.8191147816762328,-0.29677813000679015,0.10887918465286493
1733512573763267600,0.448267578125,-0.8460057112112641,-0.3352215501695871,0.1645838284790516
1733512573773285400,0.458285400390625,-0.8567284730166196,-0.3365425696402788,0.1563579980559647
1733512573783304400,0.468304443359375,-0.8524985803619026,-0.30960137122273446,0.1470350200459361
1733512573793322200,0.478322265625,-0.8406266485214233,-0.2969634234458208,0.10067688123583793
1733512573803341300,0.48834130859375,-0.8396905367150902,-0.2817915732771158,0.0805212513051927
1733512573813359600,0.498359619140625,-0.8271753385350108,-0.28882629421949385,0.023168401880562305
1733512573823377400,0.50837744140625,-0.8241928155928849,-0.2545499306082725,-0.030861586731672285
1733512573833396500,0.518396484375,-0.8240688969522714,-0.16813772156834603,-0.10944091018885374
1733512573843414500,0.52841455078125,-0.8062751738473772,-0.03595218786895275,-0.1537657896056771
1733512573853432300,0.538432373046875,-0.859892782266438,0.18768997877836227,-0.14594298702552913
1733512573863451400,0.548451416015625,-0.8275269284516572,0.34719372751414773,-0.1261342708364129
1733512573873469400,0.558469482421875,-0.6583861673206091,0.33675708917379377,-0.08300780742391943
1733512573883488500,0.568488525390625,-0.4990025378331542,0.23101591028571128,-0.010203414106369019
1733512573893506600,0.578506591796875,-0.4347381554543972,0.18133739488124848,0.10525836380720138
1733512573903524400,0.5885244140625,-0.5655027164399623,0.11576631381809711,0.01202960662022233
1733512573913543400,0.59854345703125,-0.7286421913295984,-0.02553308518528938,-0.36873306688815355
1733512573923561200,0.608561279296875,-0.7686462849378586,-0.12864040843844413,-0.7005451008751988
1733512573933580300,0.618580322265625,-0.8097080709055066,-0.11093348683416843,-0.8524488960012793
1733512573943598600,0.6285986328125,-0.9612684594213962,-0.0014765022933483122,-0.7418750362597405
1733512573953616400,0.638616455078125,-1.2417705774098633,0.16914719087183475,-0.5073546249844133
1733512573963635500,0.648635498046875,-1.4740262586236,0.22410569250583648,-0.30954964103549715
1733512573973653200,0.6586533203125,-1.5819804373860358,0.22195874360501766,-0.08020619400665163
1733512573983671600,0.668671630859375,-1.6526231226250527,0.1640600968658924,0.1251613341510296
1733512573993690400,0.6786904296875,-1.6649845915481447,0.006283025792241096,0.21191753432303667
1733512574003708400,0.68870849609375,-1.5074007049590348,-0.20709201386272907,0.21289996948912737
1733512574013727500,0.6987275390625,-1.1571554809197784,-0.47172202445864675,0.18340996337160467
1733512574023745500,0.70874560546875,-0.819255943712592,-0.6423147379636764,0.20665902927294372
1733512574033763300,0.718763427734375,-0.5932488014996051,-0.8096890739440917,0.1463324247345328
1733512574043782400,0.728782470703125,-0.39603813018202777,-0.9617734863340854,-0.061830579360574484
1733512574053800400,0.738800537109375,-0.18309885159581898,-1.0228805737257003,-0.20265242398008704
1733512574063819500,0.748819580078125,-0.008050912247598171,-0.9738041158676147,-0.09789221895337104
1733512574073837600,0.758837646484375,0.08835545206218957,-0.7775649199306964,0.11245718927010893
1733512574083855400,0.76885546875,0.14034516701847313,-0.521453731355071,0.3037902007259428
1733512574093874400,0.77887451171875,0.2587050044611096,-0.21126257754564284,0.40410190191119905
1733512574103892200,0.788892333984375,0.1692813386455178,0.1401268480926752,0.4157134292498231
1733512574113910500,0.79891064453125,-0.15684651222527027,0.4677110352516174,0.5364674683526158
1733512574123929600,0.8089296875,-0.5647302707627415,0.7906500269532203,0.7303767600372433
1733512574133947400,0.818947509765625,-0.9164853148430585,1.0421154355496167,1.03726521903947
1733512574143966500,0.828966552734375,-1.1403054684057832,1.1134124930441378,1.2802794640243054
1733512574153984500,0.838984619140625,-1.1506821932524443,0.9216068956404924,1.328165835314989
1733512574164002300,0.849002197265625,-0.889331934979558,0.4786205518007278,1.2404193089313804
1733512574174021400,0.859021484375,-0.4806050036162138,0.09145838651359081,1.26802700843364
1733512574184039400,0.869039306640625,-0.2552928579300642,-0.016215806263685226,1.1128574895098804
1733512574194058500,0.87905859375,-0.1774614302307367,0.06638064388036727,0.6601105068951845
1733512574204076500,0.88907666015625,-0.22286738288253544,0.16999767022132872,0.2394317103229463
1733512574214094300,0.89909423828125,-0.09284954861104487,0.1864858636856079,0.0003054126873612404
1733512574224113400,0.909113525390625,0.05945347496569156,0.15263269392251969,0.06922419674322008
1733512574234131500,0.91913134765625,0.11616612679064273,0.04234042760133743,0.21570085225403307
1733512574244149500,0.9291494140625,0.23198855471014976,-0.06129647248387336,0.20249533372223377
1733512574254168600,0.93916845703125,0.27782588451653717,-0.1671013642579317,0.11067103650569915
1733512574264186400,0.949186279296875,0.1819654636517167,-0.29890929681658746,-0.046017070287466044
1733512574274205400,0.959205322265625,0.02133154184222221,-0.39808278775215145,-0.183204211666435
1733512574284223200,0.96922314453125,-0.07741670941859484,-0.4789513911902904,-0.26396950086057186
1733512574294241500,0.979241455078125,-0.09868950681090355,-0.5778191771775484,-0.20404738546982407
1733512574304260600,0.989260498046875,-0.10728314763307571,-0.6645680708259344,-0.07395414787456393
1733512574314278400,0.9992783203125,-0.1459238439336419,-0.7186871990263461,0.06499795735031366
1733512574324296400,1.00929638671875,-0.20729455069750546,-0.7857517335176467,0.17743454222381114
1733512574334315500,1.0193154296875,-0.25120032791942354,-0.8572469439327717,0.2695084302872419
1733512574344333300,1.029333251953125,-0.3027671412885189,-0.9831856921970844,0.30305092666596173
1733512574354352400,1.039352294921875,-0.30160481951087714,-1.0733587150752544,0.3321795521251857
1733512574364370400,1.049370361328125,-0.2836000840038061,-1.167526945069432,0.37350948750972746
1733512574374388500,1.059388427734375,-0.25704174742400643,-1.253183367305994,0.4578910675048828
1733512574384407600,1.069407470703125,-0.1954518449515104,-1.296332188680768,0.5918735676236451
1733512574394425300,1.07942529296875,-0.17228431985378265,-1.268975979721546,0.7421344178482889
1733512574404444400,1.0894443359375,-0.16337679077684877,-1.208415420296788,0.8012123374998569
1733512574414462200,1.099462158203125,-0.1508592545092106,-1.1194880135655403,0.6789189600005745
1733512574424480500,1.10948046875,-0.09141074797958135,-0.978686042690277,0.4353180011689663
1733512574434499600,1.11949951171875,0.025552958929538724,-0.8099988705456257,0.21646979079991577
1733512574444517400,1.129517333984375,0.24678660313040016,-0.6621545799434184,0.09666150811463593
1733512574454535400,1.139535400390625,0.5089630830943584,-0.5957756896287203,0.02632774269431829
1733512574464554500,1.149554443359375,0.8151654595285653,-0.5614186619967222,-0.017795184409618376
1733512574474572500,1.159572509765625,1.0273936672359705,-0.5873790326833724,-0.11802841353118419
1733512574484591400,1.16959130859375,1.0642159159377216,-0.6575485474526882,-0.232583013471961
1733512574494609400,1.179609375,0.9686869189843534,-0.8922668193876743,-0.30911475674957034
1733512574504627500,1.18962744140625,0.6350245809555053,-1.2695347826480865,-0.3565083760872483
1733512574514646500,1.199646484375,-0.012302724473178386,-1.6844576460421083,-0.4051023111253977
1733512574524664300,1.209664306640625,-0.691958182054758,-1.9341028534740208,-0.35649054816961284
1733512574534683400,1.219683349609375,-1.1956205283924937,-1.938190999570489,-0.10123013120442628
1733512574544701400,1.229701416015625,-1.6299702690511941,-1.7883184180110692,0.2237386127591133
1733512574554719500,1.239719482421875,-1.9581550524517892,-1.6902613638848065,0.5498942284196615
1733512574564738600,1.249738525390625,-2.028788969862461,-1.8350170408219098,0.7838263184130191
1733512574574756400,1.25975634765625,-1.5926108447328209,-2.0488287183284757,0.9830594354689121
1733512574584774400,1.2697744140625,-1.0347818777911364,-2.1919068174421787,1.3088023786753415
1733512574594793200,1.279793212890625,-1.1620306857407092,-2.3514041364371776,1.7268661704435944
1733512574604811500,1.2898115234375,-1.4697893517062066,-2.205602749839425,2.25556621966511
1733512574614830600,1.29983056640625,-1.421802150389552,-2.133629985040426,2.736158363799751
1733512574624848400,1.309848388671875,-1.489036634620279,-2.158824047529697,3.2076994787335393
1733512574634866400,1.319866455078125,-1.8741364605501294,-1.7320599396944045,3.7494162459164855
1733512574644885500,1.329885498046875,-2.471782035703957,-0.3439198204100132,4.336945500725507
1733512574654903300,1.3399033203125,-4.504595146515965,2.24371474609077,4.931058810099959
1733512574664921600,1.349921630859375,-7.725522940135002,5.714648981669545,5.119509836378693
1733512574674940400,1.3599404296875,-9.291855726534127,8.622813140642643,5.358621959358453
1733512574684958500,1.36995849609375,-3.0904218835696575,6.737663995429873,4.02979327622056
1733512574694977500,1.3799775390625,3.4584649223670363,1.2682687082350252,1.3006146883055567
1733512574704995300,1.389995361328125,7.511189284580945,-2.339552955123782,-0.18588702100962398
1733512574715013600,1.400013671875,8.752107044553757,-4.848009355491399,-1.1929504324004054
1733512574725032400,1.410032470703125,8.023588187342881,-6.362682097280025,-1.8115030403740704
1733512574735050500,1.420050537109375,7.637188823121786,-5.606609462711215,-2.218624143975973
1733512574745069600,1.430069580078125,7.550646850222349,-3.0137989548772572,-2.7735207107275723
1733512574755087400,1.44008740234375,7.538404623764753,0.17770049968361853,-3.3242245019644496
1733512574765105400,1.45010546875,7.840095660254359,3.4493484267145393,-3.5574154182016846
1733512574775124500,1.46012451171875,9.149324739909172,7.029194287911057,-4.238880847814679
1733512574785142500,1.470142578125,10.088123008847235,9.9564442556262,-4.843405953349173
1733512574795160600,1.48016064453125,8.07737764519751,10.869246498042344,-5.171871891778707
1733512574805179400,1.490179443359375,0.5175269133001565,9.488732051330805,-6.967812475231289
1733512574815197400,1.500197509765625,-7.782469985237717,6.567168897080421,-6.943208195328712
1733512574825216500,1.510216552734375,-3.26749022282958,3.9443250700324772,-3.519260751852393
1733512574835234300,1.520234375,3.223828483496606,2.1374416522830724,-1.1915072478547692
1733512574845252600,1.530252685546875,5.375594136947393,0.779018625870347,0.34893823309391736
1733512574855271400,1.540271484375,4.763726851956546,-0.6994681192934513,1.0695851878859102
1733512574865289500,1.55028955078125,2.1497727260679005,-1.779202799141407,1.542899011580646
1733512574875307300,1.560307373046875,-0.14138123206794262,-1.8105056998997926,1.4973463439345358
1733512574885326300,1.570326416015625,-0.9739522921666502,-1.4947230096936226,1.0050567477434873
1733512574895344400,1.580344482421875,-1.0897370184242725,-1.5490625026464462,1.0506940249331296
1733512574905363200,1.59036328125,-1.343011522269249,-1.5946370898634195,1.0820891340196133
1733512574915381500,1.600381591796875,-1.7560855429261921,-1.4210194755792618,0.35571897927522655
1733512574925399600,1.610399658203125,-2.2704905248135328,-1.264475745692849,-0.9310942704319953
1733512574935418400,1.62041845703125,-3.030710926711559,-0.9513941311389207,-1.74561763266474
1733512574945436400,1.6304365234375,-3.663831719872355,-0.8306810085684061,-2.061178789074719
1733512574955455500,1.64045556640625,-3.536929387272894,-1.084527174821496,-2.127731574651599
1733512574965473500,1.6504736328125,-2.4798989989250897,-1.446481833615899,-1.70738040259853
1733512574975491600,1.66049169921875,-1.6418161896675825,-1.736010723146796,-1.130665533401072
1733512574985510400,1.670510498046875,-0.9194564396083355,-1.6886790631294248,-0.6328010596871375
1733512574995528400,1.680528564453125,-0.31200141810178755,-1.2820230928212404,-0.12735095314979553
1733512575005546200,1.690546142578125,-0.3243085264891386,-0.66377429009974,0.347778833925724
1733512575015565300,1.7005654296875,-0.573045386904478,0.0996674119323492,0.4299366003915667
1733512575025583600,1.71058349609375,-0.4207724662050605,1.0403963566720484,-0.10860723584368824
1733512575035602400,1.7206025390625,-0.4323255413547158,1.8401245930939911,-0.8283851527161896
1733512575045620500,1.730620361328125,-1.1172393578559159,1.9692992545396089,-1.1059170227222144
1733512575055638500,1.740638427734375,-1.822392537048459,1.3639800760179757,-1.1669136354766785
1733512575065657300,1.7506572265625,-2.2461656463742257,0.5403413871765136,-1.2204947112776339
1733512575075675400,1.76067529296875,-2.203813528335094,0.24281097749769687,-0.8447425594076514
1733512575085693400,1.770693359375,-2.0647075477227568,0.6552724192142486,-0.05624971048831939
1733512575095712500,1.78071240234375,-2.2295988347157834,1.1174842725276946,0.38048517174124713
1733512575105730600,1.79073046875,-2.274432832698524,1.23148240762949,0.24803192701637744
1733512575115749400,1.800749267578125,-2.169615198396146,1.2716548435419797,0.04071194961667061
1733512575125767400,1.810767333984375,-2.054707254973054,1.3738222555965185,-0.3168399441741407
1733512575135785200,1.82078515625,-1.9071373973980545,1.5111580116659402,-0.7213496962338686
1733512575145804300,1.83080419921875,-1.7227178185924887,1.5169102915823458,-0.752564480317384
1733512575155822600,1.840822509765625,-1.2742904527425765,1.3848036683380602,-0.526144227258861
1733512575165841400,1.85084130859375,-0.7530641004025935,1.0187620324909687,-0.3712659463666379
1733512575175859500,1.860859375,-0.39728813024312254,0.6317553500264883,-0.17893983222022652
1733512575185877200,1.870877197265625,-0.062281099607050416,0.3796814541429281,0.08551642924398184
1733512575195896300,1.880896240234375,0.32227146770358084,0.18714929603040217,0.2525331839583814
1733512575205914600,1.89091455078125,0.7334767718791961,-0.021442601001262662,0.19759747867807745
1733512575215932400,1.900932373046875,1.1244985352039336,-0.21720248898863792,-0.09542188331708311
1733512575225951500,1.910951416015625,1.4322808743059634,-0.3655786945104599,-0.4651826858177781
1733512575235969500,1.920969482421875,1.5092305507346986,-0.48051849437654015,-0.7271561905555427
1733512575245988400,1.93098828125,1.3803250616192817,-0.33429157584309577,-0.761173318708688
1733512575256006400,1.94100634765625,1.1447796912103891,-0.3098503775477409,-0.6536499325789511
1733512575266024400,1.9510244140625,0.9831517899274825,-0.07563713252544403,-0.35169206184670326
1733512575276043500,1.96104345703125,0.7519140535846353,0.1366366678893566,0.10583046460673212
1733512575286061600,1.9710615234375,0.5739163245201111,0.3979594536334276,0.5945350419178604
1733512575296079400,1.981079345703125,0.26366847208738325,0.6370762527883053,0.912903656964004
1733512575306098400,1.991098388671875,-0.2261933124348521,0.5517687901198863,1.0840955054059624
1733512575316116200,2.0011162109375,-0.6253130420193076,0.9068377810537814,1.1000238730303942
1733512575326135300,2.01113525390625,-0.9436103453949093,1.0418079770356417,1.1657606660492716
1733512575336153600,2.021153564453125,-0.9950640537783503,1.0022586414575576,1.2582080636002122
1733512575346171400,2.03117138671875,-0.9660355276927352,0.885961581763625,1.4351613981783389
1733512575356190500,2.0411904296875,-0.9516180030226707,0.6157599085152149,1.5311417921610175
1733512575366208300,2.051208251953125,-0.9246277047663927,0.361570627912879,1.5387684876471757
1733512575376227300,2.061227294921875,-0.8483721480816602,0.14290508063435553,1.453833657683432
1733512575386245400,2.071245361328125,-0.7861611911013722,-0.0690507398724556,1.3308886844076215
1733512575396263400,2.081263427734375,-0.6805442231148481,-0.24639117407202718,1.2422978161543607
1733512575406282500,2.091282470703125,-0.48926381862908597,-0.4068617220133543,1.0917848908647894
1733512575416300500,2.101300537109375,-0.24543518852144477,-0.5316115527540445,0.9290881913065909
1733512575426318300,2.111318359375,-0.11402151597738265,-0.578353430184722,0.7653278080396354
1733512575436337400,2.12133740234375,-0.03907353475987911,-0.5902513732492923,0.5994019173018634
1733512575446355500,2.13135546875,0.06115297235995531,-0.6224602829366922,0.5156466525115072
1733512575456374500,2.14137451171875,0.23826807337105274,-0.8018792769759893,0.09910159474313258
1733512575466392600,2.151392578125,0.3738511405542493,-0.9912789822816848,-0.2616400349996984
1733512575476410400,2.161410400390625,0.48944122102260584,-1.1602607534587384,-0.49223538178578014
1733512575486429400,2.171429443359375,0.5649637872576713,-1.2602414691239594,-0.4603128878243267
1733512575496447200,2.181447265625,0.6534297139570117,-1.4896329930782317,-0.678246759827435
1733512575506465500,2.191465576171875,0.7833078474968671,-1.7115087345749138,-0.9789905785948038
1733512575516484600,2.201484619140625,0.8015829243779182,-1.8570336423188447,-1.0421917156562208
1733512575526502400,2.21150244140625,0.7679208932727575,-1.8257851020962,-0.9360881331965327
1733512575536521500,2.221521484375,0.6634463733196259,-1.9456354703575371,-0.9299880627557635
1733512575546539500,2.23153955078125,0.7358098910018801,-2.121856545138359,-0.9420043715029954
1733512575556557300,2.241557373046875,0.8846192272439598,-2.2840070089906455,-0.8162839421644806
1733512575566576400,2.251576416015625,0.8782488154292106,-2.4229718275666237,-0.7181763268947601
1733512575576594400,2.261594482421875,0.750422353722155,-2.4426409891545773,-0.6007318507313728
1733512575586613500,2.271613525390625,0.6703355483114719,-2.4814380450606346,-0.6794543820515274
1733512575596631600,2.281631591796875,0.667013710412383,-2.5032003795355555,-0.8104328780487179
1733512575606649300,2.2916494140625,0.6922276466459035,-2.3832605794250963,-0.705382604034245
1733512575616668400,2.30166845703125,0.6317980201244354,-2.3646511560231445,-0.5261915735319257
1733512575626686200,2.311686279296875,0.5471545743227004,-2.39724117398262,-0.3180088418230414
1733512575636704500,2.32170458984375,0.588504529581964,-2.494402740573883,-0.04306698831021785
1733512575646723000,2.33172314453125,0.7472019303709269,-2.6182559147357938,0.21459829783961176
1733512575656741000,2.3417412109375,0.8019388982087373,-2.8065415213197467,0.32113004258349537
1733512575666760000,2.351760009765625,0.9961451270133256,-2.8959798001825807,0.4295357645057142
1733512575676778000,2.361778076171875,1.160039219662547,-2.689047945317626,0.7741498507902026
1733512575686796000,2.371796142578125,0.38528058932423587,-2.620814367046952,1.1492581517986953
1733512575696815000,2.381815185546875,-0.8644739725768565,-2.1651894909083844,1.5052664694093167
1733512575706833200,2.391833251953125,-2.8203113957360384,-1.5665671796768903,1.094633266033232
1733512575716852000,2.40185205078125,-5.807731754514575,-0.8977250847935676,0.8131642027087509
1733512575726870000,2.4118701171875,-9.073875823432207,0.6510135927259921,1.5901849327601492
1733512575736888000,2.42188818359375,-11.64972233698368,4.324734253928065,3.709010001248121
1733512575746907000,2.431906982421875,-8.155624667960405,9.934866045546531,7.405628138434887
1733512575756925200,2.44192529296875,-3.5654619465351103,13.83755971302986,11.758251685285568
1733512575766943000,2.45194287109375,0.30712387519329787,11.323615236639975,12.387903341031073
1733512575776962000,2.461962158203125,4.312234545578062,4.60378617310822,8.90976721124947
1733512575786980000,2.47197998046875,6.797451816916466,-1.607652054259181,4.689043659155071
1733512575796999000,2.4819990234375,8.02170719590187,-5.104600436538457,1.1335032410450279
1733512575807017000,2.492016845703125,8.213837787476182,-6.672392189574241,-1.3577281760163604
1733512575817035000,2.502034912109375,8.421463469824195,-7.588592257735133,-2.7467057690382
1733512575827054000,2.51205419921875,8.935949115732312,-7.453982711759209,-3.9183822350025173
1733512575837072100,2.522072021484375,8.460597210338712,-5.13710219169259,-5.221802920639514
1733512575847090000,2.53208984375,5.669764130282402,-0.9835124399334192,-8.037692700541019
1733512575857109000,2.54210888671875,0.24902181483656166,4.890411742413043,-13.235077803760767
1733512575867127000,2.552126953125,-2.058505478212237,10.590070660221576,-13.749686199265717
1733512575877146000,2.56214599609375,-0.08943769434094428,12.38529871149063,-8.28689484038055
1733512575887164200,2.5721640625,-0.5348907205551863,9.763348618412017,-4.551841758598387
1733512575897182000,2.582181884765625,-0.8901917666792869,4.374068485939502,-3.2694922103017565
1733512575907201000,2.592200927734375,0.8439467328548431,0.20693010129928588,-2.202444578069448
1733512575917219000,2.602218994140625,2.299139696192741,-2.011694627198577,-1.0235365534164012
1733512575927238000,2.61223779296875,3.204721339705586,-2.625135152855515,-0.0730675742983818
1733512575937256200,2.622256103515625,3.388064813712239,-2.1946727750241757,0.34697482406646013
1733512575947274000,2.63227392578125,3.050549015125632,-1.117966503086686,0.2539488959752023
1733512575957293000,2.64229296875,2.564722477468848,0.23284487927854058,0.2086031490780413
1733512575967311000,2.65231103515625,1.9616309118688104,1.299905370992422,0.19750994652509687
1733512575977329000,2.662328857421875,1.3063234213411807,1.7981038989663123,0.16696853165850042
1733512575987348000,2.672347900390625,0.6416960215434432,1.798530015423894,-0.04708250756189227
1733512575997366000,2.682365966796875,-0.0343073432713747,1.3185627251893282,-0.42809959422275423
1733512576007385000,2.692385009765625,-0.47621612100750205,0.6297235519379377,-1.1155853070385753
1733512576017403100,2.702403076171875,-0.5909544069521129,0.20008651901483535,-1.6512386825293301
1733512576027421000,2.7124208984375,-0.5804796285584569,-0.11183306602239608,-1.9336729376241564
1733512576037440000,2.72243994140625,-0.4152120555989444,-0.19042144956886767,-1.9575909888282417
1733512576047458000,2.7324580078125,-0.20493162095844744,-0.3166343385994434,-1.660782171422243
1733512576057477000,2.74247705078125,-0.11120236690342426,-0.3366016063511371,-1.4478370476171374
1733512576067495200,2.7524951171875,-0.06997939902469516,-0.31892507988512514,-1.3347460904881356
1733512576077513000,2.762512939453125,-0.03688274671733379,-0.172686470913887,-1.5928069518268106
1733512576087532000,2.772531982421875,-0.05211129550933838,-0.061142158704996105,-1.9568340329810976
1733512576097550000,2.782550048828125,-0.1146719427101314,-0.09782090728282927,-2.10962980851084
1733512576107568000,2.792568115234375,-0.2553969028264284,-0.21735504920184612,-1.8846634075224398
1733512576117587200,2.802587158203125,-0.4002437651783228,-0.2635936532855034,-1.2933195628613232
1733512576127605000,2.81260498046875,-0.578658477545902,-0.2327753211736679,-0.6078381756052375
1733512576137624000,2.8226240234375,-0.7908055097758769,-0.15000117637515067,0.03046981093510985
1733512576147642000,2.83264208984375,-0.9837404765356331,-0.12332009019851684,0.5082460208661854
1733512576157660000,2.842659912109375,-1.2750631906807421,-0.22282558956742285,1.0136156095132232
1733512576167679000,2.852678955078125,-1.5311550900340078,-0.42614276106655596,1.2553497515596448
1733512576177697000,2.862697021484375,-1.8006933309376238,-0.6688987935066223,1.3013520626693964
1733512576187715000,2.872715087890625,-2.0912357814252376,-0.8831032697230577,1.3793619156755506
1733512576197734100,2.882734130859375,-2.378346503898501,-0.9792401694416999,1.3703013879939914
1733512576207752000,2.892751953125,-2.6726433384835717,-0.9855705415070056,1.0013101085610687
1733512576217771000,2.90277099609375,-2.9666005658507344,-0.8239251045674085,0.43106662733480333
1733512576227789000,2.9127890625,-3.113817079943418,-0.36207623934745786,-0.2842681925237179
1733512576237807000,2.92280712890625,-3.1638135752558707,0.31041502569317814,-1.1057105403646825
1733512576247826200,2.932826171875,-3.226864782452583,1.0077665912240743,-1.9502184142336247
1733512576257844000,2.942843994140625,-3.3749697698175907,1.5735498781710862,-2.746978740760684
1733512576267863000,2.952863037109375,-3.725504039931297,1.712291993907094,-3.4677272562310097
1733512576277881000,2.962881103515625,-4.326221862137317,1.7473422645002603,-4.01956326636821
1733512576287899100,2.972899169921875,-5.1862382707834245,1.60015673006773,-4.276031597818434
1733512576297918200,2.982918212890625,-6.359049878257513,1.0428139392077922,-4.143858631339669
1733512576307936000,2.99293603515625,-7.228387072956561,0.21667466572225091,-3.701156657399237
1733512576317954000,3.0029541015625,-7.061319026446342,-0.47339083445370195,-3.1718294161900875
1733512576327973000,3.01297314453125,-6.302968510073423,-0.6795347538113594,-2.578416071778536
1733512576337991000,3.022990966796875,-5.321334138971567,-0.1737368567496538,-2.141957960663736
1733512576348010000,3.033010009765625,-4.63712233325988,0.6532628329575061,-1.8476991200014947
1733512576358028300,3.0430283203125,-4.4060660909637805,2.028462222126126,-0.7740884759917854
1733512576368046000,3.053046142578125,-4.459793297237158,3.6880420320212837,0.4220522768825292
1733512576378065200,3.063065185546875,-4.694305817466974,4.768941079473495,0.5985837327867746
1733512576388083000,3.0730830078125,-4.629868124347925,5.113778599250316,-0.4344475019447505
1733512576398102000,3.08310205078125,-3.6415491609156128,4.896995796978473,-1.3254368487425148
1733512576408120000,3.0931201171875,-2.128338892894983,4.248362377387285,-1.7701605377689003
1733512576418138000,3.10313818359375,-0.7870492259822786,3.433162431067228,-2.050049346164614
1733512576428157200,3.1131572265625,-0.02254281732812524,2.7685359080523253,-2.1425695166908203
1733512576438175000,3.123175048828125,0.11984554595574735,2.445183074852824,-2.221965124966949
1733512576448193000,3.133193115234375,-0.4091990789197385,2.540617379260063,-2.340981088230759
1733512576458212000,3.143212158203125,-1.3802560880362986,2.6868472204029556,-2.624863642437756
1733512576468230000,3.15322998046875,-2.164862304780632,2.7275737830668687,-3.197649209362268
1733512576478249000,3.1632490234375,-2.161011474571377,2.656059867951274,-3.7879362384468314
1733512576488267000,3.17326708984375,-1.3712614651978015,2.452102060461044,-4.178121843208372
1733512576498285000,3.18328515625,-0.2709773337960243,2.024583334866166,-4.324110276810825
1733512576508304100,3.19330419921875,0.7353647775828838,1.6219611501187086,-4.313378454916179
1733512576518322000,3.203322021484375,1.5607704760968684,1.4386732056915759,-4.051718692302703
1733512576528341000,3.213341064453125,2.357473811739683,1.3775415683805943,-3.5856741289585825
1733512576538359000,3.223359130859375,3.13628727042675,1.528365167054534,-3.285313756550848
1733512576548377000,3.233377197265625,3.371253379642963,1.8067659288495779,-2.6032576675683257
1733512576558396200,3.243396240234375,3.2153754201889035,2.111657222685218,-1.7540692346677182
1733512576568414000,3.2534140625,3.0029034668534993,2.2659978895694017,-0.662545040565729
1733512576578432000,3.263431884765625,2.6167069317281246,2.243624729719758,0.290165141607821
1733512576588451000,3.273451171875,2.6242507712364196,2.1796540695905686,0.3589069616615772
1733512576598469000,3.28346923828125,3.360613327684998,2.0766963839411736,-0.026548545838147402
1733512576608488200,3.29348828125,3.998179994338751,1.83801914524734,-0.31727862785235045
1733512576618506000,3.303506103515625,4.520041721972823,1.6720160976201295,-0.5520164812706411
1733512576628524000,3.31352392578125,4.423813636839389,1.4596715700566767,-0.8369155190438031
1733512576638543000,3.323543212890625,3.366997475764155,1.1922697566598652,-1.2804074743181466
1733512576648562700,3.333562744140625,2.54383108060956,0.954543535080552,-1.1762390977047383
1733512576658581500,3.34358154296875,3.077060589954257,0.7399100197970867,-0.35776305232346056
1733512576668599600,3.353599609375,4.207523001998663,0.46804888890385626,0.3872171103447675
1733512576678617600,3.36361767578125,4.8756461349576705,0.10027473017573356,1.102078613603115
1733512576688636400,3.373636474609375,5.13057542027235,-0.4305792822092771,1.504986921815574
1733512576698654700,3.38365478515625,5.105594123750925,-0.9230214386135339,1.472617122478038
1733512576708672500,3.393672607421875,4.986593065795302,-1.621126452860236,1.3309291625484823
1733512576718691600,3.403691650390625,5.095855404546857,-2.1663807465195655,1.0092568297818303
1733512576728709400,3.41370947265625,5.426840340059996,-2.4057126497298476,0.6199331025466323
1733512576738728400,3.423728515625,5.802774424368143,-2.6305910801738497,0.08734554436728358
1733512576748746800,3.433746826171875,5.947110414588451,-3.0039339789450166,-0.3906672507986426
1733512576758764500,3.4437646484375,5.6701130898505445,-3.3716257200866937,-0.6659302990898489
1733512576768783600,3.45378369140625,5.050154560601711,-3.492686048659682,-0.7280385263480246
1733512576778801400,3.463801513671875,4.3207752871692175,-3.363101637369394,-0.7100320372752845
1733512576788820500,3.473820556640625,3.538590890744328,-3.096027740752697,-0.5962848081946373
1733512576798838500,3.483838623046875,2.678553439310193,-2.7847265798747536,-0.20383008945733308
1733512576808856600,3.493856689453125,1.5509765195742249,-2.4806395881593226,0.4993557351849973
1733512576818875600,3.503875732421875,0.23765315634310244,-2.199746425026655,1.5858897197842596
1733512576828893700,3.513893798828125,-1.6375903886660932,-1.948174048924446,2.9907512567669152
1733512576838911500,3.523911376953125,-4.0225352679163215,-1.6910218268632888,4.239560646772384
1733512576848930600,3.5339306640625,-6.321113238573074,-1.2619745765268802,4.9191246266782285
1733512576858948400,3.5439482421875,-6.230445710176229,-1.0103419946700334,4.428914759370684
1733512576868967400,3.553967529296875,-4.926346979147196,-1.2255799055874348,3.107571755813062
1733512576878985700,3.56398583984375,-4.764425355614722,-1.6825690558165312,1.649134549856931
1733512576889003500,3.57400341796875,-5.877626543995738,-2.0229022499114273,-0.009884119024127721
1733512576899022600,3.584022705078125,-6.313612653684616,-2.294904250580072,-2.5156518648296595
1733512576909040400,3.594040283203125,-2.971109275446832,-1.9751929887533186,-4.868301617413759
1733512576919058700,3.60405859375,5.240077412998676,-1.1041969209313391,-6.287728270843624
1733512576929077500,3.614077392578125,12.185587455528974,0.6363368325978517,-5.964626197534799
1733512576939095600,3.624095458984375,12.10204407992363,2.9814234564512967,-3.817167593628168
1733512576949114600,3.634114501953125,7.19282476118803,5.47629030740559,-1.1655451236024499
1733512576959132700,3.644132568359375,2.3256667608514427,7.748843025445938,1.7067741072684526
1733512576969150500,3.654150390625,-0.48118528772220015,7.464874692651629,3.4688434007793663
1733512576979169500,3.66416943359375,-0.03280746010243892,3.7009926990091797,4.1632998293906445
1733512576989187600,3.6741875,1.725817976564914,-1.0441215146750211,3.6128397837817667
1733512576999206700,3.68420654296875,3.46379225486964,-4.047113828855752,2.7832822262853383
1733512577009224700,3.694224609375,4.686987603408098,-4.938508541584015,2.541855981144309
1733512577019242500,3.704242431640625,5.360105475914478,-4.124633706387877,3.1510739206701515
1733512577029261600,3.714261474609375,5.324586418765783,-2.5576398257315156,3.718064537580311
1733512577039279400,3.724279296875,4.889745387458801,-1.089081184864044,3.7439538888573645
1733512577049298400,3.73429833984375,4.026373823165893,0.07668751836121082,3.143027100075781
1733512577059316700,3.744316650390625,3.172960758307576,0.7323913147300481,2.2203686495557426
1733512577069334500,3.75433447265625,2.2121499795258046,1.2043933251738548,1.8611862319536505
1733512577079353600,3.764353515625,1.4364467618137597,1.7689087841421365,1.313212304072082
1733512577089371400,3.774371337890625,1.517115458765626,2.4534756869018075,0.0030848142728209494
1733512577099389400,3.784389404296875,1.468362241512537,3.1527193497896193,-0.9970962902583181
1733512577109408500,3.794408447265625,1.1640800925511867,3.747697751560807,-1.9528939170531927
1733512577119426600,3.804426513671875,1.6735843698501587,3.8168636422455307,-3.6402971150279044
1733512577129445600,3.814445556640625,2.2528175054788586,3.4517776996880767,-4.790438041010499
1733512577139463700,3.824463623046875,2.106738470983505,2.9129233361989257,-4.897220253384113
1733512577149481500,3.8344814453125,1.5775649590313434,2.1932272523909804,-4.867843936774134
1733512577159500500,3.84450048828125,0.7949719818055629,1.460510358968377,-4.969169637307524
1733512577169518600,3.8545185546875,-0.1252268371352926,0.7883516868829726,-5.332724132514
1733512577179537400,3.864537353515625,-1.1276059266347438,0.15831483121216297,-5.4162137321054935
1733512577189555700,3.8745556640625,-2.1728338681817054,-0.3500239825040102,-5.157939228016137
1733512577199573500,3.884573486328125,-2.9413059655964373,-0.43992461818158624,-4.5069060538068415
1733512577209592600,3.894592529296875,-3.169965083622932,-0.17445698771774767,-3.7951924931854006
1733512577219610400,3.9046103515625,-3.0185668999314306,0.10154781885147095,-3.1565999906152484
1733512577229628700,3.914628662109375,-2.696358560591936,0.26951661359369755,-2.578592597389221
1733512577239647700,3.924647705078125,-2.328040796506405,0.31305238845944405,-2.073442935103178
1733512577249665500,3.93466552734375,-2.070260797935724,0.21461597962677478,-1.5208473387703298
1733512577259684600,3.9446845703125,-1.8722844029426573,0.06610124241709708,-0.8298726147949695
1733512577269702700,3.95470263671875,-1.65129055884704,-0.10641863975822925,-0.021109131263196468
1733512577279720400,3.964720458984375,-1.5353203930199146,-0.312229966160655,0.8346132334508002
1733512577289739500,3.974739501953125,-1.5186789086900652,-0.5684533829391002,1.478592689756304
1733512577299757600,3.984757568359375,-1.495540025164932,-0.8298942421048879,1.9363089852161703
1733512577309775600,3.994775634765625,-1.3982302822746335,-0.9879097981095314,2.154240226870775
1733512577319794700,4.004794677734375,-1.2332932564437389,-0.8586591488182544,2.131473099267483
1733512577329812500,4.0148125,-1.0342555158294737,-0.515260137411952,2.1387389986172316
1733512577339831600,4.02483154296875,-0.8953285450458526,-0.03726677759885788,2.4262825595498083
1733512577349849300,4.034849365234375,-0.8622130419075489,0.4316828595370054,2.506431908802688
1733512577359867600,4.04486767578125,-1.0092685202196239,0.8624369137912988,2.221212991425395
1733512577369886700,4.05488671875,-1.2679551122412085,1.2376193029493092,1.6970982241675256
1733512577379904500,4.064904541015625,-1.6708651740193365,1.7040005509018896,1.006026688754186
1733512577389923600,4.074923583984375,-2.0623671220764517,2.0794658486545083,0.2752181131709367
1733512577399941400,4.08494140625,-2.4255434316202997,2.096542655661702,-0.47404491444826125
1733512577409959700,4.094959716796875,-2.844212788066268,1.7896084578216074,-1.1103598274752497
1733512577419978500,4.104978515625,-3.397698026715219,1.3353285665512085,-1.5440145716071128
1733512577429996500,4.11499658203125,-4.042145392793417,0.9839140064716339,-1.896394907978922
1733512577440015600,4.125015625,-4.695544127090275,0.8882242659986018,-2.2103204260110854
1733512577450033700,4.13503369140625,-5.485905107969045,1.035762851652503,-2.4351884811915454
1733512577460051500,4.145051513671875,-7.11150958302617,1.5322276877015828,-2.194646617669612
1733512577470070500,4.155070556640625,-10.908242291390895,2.2427228124439713,-1.232226211734116
1733512577480088600,4.165088623046875,-16.99656384217739,2.3531939424633976,0.049434623645991084
1733512577490106600,4.175106689453125,-20.6317428835392,1.8920096786320209,1.8662426385603843
1733512577500125700,4.185125732421875,-17.246583728140592,2.346454989597201,3.47916839543879
1733512577510143500,4.1951435546875,-12.76087623744607,3.6231682855725285,4.056009082973003
1733512577520162600,4.20516259765625,-9.178501734554768,4.631047689521313,3.8090404012739656
1733512577530180400,4.215180419921875,-6.515214253437518,4.89355062496066,3.2494378487885
1733512577540198700,4.22519873046875,-4.66985439003855,4.932597856235504,2.469879709213972
1733512577550217700,4.2352177734375,-3.237054752555489,5.598827138271927,1.473627760825306
1733512577560235500,4.245235595703125,-1.7293012886360286,5.770284944173693,0.1351959675617516
1733512577570254600,4.255254638671875,-0.22665070081353186,5.050953602024912,-1.19059188657552
1733512577580272600,4.265272705078125,0.8147429963327943,4.454343799659609,-2.491511695307493
1733512577590290400,4.27529052734375,1.727321805256605,4.414771083205938,-4.155487109813094
1733512577600309500,4.2853095703125,2.771337521469593,4.646511216112971,-5.179618560382724
1733512577610327600,4.29532763671875,3.6429894228518007,5.198369438081979,-4.924599258697032
1733512577620345600,4.305345703125,4.275616295015812,5.94560293263495,-3.9540015376552935
1733512577630364700,4.31536474609375,4.9974733562499285,6.407392176622152,-2.859992541000247
1733512577640382500,4.325382568359375,5.916311956220865,6.354981021383404,-2.1656848732098934
1733512577650400300,4.335400146484375,6.436150069072842,5.968496901488304,-1.7760016650125383
1733512577660418000,4.34541796875,6.28939708083868,5.484984485992789,-1.3084085570521653
1733512577670436000,4.35543603515625,5.576770789286494,5.00797020034492,-1.2294628845006226
1733512577680455000,4.365454833984375,5.264484709024429,4.104364240819216,-1.489637961514294
1733512577690473000,4.375472900390625,4.49184964671135,2.700703311797976,-1.8380821274809538
1733512577700492000,4.385491943359375,2.4118429691784082,1.37012690820992,-3.8711242247432467
1733512577710510000,4.395510009765625,-0.31160335869491096,0.5934264961540698,-4.615868825089931
1733512577720528100,4.405528076171875,-0.7605167544960976,0.6906523601531982,-2.283445867976546
1733512577730547000,4.415546875,2.3823979712463914,0.6029845980942249,-1.1166675493173301
1733512577740565000,4.42556494140625,5.103798472505807,0.24239421339035033,-0.8185255836114287
1733512577750584000,4.435583984375,6.529627394193411,-0.26484102299809453,0.0940386122651398
1733512577760602000,4.44560205078125,7.619883468055725,-1.1672183175116777,1.030618328370899
1733512577770620200,4.4556201171875,8.774936715999246,-2.310961066889763,1.383072752892226
1733512577780639200,4.46563916015625,9.292137466084956,-3.416250459232926,0.9853285494446754
1733512577790657000,4.475656982421875,9.091351858890055,-4.275860040643811,0.3721922674313187
1733512577800675000,4.485675048828125,8.507253163051605,-4.448351281246543,-0.17348522007614373
1733512577810694000,4.49569384765625,7.723550763279199,-3.960480086019635,-0.7522502998016775
1733512577820712200,4.505712158203125,7.121634671199321,-3.3119904588133093,-0.9297403716050088
1733512577830731300,4.515731201171875,6.500586593148112,-2.8244781600266693,-0.705230482212454
1733512577840749000,4.5257490234375,5.771699487146734,-2.511189040201902,-0.5766577321827411
1733512577850767000,4.53576708984375,5.979523322415352,-2.2265666274130345,-0.6625589229606091
1733512577860786000,4.545785888671875,6.80598642102778,-2.309470536071062,-0.6818970990285277
1733512577870804000,4.555803955078125,7.078627888643741,-2.7561592415601015,-0.4712877246946096
1733512577880823000,4.565822998046875,6.4203884363174435,-3.196435741919279,-0.1305683077611029
1733512577890841000,4.575841064453125,5.068091783830523,-3.3651147307574747,0.22999022049978374
1733512577900859100,4.585859130859375,3.7540392295420166,-3.316420550215244,0.6462295733198523
1733512577910878000,4.5958779296875,2.952505405002832,-3.06405556243062,0.7950147980339825
1733512577920896000,4.60589599609375,2.3839731116086242,-2.584621940681338,0.8686609028726816
1733512577930914000,4.6159140625,1.6586325921729206,-2.0519319450408218,1.0039761128999292
1733512577940932900,4.625932861328125,0.48669016874879595,-1.594231431671977,1.1902199845232069
1733512577950951200,4.635951171875,-1.20743313126117,-1.0876537824094294,1.5551456219524145
1733512577960970200,4.64597021484375,-3.598347732570767,-0.5119757089138031,2.3085706646218895
1733512577970988000,4.655988037109375,-6.0746355552613736,0.31986674464941023,2.4722861858338114
1733512577981006000,4.666006103515625,-8.04859870995879,1.4788573320418594,1.077737514681369
1733512577991025000,4.67602490234375,-8.973642009788751,2.4774095201969146,-1.0265906802900135
1733512578001043200,4.686043212890625,-7.908963444775343,2.700679930922389,-2.3630384601294994
1733512578011062300,4.696062255859375,-5.247867920744419,1.9301029701828956,-2.564311850841343
1733512578021080000,4.706080078125,-2.7253984848544,0.46836219263672824,-1.6856734515726566
1733512578031098000,4.71609814453125,-1.0869061789125203,-0.8064367941498756,-0.3621519349321723
1733512578041117000,4.726116943359375,-0.5457525985702872,-1.498640475398302,0.20135916929915545
1733512578051135000,4.736135009765625,-0.0019359364986419676,-1.8607184683114288,-0.020120266356319187
1733512578061153300,4.7461533203125,0.8971648205623031,-2.1218220583468677,-0.6257711610503495
1733512578071172000,4.756172119140625,1.9899597652524708,-2.0116770915418862,-1.0213261838905512
1733512578081190100,4.766190185546875,3.2711753410831093,-1.5614210489600895,-0.6810520265065133
1733512578091209200,4.776209228515625,4.315491501547396,-0.6693161421358585,0.24183117268010973
1733512578101227000,4.78622705078125,4.6207916684448715,0.8873650188207626,1.5912833955213426
1733512578111245000,4.7962451171875,4.02229678298533,3.2344957157224417,2.906327883456647
1733512578121263900,4.806263916015625,1.4516229958966373,6.70165686250329,4.3174376671791075
1733512578131282200,4.8162822265625,-16.834341482132672,13.751418722146749,7.026870813399553
1733512578141301200,4.82630126953125,-30.072519589996336,20.232318033528326,10.225672699928284
1733512578151319000,4.836319091796875,-1.2449153051763773,14.611712194168566,9.295037863701582
1733512578161337000,4.846337158203125,4.913837626186013,6.448093604844808,7.885206137090921
1733512578171356000,4.85635595703125,4.756874794104695,-2.0429197865456343,5.408213965523243
1733512578181374000,4.8663740234375,8.033080822831392,-7.174363221824168,3.2503578862428664
1733512578191393000,4.87639306640625,10.525585036307573,-9.747989136716724,0.9167674927853048
1733512578201411000,4.8864111328125,11.318214254379273,-11.216397555458546,-1.4754374405957758
1733512578211429000,4.89642919921875,11.657253317010403,-12.261484115773438,-2.7092975371420382
1733512578221448000,4.906447998046875,12.505769841998815,-12.002081484436989,-2.7063968472644686
1733512578231466000,4.916466064453125,12.548082212549447,-10.223354486113786,-2.1306512614905833
1733512578241484300,4.926484375,11.442042878621816,-6.957997768181562,-1.4067179785043
1733512578251503000,4.936503173828125,9.4989395570904,-2.9475141725867986,-1.009510804542899
1733512578261521200,4.946521240234375,7.5169462406724685,2.0607786838412285,-0.40040246287137266
1733512578271540200,4.956540283203125,6.133954590192436,7.782256634747982,-0.12196662976294755
1733512578281558000,4.96655810546875,4.121671349450946,10.747785187453031,-1.2171733117699621
1733512578291576000,4.976576171875,3.4684225450187918,10.594149453967809,-4.764984450802206
1733512578301595000,4.986594970703125,3.674576401248574,8.178202410471439,-7.481317877930402
1733512578311613200,4.99661328125,2.7725018890738484,5.540174458295106,-6.905959537908434
1733512578321632300,5.00663232421875,1.4541548524618149,3.1372219209283587,-5.139828986307978
1733512578331650000,5.016650146484375,0.06011749639895279,1.1843021387815476,-3.6816175519317387
1733512578341668000,5.026668212890625,-0.9652560677528381,-0.4024859911471605,-3.2524221252962944
1733512578351687000,5.03668701171875,-1.7191747391581533,-1.9615262824505566,-2.8562983626574274
1733512578361705000,5.046705078125,-2.862407200926542,-2.932756163915992,-2.0316396831184624
1733512578371724000,5.05672412109375,-4.19818468028903,-1.9488474181413649,-0.8850764694921672
1733512578381742000,5.0667421875,-5.043362416243553,-0.06857493905425072,0.20273177282661198
1733512578391760100,5.076760009765625,-5.419733722925185,1.1483873603135346,0.07786854483932257
1733512578401779200,5.086779296875,-5.351611203813553,1.2163812846094368,-0.6714831839766353
1733512578411797000,5.096796875,-4.943678053176403,0.8206658105105161,-1.2744167094707488
1733512578421815000,5.10681494140625,-4.360357940495014,0.40395723274350165,-1.0927036862101405
1733512578431833900,5.116833740234375,-3.7241187230527397,0.036444355300068856,-0.25286175832562147
1733512578441852200,5.12685205078125,-3.254801421648264,-0.23443828594982621,0.6864946559518575
1733512578451871200,5.136871337890625,-2.8659949962854383,-0.2222784770786762,1.2535799654081463
1733512578461889000,5.146888916015625,-2.615523274901509,-0.11997370238006114,1.2705173639446496
1733512578471907000,5.156906982421875,-2.5440648893654343,-0.4008826476037502,0.6475063152574002
1733512578481926000,5.16692578125,-2.5335236216068266,-0.4557493793010711,-0.11469700408615172
1733512578491944200,5.176944091796875,-2.4842273835182187,-0.15096505297124385,-0.32205424475632605
1733512578501963300,5.18696337890625,-2.48834709379673,0.023281506866216658,-0.04425115659348666
1733512578511981000,5.19698095703125,-2.448476855701208,0.06348375339508057,0.3800157275985926
1733512578521999000,5.2069990234375,-2.3190309760987757,-0.010955693778395652,0.7830250119674951
1733512578532018000,5.217017822265625,-2.117702932590246,-0.19447043269872663,1.1783829778656363
1733512578542036000,5.227035888671875,-1.8321840093530712,-0.35243805790841576,1.5076334908016025
1733512578552055000,5.237054931640625,-1.451345932520926,-0.46772155664563175,1.6037157377235591
1733512578562073000,5.247072998046875,-0.9714496616959571,-0.554115645506978,1.3957190301060676
1733512578572091100,5.257091064453125,-0.4056429938733577,-0.6458861667096615,0.9989133496176451
1733512578582110200,5.267110107421875,0.10381254891306162,-0.6897574571400881,0.6157775903023779
1733512578592128000,5.2771279296875,0.43251346514225003,-0.36752749049067496,0.1899395112708211
1733512578602146000,5.28714599609375,0.4451707021415233,0.055474049940705296,-0.2871820341438055
1733512578612164900,5.297164794921875,0.27526772446632386,0.36472061637639996,-0.69159563235268
1733512578622183200,5.30718310546875,0.045697044552862644,0.8896241959244012,-1.1582985134750603
1733512578632202200,5.3172021484375,-0.3396419969603419,1.682153460752964,-1.8362769777551293
1733512578642220000,5.327219970703125,-0.7698729041233658,2.2811001816332337,-2.5458666780903934
1733512578652238300,5.33723828125,-1.1465642365396023,2.6475281864494082,-3.129481389804184
1733512578662257400,5.34725732421875,-1.550129547356069,3.0594869393408297,-3.552024957334995
1733512578672275500,5.357275390625,-1.9652865117669105,3.4467589947432278,-3.8950478289052843
1733512578682294300,5.367294189453125,-2.426524259351194,3.716910983631015,-3.9544294076785445
1733512578692312600,5.3773125,-3.0179528596863148,3.5879555178940294,-3.7593428889080878
1733512578702330400,5.387330322265625,-3.8550788066104054,2.737534036067128,-2.929105532453954
1733512578712349400,5.397349365234375,-4.83019721994698,1.49049399382174,-1.5418556400075554
1733512578722367500,5.407367431640625,-5.545778854173421,1.470064953777194,-0.03729724580235779
1733512578732386300,5.41738623046875,-6.071542849943041,3.576668984726071,1.848609658975154
1733512578742404400,5.427404296875,-9.5664746317029,6.871497296336293,4.073768903808295
1733512578752422400,5.43742236328125,-20.644908654582498,8.290964281776548,5.1093222043633455
1733512578762441500,5.44744140625,-33.02707666683197,7.182014613360166,5.841141272163391
1733512578772459500,5.45745947265625,-23.02759990968704,5.315519899734855,5.80701337711215
1733512578782478300,5.467478271484375,-15.143599056732654,4.746076921236515,5.749010100954771
1733512578792496400,5.477496337890625,-9.507303480809927,4.277895930385589,5.28600563595891
1733512578802514400,5.487514404296875,-4.671616139014065,3.9212154126018284,4.205744886410236
1733512578812533500,5.497533447265625,-0.7360210495345294,3.788853937813639,2.52935831862092
1733512578822551600,5.507551513671875,2.3606195624195037,3.8283828151255843,0.6794460526145994
1733512578832569300,5.5175693359375,4.815845453989506,3.9843490373849866,-1.0887142512477934
1733512578842588400,5.52758837890625,7.09696200223565,4.515602862742543,-2.2822418990142643
1733512578852606500,5.5376064453125,8.665276317840814,5.4519192517369985,-2.0487861943610013
1733512578862625300,5.547625244140625,9.017069648104906,6.062692019489408,-1.021734764691442
1733512578872643600,5.5576435546875,8.636099907717108,6.4893257789433,0.4519222222283482
1733512578882661400,5.567661376953125,8.548375447034836,6.73927376871407,1.8502609333135187
1733512578892680400,5.577680419921875,8.302547167542576,7.169304769390821,2.6750296490982173
1733512578902698500,5.587698486328125,7.91687494855225,7.061660971751809,3.310603388369083
1733512578912717300,5.59771728515625,6.612631256094574,5.667568081542849,3.784410402408242
1733512578922735400,5.6077353515625,5.822209192678332,4.185749561607837,2.414276626066118
1733512578932753400,5.61775341796875,5.2791334121018645,2.7896137673944232,1.508458543448895
1733512578942772500,5.6277724609375,4.9865971574485295,1.491704538655281,0.5210048185437918
1733512578952790500,5.63779052734375,4.468369986924529,0.28423370573222634,-0.13536109499558804
1733512578962808300,5.647808349609375,0.654274786479026,-0.43891748696565624,-2.441282414152473
1733512578972827400,5.657827392578125,-4.760060438403487,-0.8495265788137912,-6.1744339000970125
1733512578982845400,5.667845458984375,0.5375666617661714,-0.563230095332861,-4.325426327845454
1733512578992864300,5.6778642578125,3.688410865333676,-0.7013947034418583,-2.736413507604599
1733512579002882600,5.687882568359375,5.070702258589863,-1.2028250529438256,-2.1237249693587423
1733512579012900400,5.697900390625,6.814678261527419,-1.901121790370345,-2.337394608046114
1733512579022919400,5.70791943359375,8.776283454433083,-2.809581619668007,-2.5950933580741284
1733512579032937500,5.7179375,9.93268811698556,-3.8910114129960536,-2.4827578954875467
1733512579042956300,5.727956298828125,10.22729883982539,-5.054733120563626,-2.1703680625900623
1733512579052974300,5.737974365234375,9.452891507142782,-5.491185094198584,-1.7371845892317592
1733512579062992400,5.747992431640625,8.130001566404104,-5.384265519180894,-1.3076551083363592
1733512579073011500,5.758011474609375,7.389422269043326,-5.0969776865750545,-1.094266186286509
1733512579083029500,5.768029541015625,7.240434069103002,-4.675846616190672,-1.0534629051245747
1733512579093048300,5.77804833984375,7.102398640331626,-4.3913218185573815,-0.4547434171289205
1733512579103066400,5.78806640625,6.616842151787877,-4.219867519786954,0.5880161615431309
1733512579113084400,5.79808447265625,5.487865009865164,-4.092958465185761,1.3897601217016577
1733512579123103500,5.808103515625,3.812672328035533,-3.9553333707809446,1.604084132644534
1733512579133121500,5.81812158203125,2.0260931549072265,-3.664910162758827,1.2594083793006836
1733512579143139300,5.828139404296875,0.3760442666843533,-3.0923826622486112,1.1422668316066265
1733512579153158400,5.838158447265625,-0.7758277208745479,-2.3688176280528306,1.0690050499103962
1733512579163176400,5.848176513671875,-1.2552370849654078,-1.6724579961687325,0.858111451807618
1733512579173195300,5.8581953125,-1.7331921585947274,-1.3480921865344047,0.7986481861002743
1733512579183213600,5.868213623046875,-2.665414556273818,-1.145398699891567,1.1377679127521811
1733512579193231400,5.8782314453125,-4.575116251201927,-1.0834557461977004,1.6436624020561574
1733512579203250400,5.88825048828125,-6.498132185733318,-0.6746452282041311,2.044915928798914
1733512579213268500,5.8982685546875,-7.8866674418151375,0.3097948479682207,1.714890632098168
1733512579223287300,5.908287353515625,-8.000640442475676,1.385783327025175,-0.16754589315503834
1733512579233305300,5.918305419921875,-6.452913572347164,1.776449701040983,-2.5384157775625584
1733512579243323400,5.928323486328125,-4.257527972878515,1.182163957709074,-3.823464063423872
1733512579253342500,5.938342529296875,-2.573624745848775,0.18003508011102676,-3.587337093734741
1733512579263360500,5.948360595703125,-1.6184736002638935,-0.47596682242155075,-2.468884268435836
1733512579273379300,5.95837939453125,-1.1073778890550137,-0.7425432909101247,-1.3088060319371522
1733512579283397400,5.9683974609375,-0.28767274027019735,-0.9775935712784528,-0.38339404492527246
1733512579293415400,5.97841552734375,0.23581249691247938,-1.276803896868229,0.40761575525105
1733512579303434500,5.9884345703125,0.8977388210579752,-1.6546254023581741,0.586060497430712
1733512579313452500,5.99845263671875,1.8518682223796843,-1.6727496725916862,0.8361657235898077
1733512579323471600,6.0084716796875,2.1765473357468843,-0.4796189151883125,2.10116724672243
1733512579333489400,6.018489501953125,-0.43032063127309084,2.8519880982428787,4.210813275715709
1733512579343507500,6.028507568359375,-13.776284283334016,9.189323572820424,10.064421815264225
1733512579353526300,6.0385263671875,-21.75919676141739,15.026781188035011,14.977251141190528
1733512579363544600,6.048544677734375,-4.0950633285105225,14.66345874801874,9.72197732810378
1733512579373562400,6.058562255859375,4.616880632480979,11.172965240967272,7.839733256682753
1733512579383581400,6.06858154296875,5.586863144233822,5.305142882627249,4.245627399465442
1733512579393599500,6.078599609375,9.87621278104782,-0.5967974338918924,-3.0804245134294033
1733512579403618300,6.088618408203125,15.514679271268843,-3.864010593345761,-9.864922156226635
1733512579413636400,6.09863623046875,17.096075186765194,-7.057178857901692,-11.078553265345096
1733512579423654400,6.108654296875,14.402214872729777,-10.532792191207408,-9.192330937942861
1733512579433673500,6.118673583984375,12.435034510040282,-11.653975318253039,-6.389961733871698
1733512579443691500,6.12869140625,12.062422848153114,-10.527903250122069,-3.4196260731458663
1733512579453710300,6.13871044921875,11.564405521965027,-8.26568663265705,-1.1969395020365714
1733512579463728400,6.148728271484375,9.951001187789439,-5.581537565296888,0.5800954515464604
1733512579473746400,6.158746337890625,8.724918593376874,-2.4715444275557994,1.9206575348369777
1733512579483765200,6.16876513671875,7.669547370412945,0.9388689960867166,2.620542856629193
1733512579493783600,6.178783447265625,6.543132772454619,4.4436569859504695,3.355539677682519
1733512579503802600,6.188802734375,5.792110407012701,7.200361001911759,3.2568139305144546
1733512579513820400,6.1988203125,5.281282699090242,9.405855030679703,2.213240258980542
1733512579523838500,6.20883837890625,4.715176171538234,10.626830072820185,0.520039334512502
1733512579533857300,6.218857177734375,3.598758651459217,10.165174684345722,-1.3710524986222385
1733512579543875300,6.228875244140625,2.183683178976178,7.793517448952794,-2.665184839171171
1733512579553893400,6.238893310546875,0.5333337003715336,4.7222214138746255,-2.5100410392105577
1733512579563912400,6.248912353515625,-2.519293436202407,2.4053742115557193,-3.3555499068155883
1733512579573930500,6.258930419921875,-8.638114754670857,0.5778150855243206,-6.16837649975419
1733512579583949300,6.26894921875,-10.263080931824446,-0.751755940413475,-6.213170165726542
1733512579593967400,6.27896728515625,-4.446842045727372,-0.8367097673386334,-3.799648888072371
1733512579603985700,6.288985595703125,-1.0206699119389055,-0.1922591863900423,-2.1684216046974063
1733512579614004500,6.29900439453125,0.019168226328492164,0.5532464614570141,-0.474064934322983
1733512579624022500,6.3090224609375,0.5201052758881822,0.6214315244108438,0.6383639545112848
1733512579634041600,6.31904150390625,0.7892366530239582,-0.058898763692378994,0.8119030967317521
1733512579644059400,6.329059326171875,0.8115876010417937,-0.8074018397897481,0.34520898343771694
1733512579654078000,6.339077880859375,0.5468617288559675,-1.1267325778663158,-0.05777896588221192
1733512579664096800,6.3490966796875,0.13935938911782578,-1.2125462364912032,-0.28832608961239453
1733512579674114800,6.35911474609375,-0.18371289184093476,-1.1790665762156247,-0.5665463802739977
1733512579684134000,6.3691337890625,-0.44941666914820666,-1.0331132139265538,-0.8364791734531521
1733512579694152000,6.37915185546875,-0.7305577426273375,-0.7392255446642637,-1.0126825664468109
1733512579704170000,6.389169921875,-0.9430500811636447,-0.45646483409404753,-1.0852668872728943
1733512579714188800,6.399188720703125,-1.1344798309922217,-0.25754268268346786,-1.0328222681559622
1733512579724206800,6.409206787109375,-1.2912509398937224,-0.22061317421495913,-1.0072304385207593
1733512579734226000,6.419225830078125,-1.4653811798751353,-0.2872930933028459,-0.9383230526417493
1733512579744244000,6.429243896484375,-1.674926432108879,-0.489552864703536,-0.8149867419607937
1733512579754262000,6.439261962890625,-1.8931611867547034,-0.7088228076159954,-0.3648908583767712
1733512579764281000,6.449281005859375,-2.078504894667864,-0.7113456040918826,0.24035686234384773
1733512579774299000,6.459298828125,-2.20142064184919,-0.5855892266571522,0.6841605139158665
1733512579784318000,6.46931787109375,-2.342602551952749,-0.5609469528317451,1.1024122294716536
1733512579794335700,6.479335693359375,-2.4932512324512004,-0.5873655886799096,1.4152853158414362
1733512579804354000,6.48935400390625,-2.6259447156727314,-0.44475276899039745,1.4709408598288893
1733512579814373000,6.499373046875,-2.6756103715956208,-0.09905541751384735,1.1812553184315562
1733512579824391000,6.509390869140625,-2.8021456244483587,0.28727555764615537,0.7293127840675413
1733512579834409000,6.519408935546875,-3.077755586481094,0.6531868451118469,0.3051873541727662
1733512579844427800,6.529427734375,-3.5267078529879448,1.1168459746241568,0.0225891406878829
1733512579854445800,6.53944580078125,-4.083564321635663,1.790690992361307,-0.39821898135244843
1733512579864465000,6.54946484375,-4.849421560376882,2.6129174763172864,-1.5063848059147595
1733512579874483000,6.55948291015625,-5.927897180074453,3.1546009257525203,-2.793945074597001
1733512579884501000,6.5695009765625,-7.186261749410629,3.5660435458153485,-3.9176074512377377
1733512579894520000,6.57952001953125,-8.35468593558073,4.2344548480659725,-4.893666652555764
1733512579904537900,6.589537841796875,-9.230642256158589,5.553603848710656,-5.74934795460701
1733512579914557000,6.599556884765625,-9.60258054882884,7.927005881944298,-6.045501230713724
1733512579924575000,6.609574951171875,-9.305206206494569,10.762217032909392,-5.8397091935336585
1733512579934593000,6.619593017578125,-8.749099094909429,11.615484551817177,-5.0095162607431405
1733512579944612000,6.629612060546875,-8.041392139580845,8.33950239497423,-3.1221547001779077
1733512579954630000,6.6396298828125,-7.67645700367093,2.9777713636845347,0.13399302151277662
1733512579964649000,6.64964892578125,-8.46061883764863,0.3254237942546606,4.63360672635436
1733512579974666800,6.659666748046875,-8.685860840708017,0.03163257110416889,8.026731746065616
1733512579984685000,6.66968505859375,-6.355412983059883,0.20494974113702774,8.575287419357895
1733512579994704100,6.6797041015625,-3.568139056789875,0.516962849676609,8.112317441153525
1733512580004722000,6.689721923828125,-1.3989431067191063,0.7987187671184539,8.014424637678266
1733512580014740000,6.699739990234375,0.507602316135168,0.9298848946422338,7.660309586468339
1733512580024758800,6.7097587890625,2.7437586096704005,1.3655764052987098,5.534942402860522
1733512580034776800,6.71977685546875,4.892643446987867,1.943384476560354,2.947610618698597
1733512580044796000,6.7297958984375,6.247253052592277,2.3806214630931612,1.321576812313497
1733512580054814000,6.73981396484375,6.852710178279876,2.7719021696150303,0.7415583715260028
1733512580064832000,6.74983203125,7.463113528198003,2.921459109354019,0.46784810563474893
1733512580074851000,6.75985107421875,8.077617299172282,3.368976666882634,-0.22898323541432616
1733512580084868900,6.769868896484375,7.47153181245327,4.0726293783843515,-0.3436275594651699
1733512580094888000,6.779887939453125,6.973039269968867,4.46603540649712,-0.36721754775866866
1733512580104905700,6.78990576171875,6.264641994288564,4.246314797207713,-0.7249000821918249
1733512580114924000,6.799924072265625,5.686949658361077,3.5420039140582085,-1.3935598062455654
1733512580124943000,6.809943115234375,5.251490202894806,2.8383962107419967,-1.9271331605918705
1733512580134961000,6.8199609375,5.063564077273011,1.975876879364252,-2.021986888632178
1733512580144980000,6.82997998046875,4.483322641384602,0.43027708439230916,-1.9182842298343776
1733512580154997800,6.839997802734375,2.7293291023015973,-0.4339823686510324,-2.222088459085673
1733512580165015800,6.850015869140625,-1.7657171484939753,-0.4109083670556545,-2.365770807702839
1733512580175035000,6.860034912109375,-2.589351307290792,-0.1390150874584913,-0.5988922142140567
1733512580185053000,6.870052978515625,0.7859680066168307,-0.2439554713577032,0.4056877097979188
1733512580195072000,6.880072021484375,3.0155308932363987,-0.42597266519665716,0.9771364751607179
1733512580205090000,6.890090087890625,4.838251347064972,-0.5546136581569909,1.1785454749509692
1733512580215107800,6.90010791015625,6.334496451759338,-0.9862117620199918,0.9870784618519246
1733512580225127000,6.910126953125,7.186322539687156,-1.7338199351042507,0.6394589101411402
1733512580235145000,6.92014501953125,7.582188235911726,-2.4962685344457625,0.38922625821009277
1733512580245163000,6.9301630859375,7.459086756899953,-3.31159824462533,0.2880573556736111
1733512580255182000,6.94018212890625,6.953434990310669,-4.0628392212539906,0.3919564138263464
1733512580265199900,6.950199951171875,6.3920993304222815,-4.590176165428757,0.6973112335205077
1733512580275219000,6.960218994140625,6.138903737032413,-4.913332599273324,1.0787298867195845
1733512580285236700,6.97023681640625,6.173078978356719,-5.064520355084539,1.4806725647702812
1733512580295255000,6.980255126953125,6.078602120804787,-5.104667656555772,2.063379952380806
1733512580305274000,6.990274169921875,5.459123484027385,-5.045879952022433,2.671277895349264
1733512580315292000,7.0002919921875,4.2600978233665225,-4.839531450003386,3.124672235956788
1733512580325311000,7.01031103515625,2.613304137547314,-4.274158497422933,3.192076962187886
1733512580335328800,7.020328857421875,0.655200815282762,-3.3538205988049503,2.3611456321202215
1733512580345346800,7.030346923828125,-1.2260659355387091,-2.1231851633936167,1.1437013944543897
1733512580355366000,7.040365966796875,-2.665406957489252,-1.1770347781270742,-0.1333846803560853
1733512580365384000,7.050384033203125,-3.5632527460530397,-0.5653314515262842,-1.216678294794634
1733512580375403000,7.060403076171875,-4.074928887498379,-0.31401918766498566,-2.0991032999299466
1733512580385421000,7.070421142578125,-4.471724265788495,-0.3649105859905481,-2.8456974736660716
1733512580395438800,7.08043896484375,-4.907034375911951,-0.6620487814813852,-3.1820790075257417
1733512580405458000,7.0904580078125,-5.793886769035458,-1.1498019032865763,-2.6098399685680866
1733512580415476000,7.10047607421875,-6.8369181503862135,-1.8416034334748983,-1.2340094418890775
1733512580425494800,7.110494873046875,-7.1463821589648715,-2.354118656092882,-0.12324907078891992
1733512580435513000,7.12051318359375,-6.563284164601564,-2.1158266173243523,0.5645601748928427
1733512580445531000,7.13053076171875,-6.0525493956595655,-1.3267489542543887,0.7661781412586569
1733512580455550000,7.140550048828125,-5.531953742438555,-0.38521220026314257,0.8853365086678415
1733512580465567700,7.150567626953125,-8.468239834046363,0.44392391695082184,2.33606920466125
1733512580475586800,7.1605869140625,-9.949594828122853,0.4233569297403097,3.399621980515122
1733512580485605000,7.170605224609375,-2.2144190935015677,-0.15566753157377242,1.7208347813248632
1733512580495623000,7.180622802734375,4.9365948169171805,1.1807792253524065,1.2760881498143075
1733512580505642000,7.19064208984375,7.786805968615412,4.609784536740183,1.521673268200457
1733512580515660000,7.200659912109375,4.193365881830454,7.77869748096168,1.6289406337425112
1733512580525677800,7.210677734375,2.064262726564705,9.495616550147533,0.09976736517548561
1733512580535697000,7.22069677734375,5.397953852793574,8.794587757408618,-0.9190228704966604
1733512580545715000,7.23071484375,9.3581510302186,4.982954417032003,-0.13959449478164315
1733512580555734000,7.240734130859375,11.214088693994283,0.5196271004498004,0.5327663488123565
1733512580565752000,7.250751953125,10.722303540194034,-3.0849592342495917,0.6197275700371712
1733512580575769900,7.260769775390625,9.95517935025692,-5.681746829020977,0.9062436876181512
1733512580585789000,7.270788818359375,9.88660207311511,-6.4903299875497815,1.2065860129125416
1733512580595806700,7.280806640625,9.072368341478706,-5.2382233095645905,2.2506305168285965
1733512580605825800,7.29082568359375,8.1495549926579,-3.472767880746722,3.3307658864319323
1733512580615844000,7.300843994140625,7.779772416716813,-1.4845815549075603,3.895553148078918
1733512580625862000,7.31086181640625,7.011590242159366,0.4183808948934078,3.854377380342781
1733512580635881000,7.320880859375,5.934458438286185,1.8057038525760172,3.0045258073583243
1733512580645898800,7.330898681640625,4.994153271916509,2.9746313120931385,2.2484997884102165
1733512580655916800,7.340916748046875,3.9039188253641126,3.7684827654361723,1.7190929060935973
1733512580665934800,7.350934814453125,2.8991642754375935,4.2731122032403945,1.1231641447950154
1733512580675953000,7.360952880859375,2.1239327668905257,4.6310143717736,0.23736557157337665
1733512580685971700,7.3709716796875,1.7482168553777038,4.697481524893641,-1.8162720083415507
1733512580695989800,7.38098974609375,1.277308193128556,4.139803802990913,-3.178020379784703
1733512580706008800,7.3910087890625,0.2987362783372402,2.9910563771933316,-4.10396501236856
1733512580716027000,7.40102685546875,-1.0551572148870676,1.1792179673850536,-4.987179341250657
1733512580726045000,7.411044921875,-1.9552397495269773,-0.08297697389423847,-4.248971156935394
1733512580736063700,7.421063720703125,-1.7743267175376414,0.1355044489890337,-2.394449205176532
1733512580746081800,7.431081787109375,-1.5402110876709223,0.36721477127969265,-0.7560659856323152
1733512580756099600,7.441099609375,-1.1560890937972814,0.28392566269636155,0.655937970450893
1733512580766118700,7.45111865234375,-0.46293198428153987,-0.1587935546398163,1.8109782858476042
1733512580776137000,7.461136962890625,0.1628361080288887,-0.954670376330614,2.173488678828627
1733512580786155800,7.47115576171875,0.49146900052316483,-1.484475756445527,1.9331652803629635
1733512580796173800,7.481173828125,0.6046715282678604,-1.7728735961198805,1.5889149128243327
1733512580806191900,7.49119189453125,0.6928437327176332,-1.846438014024496,1.5048442984744905
1733512580816210700,7.501210693359375,0.610846965499781,-1.6265531540840863,1.545002705861628
1733512580826228700,7.511228759765625,0.4712883092164993,-1.3241419866263866,1.4448016254439948
1733512580836247800,7.521247802734375,0.3317290318787098,-0.9520236612141132,1.0741455546040086
1733512580846265900,7.531265869140625,0.16028174737095832,-0.3603437164664268,0.5089884367313235
1733512580856284000,7.541283935546875,-0.04238718935251236,0.15169395176768302,0.012018573769554496
1733512580866302700,7.551302734375,-0.22379823399186133,0.4622469246268272,-0.3075443656276911
1733512580876320800,7.56132080078125,-0.3428466382205486,0.5411404285997152,-0.41995756962560116
1733512580886339800,7.57133984375,-0.413707094396092,0.3218558726400137,-0.2852888408083469
1733512580896358000,7.58135791015625,-0.43574123154971744,0.04459902018308639,-0.13087941953688859
1733512580906376000,7.5913759765625,-0.45293081474900243,-0.03420855907201767,-0.15306918564364314
1733512580916394800,7.601394775390625,-0.4591314229547977,0.07505787133276462,-0.42648711752481755
1733512580926412800,7.611412841796875,-0.514181621460244,0.2004506761521101,-0.9458970680925994
1733512580936431900,7.621431884765625,-0.8431961336832493,-0.0010246668726205826,-1.5218684985116124
1733512580946449700,7.63144970703125,-1.5676828858338296,-0.5936269871622324,-1.86386845677495
1733512580956468000,7.641468017578125,-2.592203774112463,-1.197953062993288,-1.2865857245616614
1733512580966486800,7.65148681640625,-3.4996903744637966,-1.7098679816305635,-0.17802922018133102
1733512580976504800,7.6615048828125,-4.253162471145391,-1.9988532658040523,0.4682957032717764
1733512580986524000,7.67152392578125,-4.89864297966361,-1.5252981806993484,0.362561830907315
1733512580996541700,7.681541748046875,-5.232762706071138,-0.07052665764391422,-0.7882586748372763
1733512581006559700,7.691559814453125,-5.166200860404968,1.5517647473424672,-2.7483611350297927
1733512581016578800,7.701578857421875,-5.1154982626497745,2.520484691813588,-4.556327671840787
1733512581026596900,7.711596923828125,-5.196587815362215,2.553829327532649,-6.019830782884359
1733512581036616000,7.721615966796875,-5.4424336305111645,1.8980384374022483,-7.108523845213651
1733512581046633700,7.7316337890625,-5.759838953483104,0.9238841929227113,-7.242257777398824
1733512581056651800,7.74165185546875,-5.649527982461452,0.19275252286493777,-6.148657653805613
1733512581066670800,7.7516708984375,-4.915609312033653,0.6250614053457975,-4.602289212548732
1733512581076688600,7.761688720703125,-3.9501615211009975,1.9636364064723253,-2.913598166720569
1733512581086707700,7.771707763671875,-2.865665325939655,3.4618618713289497,-1.7063287015885114
1733512581096725800,7.781725830078125,-2.0779845240555703,5.209724944832921,-0.41271658552139995
1733512581106743800,7.791743896484375,-1.5247535524286329,7.382581609368324,1.7510282595366238
1733512581116763000,7.801762939453125,-0.6883540200829505,8.409698797750472,4.404260210585594
1733512581126780700,7.81178076171875,0.472312318501994,7.456701323068142,6.845335265597701
1733512581136799000,7.821799072265625,1.5956465591669082,5.99601210040152,9.107683985009789
1733512581146818000,7.831818115234375,2.3841981525361535,4.870219433733821,11.020500889348984
1733512581156835800,7.8418359375,2.8997008665323256,3.684787414139509,11.6496475181818
1733512581166855000,7.85185498046875,3.032459816205501,2.2100217353254554,11.225201624161004
1733512581176872700,7.861872802734375,2.9519863495647907,1.0189169307917356,10.911304017049073
1733512581186890800,7.871890869140625,3.102446960145235,0.43744916797876354,10.302267279309033
1733512581196909800,7.881909912109375,3.371906875115633,-0.15680267308354376,10.186530776107311
1733512581206928000,7.891927978515625,3.632369244638085,-0.23515198717713354,9.826657015240192
1733512581216947000,7.901947021484375,4.060353249657154,0.15668635322749613,8.422017012053727
1733512581226964700,7.91196484375,4.710864738079906,0.21621581603884696,7.028116429546475
1733512581236982800,7.921982666015625,5.296419477945566,-0.2834703201442957,5.269395861941575
1733512581247001900,7.932001953125,5.6944648562967775,-0.7564777082383632,3.894512699115276
1733512581257019600,7.94201953125,5.987479249855876,-0.8224865961968898,3.318362331932783
1733512581267038700,7.952038818359375,6.409851844733953,-0.379140771394968,2.7653327280968427
1733512581277056800,7.962056884765625,6.671358754873276,0.04396189132332801,1.6149764057978986
1733512581287074800,7.97207470703125,6.427605528089404,-0.2834171286523342,0.7696578000679611
1733512581297094000,7.982093994140625,6.1108782505095,-0.778354609003663,0.17443097649365663
1733512581307111700,7.992111572265625,5.743658218532801,-0.9979419473022222,-0.708232440507412
1733512581317130800,8.002130859375,5.234556603750586,-0.9158253896296024,-1.6069079578936099
1733512581327148800,8.012148681640625,4.626928563764691,-0.5901052427768707,-2.5095026945501564
1733512581337166800,8.022166748046875,4.0992274624526495,-0.3562584929794073,-3.3074598296463487
1733512581347186000,8.03218603515625,3.6760365369290113,-0.4591629871368408,-3.81981197065711
1733512581357203700,8.04220361328125,3.460347667373717,-0.7129542083323002,-3.7884436034470794
1733512581367222800,8.052222900390625,3.5865959199786186,-1.0297019441783428,-3.3118577723443505
1733512581377240800,8.06224072265625,3.586039162878692,-1.3413175778329371,-2.598722069965303
1733512581387259000,8.0722587890625,3.2481121531426904,-1.5661340489566324,-1.650711151523888
1733512581397278000,8.08227783203125,2.765296780000627,-1.7713409797251223,-0.6737586546279489
1733512581407295700,8.092295654296874,2.535540806648135,-1.927716951829195,-0.02196779391914606
1733512581417314800,8.102314697265625,2.75308465642035,-2.0036825856566427,0.20069632147625088
1733512581427332900,8.112332763671875,3.057371554622054,-1.9971832867652177,0.24113676067516207
1733512581437350700,8.1223505859375,3.0780954859599468,-1.9273148007690906,0.06997998354658484
1733512581447369700,8.13236962890625,2.5605527905687686,-1.6803391048073768,-0.1659672456614673
1733512581457388000,8.142387939453124,1.7682710707604885,-1.3513070569276808,-0.5707523075312376
1733512581467405800,8.15240576171875,0.9980401469796896,-1.1342045211821794,-1.1708930605016648
1733512581477425000,8.1624248046875,0.3244938199281692,-1.004661610946059,-1.5228773832932114
1733512581487442700,8.172442626953124,-0.13291910867094991,-1.1074152984559535,-1.7906293253019452
1733512581497461800,8.182461669921874,-0.3758151341035962,-1.339711896201968,-1.8429392121233046
1733512581507479800,8.192479736328124,-0.8375432955533265,-1.561073258435726,-1.8637272947385906
1733512581517497900,8.202497802734374,-1.6254717885881662,-1.7730641502559183,-1.995553493606299
1733512581527517000,8.212516845703124,-2.6335435002386567,-1.8672826491326093,-1.9917386114932596
1733512581537534700,8.22253466796875,-3.3384476731061934,-1.8503005346715449,-1.7728186510622501
1733512581547553800,8.2325537109375,-3.63097077601701,-1.8136282158344983,-1.4610817291155456
1733512581557571800,8.24257177734375,-3.8241964693516493,-1.8193962778419255,-1.0303845926802604
1733512581567589600,8.252589599609376,-4.0004999617189165,-1.9678332736402748,-0.5671064983747899
1733512581577608700,8.262608642578124,-4.104389375260472,-2.3745582175314426,-0.21178075620085
1733512581587626800,8.272626708984374,-3.6159210909232495,-2.821556719622016,0.11267375463023781
1733512581597645800,8.282645751953124,-2.7314029859662052,-3.1403911986142394,0.477638774221763
1733512581607663900,8.292663818359374,-1.713304385820031,-3.2992917207598684,0.43157253103032706
1733512581617681700,8.302681640625,-0.8258423363655805,-3.0581349402099844,-0.2385843727786094
1733512581627700700,8.31270068359375,0.2536585347265005,-2.4737802237838507,-0.8872484797690063
1733512581637719000,8.322718994140626,1.538122298698127,-1.7305647327005862,-0.9791704652063548
1733512581647737900,8.33273779296875,1.6960259187608957,-0.5928805527091026,-0.20129282606467602
1733512581657757000,8.3427568359375,0.2736335473932326,1.3848551062643528,1.9026430085882544
1733512581667774700,8.352774658203124,-1.7555115424305199,3.8484628956019877,4.296560883367062
1733512581677793800,8.362793701171874,-1.4988184623137115,6.07328004899919,5.680169204440713
1733512581687811600,8.3728115234375,0.3852900878049433,7.39694974193871,6.202493288889527
1733512581697830700,8.38283056640625,2.5190882690191265,6.182422560763358,5.6904866003155705
1733512581707848700,8.3928486328125,4.328345430162549,2.9663556511789557,4.005036436104774
1733512581717866800,8.40286669921875,4.895408820047974,-0.15855097805559634,2.7865689928710458
1733512581727885800,8.4128857421875,5.490368517118692,-2.464752283197641,2.4490108164474367
1733512581737903900,8.42290380859375,5.968392856591939,-3.2726784391224384,2.8986437586948273
1733512581747922700,8.432922607421874,5.980031271937489,-2.8062089283645153,3.3644530519783493
1733512581757940700,8.442940673828126,5.6484203134804964,-1.4891612839132546,3.3410531794294713
1733512581767958500,8.45295849609375,5.358082445654273,-0.19401742823421955,3.0270126567155122
1733512581777977600,8.4629775390625,5.013964472323655,0.9390916989266872,2.518723819620907
1733512581787996000,8.472995849609376,4.59869498744905,1.954893712568283,1.8128170455820858
1733512581798014700,8.4830146484375,4.108985470879078,2.6068676747590303,1.2675152595192194
1733512581808032800,8.49303271484375,3.57219505418241,2.9042583837062117,0.8095832024168222
1733512581818050600,8.503050537109376,3.0041081664681433,3.0421260546952484,0.13982552705854176
1733512581828069600,8.513069580078126,2.150232160273194,3.181147571894526,-1.6043122423119842
1733512581838087700,8.523087646484376,0.6814379570841789,3.1309418177455663,-4.247770841234922
1733512581848106500,8.5331064453125,-0.09885719152800738,2.5237977618843317,-6.0390001782566305
1733512581858124800,8.543124755859376,-0.23156649337317795,1.5733867965638637,-5.307335424235463
1733512581868142800,8.553142822265626,-0.5633598957249895,0.8223907346069812,-3.1540093896001578
1733512581878161700,8.56316162109375,-0.880840585488081,0.5292874937206506,-1.4145084862500428
1733512581888179700,8.5731796875,-0.771575324127078,0.38151042313575745,-0.32593521437551826
1733512581898198800,8.58319873046875,-0.47800505025088785,0.06388181280195712,0.5730345367169007
1733512581908216800,8.593216796875,-0.24695465317368506,-0.5321732782900334,1.2138477475438267
1733512581918235000,8.60323486328125,-0.13265724286437033,-1.1888608249992132,1.4190071128435433
1733512581928253700,8.613253662109376,-0.2242436396718025,-1.5989192972272634,1.405762431345135
1733512581938271700,8.623271728515626,-0.4675368477284908,-1.7936089256346224,1.1796809817869216
1733512581948290800,8.633290771484376,-0.7254384268522263,-1.703461037197709,0.9482124323628842
1733512581958308600,8.64330859375,-0.9026993660748004,-1.352093823391199,0.7233030222587287
1733512581968327000,8.653326904296875,-0.9637293696422129,-0.9102782768964767,0.5967426349647342
1733512581978345700,8.663345703125,-1.0139338816821575,-0.5898737721085549,0.4579166403375566
1733512581988363800,8.67336376953125,-1.0382990921318531,-0.3164215726315975,0.16530198668576776
1733512581998382800,8.6833828125,-1.0453939457636325,-0.09957856460511684,-0.20536312597719952
1733512582008400600,8.693400634765625,-1.0641337175469845,0.02048106249272823,-0.4894677437033504
1733512582018418700,8.703418701171875,-1.04698384530358,0.17409283058047292,-0.8662027691308408
1733512582028437500,8.7134375,-1.0187935236077754,0.3986959512144327,-1.3951273478232322
1733512582038455800,8.723455810546875,-1.0983609813194721,0.7471019771277904,-1.9712585719138382
1733512582048475000,8.733474853515625,-1.2798457487821577,1.07114746876657,-2.5341724409043787
1733512582058492700,8.74349267578125,-1.663294446504116,1.127325283062458,-2.9651287397325037
1733512582068510700,8.7535107421875,-2.176960738853365,0.8723767085254192,-3.1464325246050953
1733512582078529800,8.76352978515625,-2.629177121722698,0.38030338543355463,-3.0157600258171557
1733512582088547600,8.773547607421875,-2.9946202071547505,-0.25056349132061,-2.647273919427395
1733512582098566700,8.783566650390625,-3.2752269545614716,-0.7603197706192731,-2.195247944563627
1733512582108584700,8.793584716796875,-3.4374341170370575,-0.8384329378694295,-1.4705343248546123
1733512582118602800,8.803602783203125,-3.5096062038004394,-0.3496872978955507,-0.4325124422289431
1733512582128621800,8.813621826171875,-3.4643186168313025,0.2011030025810003,0.505046713368222
1733512582138639600,8.8236396484375,-3.375963457030058,0.5293348399937152,1.0426147633738816
1733512582148658700,8.83365869140625,-3.281405350935459,0.7456056010901928,1.162188652781397
1733512582158676700,8.8436767578125,-3.228868231229484,0.8647311622083187,1.0446709652513264
1733512582168694800,8.85369482421875,-3.238139040660858,0.8968009556859731,0.8833896854490041
1733512582178713900,8.8637138671875,-3.2507623753905293,0.7531494405984878,0.8104843159750104
1733512582188731600,8.873731689453125,-3.3606945762276648,0.48323242951035494,0.8754683909304439
1733512582198750700,8.883750732421875,-3.5490286981284616,0.12280103476047514,1.1410464960314333
1733512582208768500,8.8937685546875,-3.924869551195204,-0.27500059796273707,1.488119958166778
1733512582218786800,8.903786865234375,-4.525216494262218,-0.7021265248477458,1.8502382830902933
1733512582228806000,8.913805908203125,-5.28365468891859,-0.8921674506664276,2.0845196249127387
1733512582238823700,8.92382373046875,-5.967014553976059,0.018587796092033385,1.9600855821229517
1733512582248842800,8.9338427734375,-6.298357216885686,2.363469837284088,1.330064362412691
1733512582258860800,8.94386083984375,-6.23762480802536,4.724482344543934,0.73648844785057
1733512582268878600,8.953878662109375,-5.978672258543968,6.239193664777279,0.6382428854148835
1733512582278897700,8.963897705078125,-5.768924761736392,6.449987455767393,1.3020450133696198
1733512582288915700,8.973915771484375,-5.772766239595413,5.243327939227223,2.6334058453336358
1733512582298934800,8.983934814453125,-5.774477719688416,3.67622475297749,4.254770198602974
1733512582308952800,8.993952880859375,-5.644856483519077,3.0384464893996714,5.712562238523364
1733512582318970600,9.003970703125,-5.214987395405769,2.965606878638267,6.850634541049599
1733512582328989700,9.01398974609375,-4.216509441530704,2.8548347198456523,7.394224700888991
1733512582339007700,9.0240078125,-2.622187408965826,2.771357395213842,7.292775666236877
1733512582349026600,9.034026611328125,-0.8849497743725776,2.7004455376446246,6.636618280881643
1733512582359044900,9.044044921875,1.0265559743028134,2.488538816976547,5.752263549792766
1733512582369062700,9.054062744140625,3.003157733875513,1.9856950935453175,4.912341250148415
1733512582379081700,9.064081787109375,4.770223520499467,1.3889362380981445,4.29874524166882
1733512582389099800,9.074099853515625,6.269452024918794,1.0973147602021693,3.840312030111253
1733512582399118600,9.08411865234375,7.708375990501046,1.0022925437271595,3.2114474330902096
1733512582409137000,9.094136962890625,8.668719736292958,1.162042376178503,2.4828292071580886
1733512582419154700,9.10415478515625,8.529815123471618,1.167370877724886,2.1070067665308714
1733512582429173800,9.114173828125,7.827827130311727,0.8768769425541162,1.44453099180907
1733512582439191800,9.12419189453125,6.969180256453156,1.0498965909451246,0.42093233294188975
1733512582449210600,9.134210693359375,5.793837669196725,1.278720544144511,-0.567867253614217
1733512582459228700,9.144228759765625,4.477995308881998,1.1466811409175395,-1.6669010926939547
1733512582469246700,9.154246826171875,2.9340917964339255,0.8957821340322494,-3.0163474703162905
1733512582479265800,9.164265869140625,-0.38006796924248337,0.7388841838806867,-4.256942281945049
1733512582489283800,9.174283935546875,-5.1734454247057435,0.4007540527880192,-4.763141453284025
1733512582499302700,9.184302734375,-5.083536021199822,0.210592715460062,-3.340593452963233
1733512582509320700,9.19432080078125,-1.8425689175061881,0.02010287683010101,-2.6461867087125777
1733512582519338500,9.20433837890625,0.7092208670228719,0.08655892403423786,-2.846685607920587
1733512582529357600,9.214357666015625,3.197288559356332,0.12185410929918289,-2.797467695765197
1733512582539375900,9.2243759765625,4.852385086357593,-0.04885083240866661,-2.299729040388018
1733512582549394700,9.234394775390625,5.442068888852,-0.3509071950793266,-1.6786187107555568
1733512582559412700,9.244412841796875,5.325135284820199,-0.6864858881235122,-1.0557292426213623
1733512582569430800,9.2544306640625,4.83000169737488,-1.0655401502788067,-0.5068634804666042
1733512582579449600,9.26444970703125,4.4543926072373985,-1.5980758321404456,-0.20297668749839065
1733512582589467600,9.274467529296874,4.455850697091222,-2.1015666213035584,0.027412761452049017
1733512582599486700,9.28448681640625,4.194150894728303,-2.7652748604297637,0.08081585033759474
1733512582609504800,9.2945048828125,3.840442378492653,-3.1369676539063454,0.19627412111982703
1733512582619522800,9.304522705078124,3.304354264846444,-3.4111282939136025,0.04762260578796267
1733512582629541600,9.314541748046874,2.5717306026652453,-3.532013850441575,-0.2645017080411315
1733512582639559700,9.3245595703125,2.0344681845426558,-3.2053380102992057,-0.3981131828904152
1733512582649578800,9.334578857421874,1.4348390343561768,-3.0902941655367613,-0.5440503246970474
1733512582659596800,9.3445966796875,0.6507476352661847,-3.0767332576960325,-0.8216258877143263
1733512582669614800,9.35461474609375,0.013083937978744506,-2.619087689384818,-0.5563046799838542
1733512582679634000,9.364634033203124,-0.5501560942262411,-2.2494833926200863,0.026317805822193622
1733512582689651700,9.374651611328124,-1.0656342583030463,-2.1818173851042983,0.5994456103131175
1733512582699670800,9.3846708984375,-1.403165254458785,-2.251259754642844,1.1523401895925403
1733512582709688800,9.394688720703124,-1.5658052553936839,-2.351673601028323,1.5609543082311748
1733512582719707000,9.404706787109374,-1.7834633791953325,-2.460330375102162,1.6613389285221696
1733512582729726000,9.414725830078124,-2.248745725995302,-2.4948475617319343,1.4527739194974303
1733512582739743700,9.42474365234375,-3.4107664748638866,-2.1876754634827376,1.0506804347991943
1733512582749762800,9.4347626953125,-5.002063606649637,-1.5674159054607153,0.4292645463488996
1733512582759780900,9.44478076171875,-6.14058832911849,-0.9869482596009969,-0.05479731972292065
1733512582769798700,9.454798583984376,-6.4775651985228055,-0.7683762358248233,0.23355112785175441
1733512582779817700,9.464817626953124,-5.998029285442829,-1.1681798560202121,0.9447793891742825
1733512582789835800,9.474835693359376,-5.469495240437984,-1.966522191041708,1.5416737075693905
1733512582799854800,9.484854736328124,-6.296385040029883,-2.6313439443677664,1.9594110438622534
1733512582809873000,9.494872802734376,-4.6330885476991535,-3.4402585268080235,1.9158141864590346
1733512582819890700,9.504890625,-1.3981851279586552,-3.4011469981253146,1.4735947353385388
1733512582829909800,9.51490966796875,0.8385816986903548,-1.8706652773082255,0.891251943256706
1733512582839927800,9.524927734375,3.533014551916718,0.7475725172489881,0.46701077802777285
1733512582849946600,9.534946533203126,3.040624125699699,4.512690774688124,0.818581113190949
1733512582859965000,9.54496484375,0.4741869532674551,8.758322265806793,1.0803349838286638
1733512582869982700,9.554982666015626,1.3754945727229118,11.27951890528202,0.7152044714771211
1733512582880001800,9.565001708984376,4.506598887553811,10.00961470479965,0.23768238243758677
1733512582890019800,9.575019775390626,5.975215396088362,4.686017297071218,-0.29116467403918506
1733512582900038700,9.58503857421875,7.160539279133081,-0.33622517425417897,-0.3918720965437591
1733512582910056700,9.595056640625,8.14692581319809,-3.2836475769042965,-0.3174943164296448
1733512582920074800,9.60507470703125,8.450422437804937,-4.719238014149665,0.028281799371540545
1733512582930093800,9.61509375,8.418700434851646,-4.880490652379393,0.7759336654670536
1733512582940112000,9.62511181640625,8.30977536523044,-3.834215759062767,1.6851071959920227
1733512582950130700,9.635130615234376,7.79859694417417,-2.2654291497707364,2.204097605973482
1733512582960148700,9.645148681640626,7.379356802102923,-0.5247258848935366,2.306041876796633
1733512582970167000,9.6551669921875,6.930582522511481,1.0944880123436451,2.24957954647094
1733512582980185900,9.665185791015626,5.976026127949357,2.3317098404079672,2.223742217642069
1733512582990204000,9.675203857421875,4.583809553006291,2.764763403776288,1.9281424837648868
1733512583000223000,9.685222900390626,3.3257880980193613,2.679059050744772,1.2675880324944853
1733512583010240800,9.69524072265625,2.3169738974384964,2.2036229741990563,0.6228954594835638
1733512583020258800,9.7052587890625,1.5295814109764991,1.823244769963622,-0.08660933904722333
1733512583030277600,9.715277587890625,1.1074597221195697,2.1058020669162274,-1.231597850702703
1733512583040296000,9.7252958984375,0.40151407737508416,2.412621698465943,-2.3211503063403067
1733512583050315000,9.73531494140625,-0.9807441442638635,2.5805793872922655,-3.9481946049422025
1733512583060332800,9.745332763671875,-2.7831232363313436,2.1366052014589307,-5.199895040214061
1733512583070350800,9.755350830078125,-3.513208612206578,1.248105041128397,-4.240474546746909
1733512583080369700,9.76536962890625,-2.4699463447093963,0.6570505348026752,-2.4848323636740446
1733512583090387700,9.7753876953125,-1.9407237329185008,0.4877314944952726,-1.4755783103711901
1733512583100406800,9.78540673828125,-1.6096879440009593,0.9306032720446586,-1.1158839977242052
1733512583110424800,9.7954248046875,-1.2321674672842025,1.1698241160959004,-1.017097606410086
1733512583120443000,9.80544287109375,-0.8888976352155208,1.1818828026801347,-0.8919389026075601
1733512583130461700,9.815461669921875,-0.6351835709095001,0.919196327367425,-0.6641228112764657
1733512583140479700,9.825479736328125,-0.5232242846915498,0.3645885144293308,-0.6765371794305741
1733512583150498800,9.835498779296875,-0.5496096027920022,-0.30482056668698787,-0.8132055576324463
1733512583160516900,9.845516845703125,-0.6726970167458057,-0.8330243568241595,-0.7769589168615639
1733512583170535000,9.855534912109375,-0.794533590388298,-1.2144593766361473,-0.6712383423700928
1733512583180554000,9.865553955078125,-0.8978046528358012,-1.3878595487773417,-0.5313083320237696
1733512583190571800,9.87557177734375,-1.0303927759867162,-1.3564993648737669,-0.42280119555369017
1733512583200590800,9.8855908203125,-1.1845138818360865,-1.1569541131287813,-0.40384193580076094
1733512583210608600,9.895608642578125,-1.4024667508006095,-0.8600047182083129,-0.33371012269333
1733512583220627000,9.905626953125,-1.6016612894117832,-0.4824725510537624,-0.23485592684000728
1733512583230646000,9.91564599609375,-1.8056055067680774,-0.19757775106430053,-0.12267901581600307
1733512583240663800,9.925663818359375,-1.971394619383663,-0.11799451126158236,0.03612959026247263
1733512583250683000,9.935682861328125,-2.1907915496766566,-0.12744681473970412,0.1883915511764586
1733512583260700700,9.94570068359375,-2.446392450642586,-0.13723521830439567,0.2582449857339263
1733512583270718700,9.95571875,-2.710575301992893,-0.09219137696325778,0.2889420295536518
1733512583280737800,9.96573779296875,-2.9314859978497028,0.09175999980866908,0.3026512598238885
1733512583290755800,9.975755859375,-3.1360967162907123,0.31762568772435185,0.33021015174835916
1733512583300775000,9.98577490234375,-3.250639625793695,0.5824357310622931,0.3027531127631664
1733512583310793000,9.99579296875,-3.267236248068511,0.7487012290179729,0.16889058576226235
1733512583320810800,10.005810791015625,-3.2756714834585785,0.7747767505168914,0.03518719484582543
1733512583330829800,10.015829833984375,-3.371199603629112,0.7549561977595091,-0.08350991172716021
1733512583340847600,10.02584765625,-3.763660752107203,0.7321440619707107,-0.16778291678130625
1733512583350866700,10.03586669921875,-4.368230281305313,0.7994616944402456,-0.4972663616903126
1733512583360885000,10.045885009765625,-5.1090661837756635,1.1537696378737687,-1.2044231357902289
1733512583370902800,10.05590283203125,-5.7974657965660095,1.493687236905098,-2.0578104816854
1733512583380921900,10.065921875,-6.088124566909671,1.4912486115813255,-2.8092186315745113
1733512583390939600,10.075939697265625,-5.894486493381858,1.4154215094417333,-3.151556443490088
1733512583400958700,10.085958740234375,-5.322942158690094,1.575648311755061,-2.883595534905791
1733512583410976800,10.095976806640625,-4.811356325876712,1.7630974675148725,-2.249204137287289
1733512583420994800,10.105994873046875,-4.629592522276938,1.7070149302870035,-1.5790531517624855
1733512583431014000,10.116013916015625,-4.628547689399123,1.5279589243412017,-0.9120873721450566
1733512583441031700,10.12603173828125,-4.681446335893869,1.2543196778595447,-0.25447394276261326
1733512583451050800,10.13605078125,-4.704682250052691,1.7745231168925761,0.630998686440289
1733512583461068800,10.14606884765625,-5.0132817507565015,3.4965795489668845,0.9188546743229031
1733512583471087600,10.156087646484375,-6.856788972026109,5.991831599846482,0.11579553991258144
1733512583481106000,10.16610595703125,-14.408312605082989,8.069780614197255,-1.0806837972663341
1733512583491124000,10.1761240234375,-18.683738345962762,8.150383844697474,0.017390403001010416
1733512583501142800,10.186142822265625,-14.015544290351867,6.527830573904514,0.03913315599262714
1733512583511160800,10.196160888671875,-8.209636828655004,4.877582655978203,-0.5004398771598935
1733512583521178600,10.2061787109375,-3.252020266497135,3.315522140070796,0.6344931044273078
1733512583531197700,10.21619775390625,-0.21852584654688834,2.276460246872902,1.5713273798160254
1733512583541216000,10.226216064453125,1.9379028302788732,2.176333985257149,1.632827704308927
1733512583551234800,10.23623486328125,3.9154678088605404,2.47027543053329,1.071547427869588
1733512583561252900,10.2462529296875,5.59796496848464,2.5382459739536047,-0.32111616018861533
1733512583571272000,10.25627197265625,6.68586015843451,2.444392216736078,-2.036617909922451
1733512583581289700,10.266289794921875,7.21130734333992,2.738899479201436,-3.5433442227512595
1733512583591307800,10.276307861328124,8.606040285018086,3.4443425812512634,-5.464684625285863
1733512583601326600,10.28632666015625,9.882093071258067,4.388225606107712,-7.178894435513019
1733512583611345000,10.296344970703124,9.917966348671913,4.814737200486659,-8.427303428024054
1733512583621364000,10.306364013671875,7.602521414366364,4.361723968151211,-7.972585729858279
1733512583631381800,10.3163818359375,4.540286637622118,3.2605537015646693,-7.215845571291446
1733512583641399800,10.32639990234375,1.8341975411325693,2.3971505730897187,-7.1960431387126444
1733512583651419000,10.3364189453125,-0.691201956859976,2.3420213910639283,-5.93849631550014
1733512583661436400,10.3464365234375,-1.8660336719848214,2.7224241452187297,-4.152863775572181
1733512583671455500,10.35645556640625,-1.7365512597642838,2.908881367331743,-3.1005232986062765
1733512583681473300,10.366473388671874,-0.38786943677365776,2.616511701416969,-3.1970372149437662
1733512583691491300,10.3764912109375,2.1546933774657546,1.9038333874166011,-3.830052501903474
1733512583701510400,10.386510498046874,5.075687645787,0.9461077151685953,-3.6313276266306636
1733512583711528200,10.396528076171874,7.570700627213716,-0.1422135912388563,-2.9895734451591967
1733512583721547300,10.40654736328125,8.564675424450636,-0.9545862051784991,-2.2091486057527363
1733512583731565300,10.4165654296875,8.09677383506298,-1.4517220723569393,-1.4389260114088653
1733512583741583400,10.426583251953126,6.90484836179614,-1.6126421176314354,-0.9524168983153999
1733512583751602400,10.4366025390625,5.592880797088146,-1.2315788537412882,-0.48297991605401036
1733512583761620200,10.4466201171875,4.857874623684585,-0.7434563141018152,-0.019645196190476416
1733512583771639300,10.456639404296874,4.742391218461096,-0.5101666136652231,0.5595546216905116
1733512583781657300,10.4666572265625,4.670628589281439,-0.37421558995246884,0.9468376368783413
1733512583791675400,10.47667529296875,4.598986663872004,-0.5379185439437627,0.9094125999778508
1733512583801694500,10.486694580078124,4.6084828064918515,-0.9422709134846925,0.6776445561505854
1733512583811712300,10.496712158203126,4.8371778726145624,-1.3461439750760793,0.20576251882463692
1733512583821731300,10.5067314453125,5.093924144223332,-1.6185937195122242,-0.050942836251854896
1733512583831749400,10.516749267578126,5.232559292453527,-1.7517185798883437,0.2103435630045831
1733512583841767400,10.526767333984376,5.20444846573472,-1.8943992041170596,0.9465238947540521
1733512583851786500,10.536786376953126,4.966539873325824,-2.1013608695983885,2.037033504986018
1733512583861804300,10.54680419921875,4.623813354353606,-2.3738287342131135,3.1885119631826875
1733512583871823400,10.5568232421875,4.269618223644793,-2.6280086624652146,4.121627510309219
1733512583881841400,10.56684130859375,3.9302413073614235,-2.82343245036602,4.519565336632728
1733512583891859200,10.576859130859376,3.558108076640963,-2.9302240150898693,4.4119709310933946
1733512583901878300,10.586878173828126,3.0754969938993453,-3.0440134758770463,3.8370623806655404
1733512583911896600,10.596896484375,2.5049276417195796,-3.1318788063347336,3.2103926633402704
1733512583921915400,10.606915283203126,2.017855780176818,-3.0799446209579706,2.630135153099894
1733512583931933400,10.616933349609376,1.6383169493749736,-2.85922214114964,2.1584990533590314
1733512583941951200,10.626951171875,1.1140303326815366,-2.4089520700424907,1.757389319001138
1733512583951970300,10.63697021484375,0.329432737635076,-1.86862412686944,1.3720659134484827
1733512583961988400,10.64698828125,-0.7801993600875139,-1.158287992081046,1.0600912372231484
1733512583972007200,10.657007080078126,-2.113787220451236,-0.47898938511312006,0.8683367854848504
1733512583982025500,10.667025390625,-3.4966721956863998,-0.04732815288603306,0.8824741780392825
1733512583992043300,10.677043212890625,-4.550425754320621,0.022428689429163932,1.2011856151737272
1733512584002062300,10.687062255859376,-4.728023378151655,-0.2180260803312063,0.8137531085126102
1733512584012080400,10.697080322265625,-4.677481523916125,-0.5273655857473611,-0.3111024234354496
1733512584022099200,10.70709912109375,-4.7022228742018335,-0.7608692211955785,-1.7534205615006386
1733512584032117200,10.7171171875,-5.787333694130182,-0.603241787725687,-2.7826752003028985
1733512584042135300,10.72713525390625,-7.578436774423718,-0.14869652351737023,-2.6878251255244017
1733512584052154400,10.737154296875,-5.457422525328397,0.4786819265991449,-2.2292060360059143
1733512584062172400,10.74717236328125,-4.0751048285871745,2.9934026480585336,-1.338563310688734
1733512584072191200,10.757191162109375,-4.109763177253305,7.4218544660925865,1.1584010970667005
1733512584082209300,10.767209228515625,1.7198793802961707,10.427407570672035,3.4140473962306976
1733512584092227600,10.7772275390625,7.130000348484516,9.73368880868554,3.220581756660342
1733512584102246400,10.787246337890625,8.211344217094778,7.604330509614944,3.1800469171762464
1733512584112264400,10.797264404296875,7.468811447578668,3.230270791503787,2.464342241092026
1733512584122283500,10.807283447265625,6.825740922811627,-2.3789029687374827,0.7685215625796467
1733512584132301300,10.81730126953125,6.523887973758578,-6.824443868738412,-0.16978037420883774
1733512584142319400,10.8273193359375,6.672585081797838,-8.874189701911806,0.04791610884182155
1733512584152338200,10.837338134765625,7.773730213943123,-8.957870440161228,1.9506611895650625
1733512584162356500,10.8473564453125,8.575700091812013,-7.342034494924545,4.586458021688461
1733512584172375600,10.85737548828125,7.911276982414722,-4.910886375164985,6.038933542761206
1733512584182393300,10.867393310546875,6.528176026341319,-2.2411890270054338,6.163543088248372
1733512584192412400,10.877412353515625,5.460749039402604,0.06784253312647343,5.150446826434135
1733512584202430200,10.88743017578125,4.3055297872424125,1.8068150286883116,3.7726989218264815
1733512584212448300,10.8974482421875,3.255979233255982,3.752192140370607,2.1264215149663386
1733512584222467300,10.90746728515625,2.5069196923196313,5.601757931026816,0.45114619635455305
1733512584232485400,10.9174853515625,2.5922885297864675,6.218858148235082,-0.8479443511236459
1733512584242504400,10.92750439453125,2.810938879495859,5.568462395146489,-1.0437556039720772
1733512584252522500,10.9375224609375,3.104771019178629,4.847951487824321,-1.4985283933259546
1733512584262540300,10.947540283203125,3.502789509522915,3.8757033692270517,-2.4314129081755875
1733512584272559400,10.957559326171875,3.68195072940886,2.840805025449395,-4.069884171329439
1733512584282577200,10.9675771484375,3.2978561349987983,1.8631173461467025,-6.389153924620151
1733512584292596200,10.97759619140625,2.1262135713040826,0.8435930971115827,-7.546196300554275
1733512584302614500,10.987614501953125,-0.8406091128647327,-0.761879275020957,-6.663624361228942
1733512584312632300,10.99763232421875,-3.157705321508646,-1.204844576072693,-4.686467963448167
1733512584322651400,11.0076513671875,-3.515613919782638,-0.36220249607563015,-2.8240657798334956
1733512584332669200,11.017669189453125,-3.400415176719427,0.27253800724148747,-1.6211325903400777
1733512584342688300,11.027688232421875,-3.189001792526245,0.8422773383378982,-0.778441921960935
1733512584352706600,11.03770654296875,-2.776760715562105,1.0972545544475316,-0.20794716938734054
1733512584362724400,11.047724365234375,-2.4846295345783234,0.934692587184906,0.12640329703614114
1733512584372743400,11.057743408203125,-2.2723802840828893,0.6749556093275547,0.5243215418763458
1733512584382761200,11.06776123046875,-2.2659704170405863,0.2901414684712887,0.7248858344707637
1733512584392780300,11.0777802734375,-2.4413012649834154,-0.11982990999519824,0.6287550722319633
1733512584402798300,11.08779833984375,-2.69752643532753,-0.4004822501093149,0.3025768063481897
1733512584412816400,11.09781640625,-2.9553789146125315,-0.6025467911988497,-0.07535802332311868
1733512584422835500,11.10783544921875,-3.165763540279865,-0.5434206484913826,-0.3209921684827655
1733512584432853500,11.117853515625,-3.2240906415641306,-0.6619733781576156,-0.27978308299891647
1733512584442872300,11.127872314453125,-3.2547052677974104,-1.2500590978056192,-0.32865101267285646
1733512584452890400,11.137890380859375,-3.2799495991691945,-1.8692986651301382,-0.3798549840789288
1733512584462908200,11.147908203125,-3.136317373304069,-1.9183342064559459,0.21202486715503036
1733512584472927200,11.15792724609375,-2.8105297141730783,-1.4218974274575709,1.0691024458702654
1733512584482945500,11.167945556640625,-2.236085858647525,-0.8032125714063644,1.665176314727962
1733512584492964400,11.17796435546875,-1.337761054395139,-0.1310159053981304,1.9211330433942377
1733512584502982400,11.187982421875,-0.22857713883146644,0.34734219607412814,1.6372640793211757
1733512584513000200,11.198000244140625,0.8495464525580406,0.5032949743300676,0.9700606184903532
1733512584523019300,11.208019287109375,1.4597370365083218,0.4708984331160784,0.2585344701997936
1733512584533037300,11.218037353515625,1.3217699967980383,0.4498082988142967,-0.2548088007401675
1733512584543056100,11.22805615234375,0.4572168215051293,0.653444034743309,-0.504521958841756
1733512584553074400,11.238074462890625,-0.6897577494010328,1.1920569906920193,-0.7254348466556518
1733512584563092200,11.24809228515625,-1.7514780491307376,2.3814812947928905,-1.2125117496997118
1733512584573111300,11.258111328125,-2.6338801848471163,3.8931723904222246,-1.7853297575891016
1733512584583129300,11.26812939453125,-3.342943523220718,5.112739319330454,-2.3793255780637264
1733512584593148200,11.278148193359375,-3.9786870661005374,5.680877060449123,-3.175094555465877
1733512584603166500,11.28816650390625,-4.814759120057523,5.390977584040165,-4.05994876050949
1733512584613185300,11.298185302734375,-5.993500409841537,4.412777279040217,-4.2887423185706135
1733512584623203300,11.308203369140625,-7.5715049293339245,2.993060118231177,-3.3006498573705554
1733512584633221400,11.318221435546874,-10.565424879264832,1.9036404951930046,-1.0064895570255816
1733512584643240400,11.328240478515625,-17.042755099987982,1.9036165297955274,2.6032228885158895
1733512584653258200,11.33825830078125,-27.362332410538194,2.861957703593373,6.432679762613773
1733512584663277800,11.34827783203125,-27.470370760452745,4.095811516529322,6.344553150871396
1733512584673295600,11.358295654296874,-21.45448550032377,5.127355873703956,5.383852846726775
1733512584683314000,11.36831396484375,-15.071809247285127,5.736563291835784,4.666378822882473
1733512584693333000,11.3783330078125,-9.049543346208333,6.116276310160756,3.63096171592772
1733512584703350800,11.388350830078124,-4.47294708558172,6.293308701324462,1.6740644084520637
1733512584713369900,11.398369873046875,-1.3387313607320188,6.24181992162764,-0.6965487247154116
1733512584723387600,11.4083876953125,1.031234560573101,5.932468141251802,-2.3124650417119264
1733512584733406000,11.418406005859374,2.8919968680262564,5.607130856236815,-3.659982643228769
1733512584743424800,11.4284248046875,4.2474540303707125,5.053309809762239,-4.806849662107229
1733512584753442800,11.43844287109375,5.4102235517799855,4.833236733773351,-4.9750382370799775
1733512584763462000,11.4484619140625,6.636794806492328,5.509421008113026,-4.340454385629296
1733512584773479700,11.458479736328124,8.435952013903856,7.0229948487490415,-3.4977839563205837
1733512584783497700,11.468497802734374,9.735131408709288,8.409371465492248,-1.800355477285385
1733512584793516800,11.478516845703124,10.231831222558021,8.539575469985603,-0.02844634228348732
1733512584803534800,11.488534912109374,10.698525189721584,7.344111885720491,0.944781288870424
1733512584813554000,11.498553955078124,9.711097037649154,5.630361509698629,1.8683995243333278
1733512584823572000,11.508572021484374,7.660667898386716,3.864872763133049,1.9384040577992796
1733512584833589800,11.51858984375,6.629513417312502,1.5534031621992588,1.3034268231168389
1733512584843608800,11.52860888671875,5.298041526189446,0.8881880256414413,-0.1726559296451509
1733512584853626600,11.538626708984374,3.4463270330667495,0.5959837794214486,-1.0224332683496176
1733512584863645700,11.548645751953124,-2.5030010575711725,0.04074526736438274,-2.881374643985927
1733512584873664000,11.5586640625,-8.295629935500026,0.4311199649572372,-3.0690073396191
1733512584883681800,11.568681884765626,-1.9920126061290502,1.013802364256978,-1.9831934859879314
1733512584893700900,11.578700927734374,2.0823738450556992,0.5642120921075344,-2.0330917816229164
1733512584903718700,11.58871875,4.954198278146982,-0.22929975401759145,-2.470422145527601
1733512584913737700,11.59873779296875,7.361543497514725,-1.2476818472802638,-2.4238217223942278
1733512584923755800,11.608755859375,9.094395464369654,-2.3940946926504374,-2.067831963353604
1733512584933774600,11.618774658203124,10.21568438987732,-3.347827495869994,-2.123676454041898
1733512584943793000,11.62879296875,10.591869818598031,-3.985430402880907,-2.0111644658446313
1733512584953810700,11.638810791015626,10.060353542912006,-4.117511307162046,-1.6025769429519772
1733512584963829800,11.648829833984376,9.050254124826193,-3.9390550206750627,-1.0549807623416185
1733512584973847800,11.658847900390626,8.048763545131683,-3.6899697852134703,-0.41453517925068734
1733512584983866600,11.66886669921875,7.430155261448025,-3.518171787571907,0.12648308427408336
1733512584993885000,11.678885009765626,7.229505847853422,-3.4201275929272175,0.5705100232079625
1733512585003903000,11.688903076171876,7.268758830833435,-3.206675980904698,0.8256326391376555
1733512585013921800,11.698921875,7.1594982456475496,-3.1728017683535814,0.8362376197822391
1733512585023939800,11.70893994140625,6.486576772496104,-3.345096609601378,0.5119961671799421
1733512585033959000,11.718958984375,5.445192573830485,-3.379101755055785,0.35746041611507534
1733512585043976700,11.728976806640626,4.393574858181179,-3.175132257127762,0.43208954064175487
1733512585053995000,11.7389951171875,3.4803275023460385,-2.8362779034137726,0.6227618962317705
1733512585064013800,11.749013916015626,2.6965999681323765,-2.5080028113812207,0.533201452293992
1733512585074031900,11.759031982421876,1.60788673979789,-2.1745009246110913,0.6477876164168119
1733512585084051000,11.769051025390626,0.17088965062499045,-1.9039298335283994,0.7595014399737119
1733512585094068700,11.77906884765625,-1.2239105110704898,-1.6070856525480746,0.5617138455510139
1733512585104086800,11.789086669921875,-3.0070372056573627,-1.0730804826557636,0.2016078833632171
1733512585114105600,11.799105712890626,-6.345494815635681,0.18476093958914278,0.368617477684468
1733512585124124000,11.8091240234375,-10.419728122085333,1.8934189609080552,1.2271671747788786
1733512585134143000,11.81914306640625,-12.58315820210576,3.1921599642962217,2.371184795575589
1733512585144160800,11.829160888671876,-11.237304734408855,2.9948849955707786,3.489759932079911
1733512585154178800,11.8391787109375,-8.161782021546363,1.559327876073122,3.9724955179840324
1733512585164198000,11.849197998046876,-5.645343974775075,0.21191081232130526,3.6448002716660497
1733512585174215700,11.859215576171875,-3.988005806326866,-0.8918798658967018,2.468648706114292
1733512585184234800,11.86923486328125,-2.433520986370742,-1.926232266229391,0.8118779622904956
1733512585194252800,11.879252685546875,-2.0748376043319703,-2.4012299513578412,-0.4053118622228503
1733512585204270800,11.889270751953125,-1.8442226760625837,-2.725231019333005,-1.0519009165048598
1733512585214290000,11.8992900390625,1.6062983015626668,-3.2491578628033397,-2.472439915090799
1733512585224307700,11.9093076171875,6.018979719012975,-3.2847254352688786,-3.29052272337079
1733512585234326800,11.919326904296875,9.976312154656648,-3.3848931979387995,-3.0636160019695757
1733512585244344800,11.9293447265625,11.94646188854575,-2.699658186659217,-2.107566153979301
1733512585254363000,11.93936279296875,9.430352927598356,-0.032194296640157695,-1.0069120202213526
1733512585264382000,11.9493818359375,-2.898346237052977,6.657626582118868,-1.4291994210340082
1733512585274399700,11.959399658203125,-10.281153179609776,15.685794547343253,-1.0398328775703907
1733512585284418800,11.969418701171875,0.15639000062942504,16.813015785509347,4.463250744214654
1733512585294436600,11.9794365234375,5.332055439472198,9.956734178483485,5.938844690546393
1733512585304455700,11.98945556640625,5.990653788238763,2.4609242493420838,3.5264471562251445
1733512585314474000,11.999473876953125,6.163140352666377,-3.6061154439628123,1.679561106172204
1733512585324491800,12.00949169921875,6.686279260629415,-6.814584153503179,2.0345256138183174
1733512585334510800,12.0195107421875,7.361596104484796,-7.511711847150325,3.9837668535828588
1733512585344529000,12.02952880859375,7.786246581166982,-6.467284627526998,5.563661716866493
1733512585354547700,12.039547607421875,7.679266800394654,-4.466722219717503,5.834027640765905
1733512585364565800,12.049565673828125,7.148333293032646,-2.3782190781265498,5.681285641250014
1733512585374583800,12.059583740234375,6.363522055235505,-0.8200906409710645,4.8975496314689515
1733512585384603000,12.069602783203125,5.832693177291751,0.3658616031050682,3.332103857037425
1733512585394621000,12.079620849609375,5.364784573641419,1.745281824839115,1.7499115304663777
1733512585404639700,12.0896396484375,4.530664238274097,3.354970353361964,0.36131358441188927
1733512585414657800,12.09965771484375,3.567328909450769,4.6714293842703105,-0.34066227991878983
1733512585424675600,12.109675537109375,2.9468133308410644,5.505781774827837,-0.8968407031744718
1733512585434694700,12.119694580078125,2.312951802315563,6.025954234200715,-1.6061644460499285
1733512585444713000,12.129712890625,2.010032831466198,5.533942285907268,-3.5711019982486962
1733512585454731800,12.139731689453125,2.115427973395586,4.24230965321958,-5.611704740023613
1733512585464749800,12.149749755859375,1.2490870379030703,2.3893027821987864,-5.659989755243062
1733512585474768000,12.159767822265625,0.09367429073108359,0.2535112352102995,-5.172472195759416
1733512585484786700,12.16978662109375,-1.9790426499187945,-1.516956468811631,-5.074971021950245
1733512585494804700,12.1798046875,-3.38037893538475,-1.5663602589279413,-4.574427976676821
1733512585504823800,12.18982373046875,-3.7298283328711985,-0.5404974545210599,-3.8039205740422006
1733512585514841900,12.199841796875,-3.7436183732926844,0.3517354625970125,-3.1693975128680467
1733512585524860000,12.20985986328125,-3.6276352018535136,0.5517512544631957,-2.5015239707559345
1733512585534878700,12.219878662109375,-3.4198248105883597,0.3159323278099298,-2.0298679972708222
1733512585544896800,12.229896728515625,-3.2250691312074657,-0.10960369953513145,-1.8829884600475428
1733512585554915800,12.239915771484375,-3.081013711494207,-0.4897603699743747,-1.5558613690063356
1733512585564934000,12.249933837890625,-2.9993747082054614,-0.6245692379146814,-1.012440720514953
1733512585574952000,12.259951904296875,-3.0529449703514575,-0.4693541262835264,-0.5329135752633214
1733512585584970800,12.269970703125,-3.1215432902812954,-0.2811953609496355,-0.3250175515413284
1733512585594988800,12.27998876953125,-3.0695418848872182,-0.21142390558719634,-0.33463235210478304
1733512585605008000,12.2900078125,-2.956505872815847,-0.4209937077403068,-0.37646015400886534
1733512585615025700,12.300025634765625,-2.811587698793411,-0.7281289811104535,-0.23556875128448007
1733512585625044700,12.310044677734375,-2.6310242108941075,-0.8758020067989826,0.19460531112477183
1733512585635062800,12.320062744140625,-2.4136413969025012,-0.8255395540267229,0.7332919168315828
1733512585645080800,12.330080810546875,-2.077959828005731,-0.6521966650307178,1.0312341221816836
1733512585655100000,12.340099853515625,-1.6225953563690185,-0.3432704165905714,1.2844281081363558
1733512585665117400,12.350117431640625,-1.1020680922091006,0.17971359307169912,1.4425006550252437
1733512585675136500,12.360136474609375,-0.6779188430473208,0.7992869223952292,1.3590398431368171
1733512585685154600,12.370154541015625,-0.408353275745362,1.306953535938263,0.9717759710408747
1733512585695172600,12.380172607421875,-0.4459419787749648,1.4498714760541915,0.45783217692449685
1733512585705191700,12.390191650390625,-0.8107976197078823,1.304400344324112,0.087174133323133
1733512585715209500,12.40020947265625,-1.4127590122342109,1.265104106724262,-0.16234642481580375
1733512585725228500,12.410228515625,-2.1588947746783496,1.9136346504628656,-0.6260492473393678
1733512585735246600,12.42024658203125,-2.9304850041136143,3.0210195537805555,-1.3564476346865295
1733512585745264600,12.4302646484375,-3.7223347622454166,3.9550983929812906,-2.218815136503428
1733512585755283700,12.44028369140625,-4.4409363288149235,4.2984915591686965,-3.24428996450603
1733512585765301500,12.450301513671874,-5.147382762688398,4.146553277251124,-4.3290754980027675
1733512585775320600,12.460320556640625,-5.806380924427509,3.607414251601696,-4.940677702316641
1733512585785338600,12.470338623046874,-6.522241375595331,2.9458932933866975,-4.579055051955581
1733512585795356400,12.4803564453125,-7.802222733455896,2.271361462429166,-3.2719580158933996
1733512585805375500,12.49037548828125,-10.559351696830987,2.0568249777793883,-0.7275479663521051
1733512585815393500,12.5003935546875,-15.814788007003068,2.447984103748202,2.7938322618722915
1733512585825412600,12.51041259765625,-22.37945631943941,3.4423522842168808,5.346382070988416
1733512585835430700,12.5204306640625,-20.69143659700155,4.599173710876703,4.845166533280909
1733512585845449500,12.530449462890624,-17.172241896122692,5.917892503410577,3.455766184802353
1733512585855467500,12.540467529296874,-13.853411946678161,8.138107131448388,2.310501924945414
1733512585865485600,12.550485595703124,-9.657724343901872,9.164216604092717,0.6989115083239972
1733512585875504400,12.56050439453125,-5.425508799195289,7.904552058073878,-0.8001116827815771
1733512585885522700,12.570522705078124,-2.0309812192097305,5.668344326612353,-1.6859462771646678
1733512585895541800,12.580541748046874,0.48047582427859303,3.8173411966294046,-2.283430670407414
1733512585905559600,12.5905595703125,2.4817466726183888,3.195201231688261,-3.1614114825502035
1733512585915577600,12.60057763671875,4.454686914008856,3.481663719385862,-3.9490816169098015
1733512585925596400,12.610596435546874,6.343349620300531,4.1161218986302615,-4.0768130938097835
1733512585935614500,12.620614501953124,8.041259453111886,5.026435246840119,-4.104172225378454
1733512585945633500,12.630633544921874,9.34616307078302,6.019132279226183,-4.166040652531385
1733512585955651600,12.640651611328124,10.480163009303807,7.027967376464605,-4.111487809088826
1733512585965669600,12.650669677734374,10.354702399945259,7.142551202499866,-3.1576427776664495
1733512585975688400,12.6606884765625,9.587180735123157,6.826040198019147,-3.062559186393022
