time,seconds_elapsed,z,y,x
1733511862850709200,0.029709228515625,0.007684556767344475,-0.016078906133770943,0.0013056577881798148
1733511862860728300,0.039728271484375,0.014180272817611694,-0.0034235650673508644,-0.00009330076863989234
1733511862870747100,0.0497470703125,0.014174414798617363,0.012578665278851986,-0.0029600851703435183
1733511862880766200,0.05976611328125,0.012572256848216057,0.019531114026904106,0.004142032470554113
1733511862890785300,0.069785400390625,0.01083332672715187,0.03360632061958313,0.0071524460799992085
1733511862900804400,0.079804443359375,0.007720091380178928,0.044407837092876434,0.006324469111859798
1733511862910822100,0.089822265625,0.0012628186959773302,0.04749542847275734,-0.0034136392641812563
1733511862920841200,0.09984130859375,0.0019927911926060915,0.03431704267859459,-0.014650847762823105
1733511862930860300,0.1098603515625,0.0013862954219803214,0.029784154146909714,-0.021215813234448433
1733511862940879000,0.119879150390625,0.0028491695411503315,0.021485477685928345,-0.018743067979812622
1733511862950898200,0.129898193359375,0.004221078474074602,0.012382490560412407,-0.00997851975262165
1733511862960917200,0.139917236328125,0.0052320146933197975,0.016286417841911316,-0.0030063637532293797
1733511862970936000,0.14993603515625,0.0009529800154268742,0.019267380237579346,0.004951107315719128
1733511862980955100,0.159955078125,-0.0009442559676244855,0.025356166064739227,0.00959992129355669
1733511862990974200,0.16997412109375,0.00030082929879426956,0.02740851230919361,0.011838218197226524
1733511863000992000,0.179991943359375,-0.0013572548050433397,0.03539852797985077,0.014412162825465202
1733511863011011000,0.190010986328125,-0.00006994011346250772,0.03600854426622391,0.015157938003540039
1733511863021030100,0.200030029296875,-0.00019963609520345926,0.03825545310974121,0.007697891443967819
1733511863031049200,0.21004931640625,-0.0000014777760952711105,0.034908343106508255,-0.00012650566350203007
1733511863041068000,0.220068115234375,-0.0020073705818504095,0.03319912403821945,-0.007874174043536186
1733511863051087000,0.230087158203125,-0.0030946070328354836,0.03629487007856369,-0.008731233887374401
1733511863061106200,0.240106201171875,-0.002314034616574645,0.0346628874540329,-0.009303812868893147
1733511863071125200,0.250125244140625,0.0018345245625823736,0.030790777876973152,-0.012749653309583664
1733511863081143000,0.26014306640625,0.0027858056128025055,0.02986559458076954,-0.00962177012115717
1733511863091162000,0.270162109375,0.00924412440508604,0.026134638115763664,-0.006043523550033569
1733511863101181200,0.28018115234375,0.01420426182448864,0.026567934080958366,-0.004997167736291885
1733511863111200000,0.290199951171875,0.01933189108967781,0.027668306604027748,-0.006112311035394669
1733511863121219000,0.300218994140625,0.017547838389873505,0.025722069665789604,-0.011500950902700424
1733511863131238100,0.310238037109375,0.017310915514826775,0.029982341453433037,-0.013626571744680405
1733511863141257200,0.32025732421875,0.014587566256523132,0.03131259232759476,-0.014489169232547283
1733511863151276000,0.330276123046875,0.011170216836035252,0.03205955773591995,-0.01213869359344244
1733511863161294300,0.34029443359375,0.008222630247473717,0.03274985030293465,-0.005211012903600931
1733511863171313400,0.3503134765625,0.003054005093872547,0.028573112562298775,-0.004110655281692743
1733511863181332200,0.360332275390625,0.005770695861428976,0.020401470363140106,-0.0038648454938083887
1733511863191351300,0.370351318359375,0.005264846608042717,0.016401970759034157,-0.0003796511155087501
1733511863201370000,0.3803701171875,0.008335204795002937,0.0065453448332846165,-0.000886716996319592
1733511863211389200,0.39038916015625,0.010919194668531418,-0.008849827572703362,-0.004683622159063816
1733511863221408300,0.400408203125,0.0109029496088624,-0.02370946668088436,-0.014376197941601276
1733511863231427000,0.410427001953125,0.009138699620962143,-0.03321649879217148,-0.019503841176629066
1733511863241445000,0.420445068359375,0.008983969688415527,-0.027194293215870857,-0.02373320795595646
1733511863251464200,0.430464111328125,0.005809383932501078,-0.015063699334859848,-0.019815657287836075
1733511863261483300,0.440483154296875,0.00468020373955369,-0.0006962124025449157,-0.012060264125466347
1733511863271502300,0.45050244140625,0.00861529354006052,0.012262288480997086,-0.004444845486432314
1733511863281521200,0.460521240234375,0.005624296609312296,0.012455101124942303,-0.0027316338382661343
1733511863291540200,0.470540283203125,0.005111316218972206,-0.00404054019600153,-0.0016323479358106852
1733511863301559300,0.480559326171875,0.006771264597773552,-0.0162359531968832,-0.006788227707147598
1733511863311578400,0.490578369140625,0.009382091462612152,-0.020114056766033173,-0.01430596224963665
1733511863321597200,0.50059716796875,0.00954827293753624,-0.027099527418613434,-0.019700992852449417
1733511863331615200,0.510615234375,0.009728818200528622,-0.028070639818906784,-0.0222026277333498
1733511863341634300,0.52063427734375,0.009807380847632885,-0.02473609521985054,-0.019151976332068443
1733511863351653000,0.530653076171875,0.007218960672616959,-0.019630203023552895,-0.01638362742960453
1733511863361672200,0.540672119140625,0.010012083686888218,-0.011856435798108578,-0.012392082251608372
1733511863371691300,0.550691162109375,0.010930473916232586,-0.003218919038772583,-0.007993126288056374
1733511863381710300,0.56071044921875,0.011713976040482521,0.001037344802170992,-0.007291383109986782
1733511863391729200,0.570729248046875,0.012136241421103477,0.005059913266450167,-0.009282604791224003
1733511863401748200,0.580748291015625,0.01350244227796793,-0.0016331429360434413,-0.012204092927277088
1733511863411766300,0.590766357421875,0.014338216744363308,-0.011908713728189468,-0.01341233216226101
1733511863421785000,0.60078515625,0.015218923799693584,-0.018131721764802933,-0.019285134971141815
1733511863431804200,0.61080419921875,0.015304145403206348,-0.018557295203208923,-0.0219043530523777
1733511863441823200,0.6208232421875,0.010371438227593899,-0.022162947803735733,-0.02526393160223961
1733511863451842000,0.630842041015625,0.009981095790863037,-0.014470076188445091,-0.0218442864716053
1733511863461861000,0.640861083984375,0.010667392984032631,-0.006472070701420307,-0.016322487965226173
1733511863471880200,0.650880126953125,0.009693189524114132,-0.002110828412696719,-0.013095772825181484
1733511863481899300,0.660899169921875,0.014981693588197231,0.0026130867190659046,-0.012028910219669342
1733511863491917000,0.6709169921875,0.01631721295416355,0.0066892062313854694,-0.012465844862163067
1733511863501936000,0.68093603515625,0.020839527249336243,0.013212619349360466,-0.010244502685964108
1733511863511955200,0.690955078125,0.021569766104221344,0.015403961762785912,-0.00996076688170433
1733511863521974000,0.70097412109375,0.019946569576859474,0.022528717294335365,-0.01258078496903181
1733511863531993000,0.7109931640625,0.015138398855924606,0.02212052047252655,-0.017690125852823257
1733511863542012200,0.72101220703125,0.014337319880723953,0.01929251104593277,-0.016229381784796715
1733511863552031200,0.73103125,0.006633521988987923,0.016751442104578018,-0.014622624032199383
1733511863562050000,0.741050048828125,0.004889417439699173,0.00767645426094532,-0.011869181878864765
1733511863572069000,0.751069091796875,0.004465365782380104,0.006186084356158972,-0.007017846219241619
1733511863582087200,0.761087158203125,0.004279743414372206,0.010560326278209686,-0.00024356359790544957
1733511863592106000,0.77110595703125,0.008501747623085976,0.009915590286254883,-0.001348660560324788
1733511863602125000,0.781125,0.009787522256374359,0.00803060457110405,0.0009887958876788616
1733511863612144000,0.79114404296875,0.009764430113136768,0.002006332855671644,-0.00500849774107337
1733511863622163000,0.801162841796875,0.01245289109647274,-0.005083002150058746,-0.0048340605571866035
1733511863632182000,0.81118212890625,0.01146084163337946,-0.007929697632789612,-0.01048137154430151
1733511863642201000,0.821201171875,0.011778556741774082,-0.003541607642546296,-0.013234281912446022
1733511863652220200,0.83122021484375,0.010443096980452538,-0.00043985992670059204,-0.014898139983415604
1733511863662238200,0.84123828125,0.010102478787302971,0.0038957661017775536,-0.012417404912412167
1733511863672257300,0.85125732421875,0.007333456538617611,0.0064431666396558285,-0.012167655862867832
1733511863682276400,0.8612763671875,0.009604866616427898,0.012852063402533531,-0.008810208179056644
1733511863692295400,0.87129541015625,0.0106780044734478,0.018125690519809723,-0.009155172854661942
1733511863702314500,0.881314453125,0.006732265464961529,0.02207462675869465,-0.011003406718373299
1733511863712333300,0.891333251953125,0.005464507266879082,0.019118595868349075,-0.013097988441586494
1733511863722352400,0.901352294921875,0.001826096442528069,0.014502272941172123,-0.017371829599142075
1733511863732371500,0.911371337890625,0.00022538518533110619,0.008588421158492565,-0.01659117266535759
1733511863742389200,0.92138916015625,-0.0028412449173629284,0.00933969859033823,-0.013472343795001507
1733511863752408300,0.931408203125,-0.005519167985767126,0.013265234418213367,-0.006918656174093485
1733511863762427400,0.941427490234375,-0.001990746008232236,0.025381019338965416,-0.003088763915002346
1733511863772446500,0.951446533203125,-0.003017641603946686,0.031988807022571564,-0.00020246011263225228
1733511863782465300,0.96146533203125,-0.0011670110980048776,0.036991287022829056,0.001731527503579855
1733511863792484400,0.971484375,0.003072247374802828,0.03873502463102341,-0.0014568695332854986
1733511863802503400,0.98150341796875,0.0034501496702432632,0.033735472708940506,-0.0047884839586913586
1733511863812522500,0.9915224609375,0.00756541732698679,0.02318699285387993,-0.008525250479578972
1733511863822540300,1.001540283203125,0.00747913122177124,0.01506967842578888,-0.010127940215170383
1733511863832559400,1.011559326171875,0.006477764807641506,0.004812656436115503,-0.01156564150005579
1733511863842578400,1.021578369140625,0.005435403436422348,0.0028768046759068966,-0.016668258234858513
1733511863852597200,1.03159716796875,0.0007037081522867084,0.00029448862187564373,-0.013035349547863007
1733511863862616300,1.0416162109375,0.004048638511449099,-0.0010916866594925523,-0.015780536457896233
1733511863872635400,1.051635498046875,0.006476983428001404,-0.012089505791664124,-0.013588718138635159
1733511863882654200,1.061654296875,0.006775258108973503,-0.027923062443733215,-0.01509846467524767
1733511863892673300,1.07167333984375,0.012291006743907928,-0.042311523109674454,-0.01706399768590927
1733511863902691300,1.08169140625,0.01921043172478676,-0.058839101344347,-0.014041043817996979
1733511863912710100,1.091710205078125,0.022589106112718582,-0.07524965703487396,-0.015304969623684883
1733511863922729200,1.101729248046875,0.02137310430407524,-0.08967892825603485,-0.020539944991469383
1733511863932748300,1.111748291015625,0.024521421641111374,-0.10702220350503922,-0.03365524858236313
1733511863942767400,1.121767333984375,0.026466062292456627,-0.13055042922496796,-0.042061250656843185
1733511863952786200,1.1317861328125,0.035202182829380035,-0.14369061589241028,-0.053253959864377975
1733511863962805200,1.14180517578125,0.054464828222990036,-0.14239338040351868,-0.062096454203128815
1733511863972824300,1.15182421875,0.07872506231069565,-0.1126999482512474,-0.06915021687746048
1733511863982842000,1.161842041015625,0.10291135311126709,-0.06257100403308868,-0.077787384390831
1733511863992861200,1.171861083984375,0.12012665718793869,-0.023205475881695747,-0.09877590835094452
1733511864002880300,1.18188037109375,0.1314898431301117,-0.012589315883815289,-0.1285250186920166
1733511864012899300,1.1918994140625,0.14211119711399078,0.00003175763413310051,-0.16366681456565857
1733511864022918100,1.201918212890625,0.14585240185260773,-0.0055763269774615765,-0.1849990040063858
1733511864032937200,1.211937255859375,0.14546102285385132,-0.026496825739741325,-0.1966305375099182
1733511864042956300,1.221956298828125,0.1326000839471817,-0.05679001659154892,-0.1955471634864807
1733511864052975400,1.231975341796875,0.11941748112440109,-0.08156177401542664,-0.1786273568868637
1733511864062993400,1.241993408203125,0.11559397727251053,-0.08430589735507965,-0.14974617958068848
1733511864073012200,1.25201220703125,0.11464937031269073,-0.058930911123752594,-0.10531652718782425
1733511864083031300,1.26203125,0.11097287386655807,-0.03607752546668053,-0.07155749946832657
1733511864093050400,1.27205029296875,0.1151416003704071,-0.014642741531133652,-0.06263044476509094
1733511864103069200,1.282069091796875,0.1233350858092308,-0.009043712168931961,-0.06864679604768753
1733511864113088300,1.292088134765625,0.14921407401561737,-0.0240815170109272,-0.07364901155233383
1733511864123107000,1.302107177734375,0.20106476545333862,-0.053304918110370636,-0.08201292902231216
1733511864133125400,1.31212548828125,0.24025331437587738,-0.13587631285190582,-0.09267031401395798
1733511864143144400,1.32214453125,0.2873835265636444,-0.22351135313510895,-0.11926570534706116
1733511864153163300,1.332163330078125,0.3372665345668793,-0.2534419596195221,-0.1524553745985031
1733511864163182300,1.342182373046875,0.37069371342658997,-0.23098671436309814,-0.18237891793251038
1733511864173201400,1.352201416015625,0.3888106942176819,-0.19389761984348297,-0.21638606488704681
1733511864183220500,1.362220458984375,0.3941311836242676,-0.20602938532829285,-0.24387575685977936
1733511864193239300,1.3722392578125,0.3954029977321625,-0.2752484679222107,-0.2668094336986542
1733511864203258400,1.38225830078125,0.39734044671058655,-0.378940224647522,-0.2874225676059723
1733511864213276400,1.3922763671875,0.3874325156211853,-0.47442948818206787,-0.29127055406570435
1733511864223295200,1.402295166015625,0.37625283002853394,-0.5356305241584778,-0.30118894577026367
1733511864233314300,1.412314208984375,0.36788231134414673,-0.545329749584198,-0.3144572079181671
1733511864243333400,1.42233349609375,0.36698615550994873,-0.506108820438385,-0.3124372065067291
1733511864253352400,1.4323525390625,0.37871235609054565,-0.4640796482563019,-0.26784074306488037
1733511864263371300,1.442371337890625,0.4045964181423187,-0.439073383808136,-0.19884195923805237
1733511864273390300,1.452390380859375,0.43396836519241333,-0.4655727446079254,-0.14126433432102203
1733511864283408400,1.462408447265625,0.44287824630737305,-0.5430499315261841,-0.09631789475679398
1733511864293427200,1.47242724609375,0.43988946080207825,-0.6407720446586609,-0.05123722553253174
1733511864303446300,1.4824462890625,0.4412330090999603,-0.733941912651062,-0.0070585813373327255
1733511864313465300,1.49246533203125,0.4540337324142456,-0.7814304232597351,0.02546890638768673
1733511864323484200,1.502484130859375,0.4818944036960602,-0.7887618541717529,0.03194970637559891
1733511864333503200,1.512503173828125,0.5198454856872559,-0.8070867657661438,0.012247109785676003
1733511864343522300,1.522522216796875,0.5465143918991089,-0.8901925683021545,-0.012974357232451439
1733511864353541400,1.532541259765625,0.5698084831237793,-1.0238863229751587,-0.028946733102202415
1733511864363559200,1.54255908203125,0.5816124081611633,-1.16242253780365,-0.043443650007247925
1733511864373578200,1.552578125,0.589467465877533,-1.2699280977249146,-0.057079561054706573
1733511864383597300,1.562597412109375,0.6117528080940247,-1.3418962955474854,-0.07937714457511902
1733511864393616100,1.5726162109375,0.6367497444152832,-1.3745205402374268,-0.11194954812526703
1733511864403635200,1.58263525390625,0.6631888151168823,-1.401932716369629,-0.1556224673986435
1733511864413654300,1.592654296875,0.6756172180175781,-1.4611592292785645,-0.1931603103876114
1733511864423673300,1.60267333984375,0.672934353351593,-1.55337655544281,-0.23021580278873444
1733511864433692200,1.612692138671875,0.6524370312690735,-1.6636861562728882,-0.26189082860946655
1733511864443710200,1.622710205078125,0.6139711141586304,-1.7631562948226929,-0.28702467679977417
1733511864453729300,1.632729248046875,0.5668334364891052,-1.8230029344558716,-0.31861191987991333
1733511864463748000,1.642748046875,0.5262812376022339,-1.8202875852584839,-0.34192949533462524
1733511864473767200,1.65276708984375,0.5138087868690491,-1.7610918283462524,-0.3365026116371155
1733511864483786200,1.6627861328125,0.5128204822540283,-1.6424610614776611,-0.319580614566803
1733511864493805300,1.672805419921875,0.5052937269210815,-1.5138661861419678,-0.28646495938301086
1733511864503824100,1.68282421875,0.4905160963535309,-1.4344960451126099,-0.2607913017272949
1733511864513842400,1.692842529296875,0.46507880091667175,-1.3994827270507812,-0.2536315321922302
1733511864523861500,1.702861572265625,0.4278792440891266,-1.4001280069351196,-0.25784918665885925
1733511864533880300,1.71288037109375,0.38969284296035767,-1.4034754037857056,-0.26820117235183716
1733511864543899400,1.7228994140625,0.3419647216796875,-1.400382161140442,-0.2915877401828766
1733511864553918500,1.73291845703125,0.2721683382987976,-1.3856239318847656,-0.31725767254829407
1733511864563937300,1.742937255859375,0.1836099773645401,-1.3808259963989258,-0.34799641370773315
1733511864573956400,1.752956298828125,0.08296840637922287,-1.3470650911331177,-0.397582471370697
1733511864583975400,1.762975341796875,-0.04699864611029625,-1.3500710725784302,-0.4322190284729004
1733511864593993200,1.7729931640625,-0.17630717158317566,-1.392035722732544,-0.4466809332370758
1733511864604012300,1.78301220703125,-0.30572187900543213,-1.4593364000320435,-0.4444851577281952
1733511864614031400,1.79303125,-0.4181104600429535,-1.5226876735687256,-0.47397544980049133
1733511864624050400,1.803050537109375,-0.4851020276546478,-1.5955666303634644,-0.5493942499160767
1733511864634069200,1.8130693359375,-0.5191311240196228,-1.6899492740631104,-0.6111076474189758
1733511864644088300,1.82308837890625,-0.500433623790741,-1.7460298538208008,-0.6056929230690002
1733511864654107400,1.833107421875,-0.4120461940765381,-1.6281768083572388,-0.5433714985847473
1733511864664125200,1.843125244140625,-0.32459756731987,-1.3290143013000488,-0.394441157579422
1733511864674144000,1.85314404296875,-0.2824758291244507,-0.9526618123054504,-0.16776561737060547
1733511864684163000,1.8631630859375,-0.27764618396759033,-0.5795089602470398,0.12050426006317139
1733511864694182100,1.87318212890625,-0.3186592161655426,-0.2242487072944641,0.4065025746822357
1733511864704201000,1.883200927734375,-0.3440878689289093,0.12002557516098022,0.6436043381690979
1733511864714220000,1.893219970703125,-0.3584846258163452,0.3559381663799286,0.5889474749565125
1733511864724239000,1.903239013671875,-0.3839274048805237,0.21429318189620972,0.1639879047870636
1733511864734258200,1.913258056640625,-0.3772665858268738,-0.23444679379463196,-0.3039896786212921
1733511864744276000,1.92327587890625,-0.34671851992607117,-0.6056967973709106,-0.6175271272659302
1733511864754295000,1.933294921875,-0.3214140236377716,-0.797518253326416,-0.7750204801559448
1733511864764314000,1.943314208984375,-0.25223761796951294,-0.9509568214416504,-0.8082913160324097
1733511864774333000,1.9533330078125,-0.14759129285812378,-1.0282832384109497,-0.7301670908927917
1733511864784352000,1.96335205078125,-0.07497593015432358,-0.9260050654411316,-0.5947091579437256
1733511864794371000,1.97337109375,-0.058230187743902206,-0.6664704084396362,-0.4793907701969147
1733511864804390100,1.98339013671875,-0.06834060698747635,-0.36751461029052734,-0.4312341511249542
1733511864814408000,1.993407958984375,-0.09828606992959976,-0.25701311230659485,-0.4188142716884613
1733511864824427000,2.003427001953125,-0.1470746546983719,-0.37125712633132935,-0.44887709617614746
1733511864834446000,2.013446044921875,-0.195441335439682,-0.6270447969436646,-0.4999166429042816
1733511864844465000,2.02346484375,-0.2404642105102539,-0.9333307147026062,-0.5307067632675171
1733511864854484000,2.03348388671875,-0.2942359149456024,-1.1595773696899414,-0.5239766836166382
1733511864864503000,2.0435029296875,-0.3562273681163788,-1.2499972581863403,-0.5091540813446045
1733511864874521900,2.05352197265625,-0.42501407861709595,-1.270950198173523,-0.5075867772102356
1733511864884541000,2.063541015625,-0.46288931369781494,-1.2446224689483643,-0.514438271522522
1733511864894559200,2.073559326171875,-0.4435677230358124,-1.2072079181671143,-0.5357682108879089
1733511864904578000,2.083578125,-0.35898706316947937,-1.2300586700439453,-0.5544247627258301
1733511864914597000,2.09359716796875,-0.2717162072658539,-1.301220178604126,-0.5712745785713196
1733511864924616200,2.1036162109375,-0.22163519263267517,-1.3152289390563965,-0.5833848118782043
1733511864934635300,2.11363525390625,-0.1924038976430893,-1.2597994804382324,-0.586962878704071
1733511864944654000,2.123654052734375,-0.15475186705589294,-1.1826207637786865,-0.5922612547874451
1733511864954673200,2.133673095703125,-0.11924035102128983,-1.175763726234436,-0.5955687761306763
1733511864964691200,2.143691162109375,-0.11043194681406021,-1.2669683694839478,-0.5926473140716553
1733511864974710000,2.1537099609375,-0.12285597622394562,-1.3827475309371948,-0.6067938208580017
1733511864984729000,2.16372900390625,-0.14113324880599976,-1.4734464883804321,-0.6359605193138123
1733511864994748200,2.173748046875,-0.15135210752487183,-1.5203773975372314,-0.6681620478630066
1733511865004767200,2.183767333984375,-0.15228021144866943,-1.4962979555130005,-0.6763433218002319
1733511865014786000,2.1937861328125,-0.15431641042232513,-1.3845595121383667,-0.647262454032898
1733511865024805000,2.20380517578125,-0.14354951679706573,-1.1927522420883179,-0.5971114039421082
1733511865034823200,2.2138232421875,-0.11083638668060303,-0.9844451546669006,-0.5535410642623901
1733511865044842000,2.223842041015625,-0.05412010848522186,-0.8096874356269836,-0.5309342741966248
1733511865054861000,2.233861083984375,0.015604032203555107,-0.7041366696357727,-0.5198043584823608
1733511865064880000,2.243880126953125,0.0731155276298523,-0.6910597681999207,-0.5157036781311035
1733511865074899200,2.253899169921875,0.13242383301258087,-0.7296613454818726,-0.5283109545707703
1733511865084918000,2.26391796875,0.18420128524303436,-0.7738897800445557,-0.5293261408805847
1733511865094937000,2.27393701171875,0.20002692937850952,-0.8130470514297485,-0.4934951364994049
1733511865104956200,2.2839560546875,0.19624577462673187,-0.8195885419845581,-0.4435635209083557
1733511865114974000,2.293973876953125,0.1595505326986313,-0.786034882068634,-0.4230542778968811
1733511865124993000,2.303992919921875,0.11299315094947815,-0.7456821203231812,-0.44149401783943176
1733511865135012000,2.31401220703125,0.0859391838312149,-0.7264653444290161,-0.45058873295783997
1733511865145031000,2.324031005859375,0.06098376587033272,-0.7268956899642944,-0.44108444452285767
1733511865155050000,2.334050048828125,0.04562162607908249,-0.7299631834030151,-0.42392656207084656
1733511865165069000,2.344069091796875,0.019285893067717552,-0.7083905339241028,-0.4061073660850525
1733511865175088000,2.354088134765625,-0.00826867576688528,-0.6652378439903259,-0.39781665802001953
1733511865185106000,2.36410595703125,-0.040624748915433884,-0.6707466244697571,-0.3936517536640167
1733511865195125000,2.374125,-0.046075403690338135,-0.7632238864898682,-0.3653232157230377
1733511865205144000,2.38414404296875,-0.02191467396914959,-0.8958119750022888,-0.32374250888824463
1733511865215163000,2.394162841796875,0.026941165328025818,-0.9799976944923401,-0.27640435099601746
1733511865225182000,2.404181884765625,0.05668734386563301,-1.0105446577072144,-0.18955440819263458
1733511865235201000,2.414200927734375,0.060776956379413605,-1.0062836408615112,-0.09138815104961395
1733511865245220000,2.42422021484375,0.09438204765319824,-1.0409787893295288,-0.052692148834466934
1733511865255239000,2.434239013671875,0.178725004196167,-1.2047139406204224,-0.057132039219141006
1733511865265257200,2.44425732421875,0.2806899845600128,-1.4860920906066895,-0.07216105610132217
1733511865275276300,2.4542763671875,0.32111313939094543,-1.6825826168060303,-0.09527721256017685
1733511865285295000,2.464295166015625,0.28996241092681885,-1.6509425640106201,-0.12919655442237854
1733511865295314200,2.474314208984375,0.22578102350234985,-1.4350229501724243,-0.14888927340507507
1733511865305333200,2.484333251953125,0.1969190090894699,-1.1576361656188965,-0.14686766266822815
1733511865315352300,2.494352294921875,0.23384220898151398,-0.9367438554763794,-0.17496436834335327
1733511865325371100,2.50437109375,0.2871027886867523,-0.8804001808166504,-0.24313969910144806
1733511865335389200,2.51438916015625,0.2967342138290405,-0.9794104695320129,-0.3027081787586212
1733511865345408300,2.524408203125,0.22338810563087463,-1.0246449708938599,-0.3336615562438965
1733511865355427000,2.534427001953125,0.1220879778265953,-0.9131075143814087,-0.3088689148426056
1733511865365446100,2.544446044921875,0.04509466141462326,-0.6906808614730835,-0.15728656947612762
1733511865375465200,2.55446533203125,0.04277386888861656,-0.4109809696674347,0.11929512768983841
1733511865385484000,2.564484130859375,0.08213325589895248,-0.14016278088092804,0.39323851466178894
1733511865395503000,2.574503173828125,0.13244102895259857,0.031248558312654495,0.5240887403488159
1733511865405521200,2.584521240234375,0.20605053007602692,0.0027900172863155603,0.4846465289592743
1733511865415540000,2.5945400390625,0.2775960862636566,-0.19549879431724548,0.34600451588630676
1733511865425559000,2.60455908203125,0.36235493421554565,-0.5104426145553589,0.2244623899459839
1733511865435578000,2.614578125,0.4554111361503601,-0.8817137479782104,0.14283616840839386
1733511865445597200,2.62459716796875,0.5286070704460144,-1.184282660484314,0.04732482507824898
1733511865455616000,2.634615966796875,0.5783616900444031,-1.4012354612350464,-0.07172128558158875
1733511865465635000,2.644635009765625,0.5897547006607056,-1.5553823709487915,-0.1792999505996704
1733511865475654100,2.654654052734375,0.5479896068572998,-1.680562973022461,-0.22158555686473846
1733511865485672000,2.664671875,0.47611886262893677,-1.765581727027893,-0.20080864429473877
1733511865495691000,2.67469091796875,0.39896634221076965,-1.8134857416152954,-0.13323459029197693
1733511865505710000,2.6847099609375,0.3510534167289734,-1.8149806261062622,-0.0907377302646637
1733511865515729200,2.694729248046875,0.3212478458881378,-1.7423535585403442,-0.1203366369009018
1733511865525748000,2.704748046875,0.30656370520591736,-1.6346851587295532,-0.20913147926330566
1733511865535767000,2.71476708984375,0.35088521242141724,-1.551822304725647,-0.3094433844089508
1733511865545786000,2.7247861328125,0.4497089982032776,-1.5086452960968018,-0.38682234287261963
1733511865555804000,2.734803955078125,0.5629176497459412,-1.4872448444366455,-0.40351730585098267
1733511865565823000,2.744822998046875,0.6443930864334106,-1.4573205709457397,-0.3206956684589386
1733511865575842000,2.754842041015625,0.6411070227622986,-1.3750097751617432,-0.10362314432859421
1733511865585861000,2.764861083984375,0.5431613326072693,-1.2097574472427368,0.19899319112300873
1733511865595880000,2.7748798828125,0.4353906214237213,-0.9284376502037048,0.47721973061561584
1733511865605899000,2.78489892578125,0.37394484877586365,-0.6279249787330627,0.6541481614112854
1733511865615918000,2.79491796875,0.341790109872818,-0.4439859390258789,0.7375028133392334
1733511865625936100,2.80493603515625,0.33452659845352173,-0.3872866928577423,0.7533659338951111
1733511865635955200,2.814955078125,0.3501371741294861,-0.3962048888206482,0.7291027307510376
1733511865645974300,2.824974365234375,0.386722594499588,-0.4090802073478699,0.6951541304588318
1733511865655993000,2.8349931640625,0.40510109066963196,-0.3886323869228363,0.666558027267456
1733511865666012200,2.84501220703125,0.39736807346343994,-0.38836926221847534,0.6500616073608398
1733511865676031000,2.855031005859375,0.3809056878089905,-0.4078757166862488,0.6425794959068298
1733511865686050000,2.865050048828125,0.35083431005477905,-0.4634971618652344,0.615973949432373
1733511865696069000,2.875069091796875,0.32280126214027405,-0.554692268371582,0.5534355044364929
1733511865706087000,2.8850869140625,0.30983832478523254,-0.6360110640525818,0.46185073256492615
1733511865716106000,2.89510595703125,0.29571080207824707,-0.6893222332000732,0.3893994092941284
1733511865726125000,2.905125,0.27580365538597107,-0.6575137376785278,0.35252290964126587
1733511865736144000,2.915143798828125,0.2577086091041565,-0.5432150959968567,0.3443584740161896
1733511865746163000,2.925162841796875,0.24587459862232208,-0.37778565287590027,0.3813537657260895
1733511865756182000,2.93518212890625,0.22580046951770782,-0.2081686109304428,0.4479658603668213
1733511865766201000,2.945201171875,0.1803959608078003,-0.016277747228741646,0.5091104507446289
1733511865776219000,2.955218994140625,0.1363966017961502,0.17036041617393494,0.554994523525238
1733511865786238000,2.965238037109375,0.11199406534433365,0.3233398497104645,0.5682852864265442
1733511865796257000,2.975257080078125,0.08897672593593597,0.43325358629226685,0.6131372451782227
1733511865806275800,2.98527587890625,0.0761733129620552,0.5097954869270325,0.6852263808250427
1733511865816295000,2.995294921875,0.06870255619287491,0.584807813167572,0.7495253086090088
1733511865826314000,3.00531396484375,0.0754893571138382,0.653984785079956,0.7524153590202332
1733511865836333000,3.0153330078125,0.07433834671974182,0.649915337562561,0.6931684017181396
1733511865846350800,3.025350830078125,0.05518302321434021,0.5733542442321777,0.5910612344741821
1733511865856370000,3.035369873046875,0.015612993389368057,0.4690934419631958,0.4678243398666382
1733511865866389000,3.045388916015625,-0.021708013489842415,0.4115409255027771,0.3513736128807068
1733511865876407800,3.05540771484375,-0.04291248321533203,0.41939276456832886,0.265824556350708
1733511865886427000,3.065427001953125,-0.03452379256486893,0.46039026975631714,0.220657080411911
1733511865896446000,3.075446044921875,-0.016219165176153183,0.5007480382919312,0.2245052009820938
1733511865906464800,3.08546484375,-0.0024061473086476326,0.48024165630340576,0.23778772354125977
1733511865916482800,3.09548291015625,0.006101683713495731,0.3558387756347656,0.23691245913505554
1733511865926502000,3.105501953125,0.01475695800036192,0.15498210489749908,0.22437375783920288
1733511865936520700,3.115520751953125,0.02035796456038952,-0.08231233060359955,0.21386224031448364
1733511865946539800,3.125539794921875,0.008212616667151451,-0.2915385365486145,0.20935271680355072
1733511865956558800,3.135558837890625,0.015611052513122559,-0.3891499638557434,0.1833951473236084
1733511865966578000,3.145577880859375,0.01988941989839077,-0.3599795401096344,0.1393536478281021
1733511865976596700,3.1555966796875,-0.00437142513692379,-0.14805404841899872,0.04694299027323723
1733511865986615000,3.165614990234375,-0.10979852080345154,0.14410191774368286,-0.03536253795027733
1733511865996634000,3.175634033203125,-0.23823624849319458,0.4284840226173401,-0.00037360499845817685
1733511866006653000,3.18565283203125,-0.40354397892951965,0.6234638690948486,0.0493052676320076
1733511866016672000,3.195672119140625,-0.5163421034812927,0.7033327221870422,-0.023740582168102264
1733511866026691000,3.205691162109375,-0.5577443838119507,0.7135030627250671,-0.07748503237962723
1733511866036710100,3.215710205078125,-0.6286928653717041,0.6237507462501526,0.12320112437009811
1733511866046729000,3.22572900390625,-0.6688461899757385,0.5821726322174072,0.5915305614471436
1733511866056747000,3.2357470703125,-0.5945574045181274,0.7562142610549927,0.9402962327003479
1733511866066766000,3.24576611328125,-0.3883477449417114,0.9672519564628601,0.7296369671821594
1733511866076785000,3.255784912109375,-0.23894746601581573,0.9797549843788147,0.2710670828819275
1733511866086804000,3.265803955078125,-0.0684971734881401,1.1161000728607178,-0.05125023424625397
1733511866096823000,3.275822998046875,0.1127161756157875,1.2123974561691284,-0.07958199083805084
1733511866106842000,3.285842041015625,0.2205800563097,0.6638064384460449,0.12631499767303467
1733511866116861000,3.29586083984375,0.20458613336086273,-0.42246222496032715,0.23153547942638397
1733511866126879000,3.30587890625,0.06488709896802902,-1.4509937763214111,0.04719253256917
1733511866136898000,3.31589794921875,-0.19764813780784607,-2.064253568649292,-0.3111850321292877
1733511866146916900,3.325916748046875,-0.47513699531555176,-2.2002816200256348,-0.692862331867218
1733511866156936000,3.33593603515625,-0.5906482338905334,-2.2834036350250244,-1.0673924684524536
1733511866166955000,3.345955078125,-0.5458594560623169,-2.60197377204895,-1.3347417116165161
1733511866176973800,3.355973876953125,-0.40270259976387024,-2.9288454055786133,-1.4369018077850342
1733511866186993000,3.365992919921875,-0.23377934098243713,-2.912764310836792,-1.3892821073532104
1733511866197011000,3.376010986328125,-0.08313025534152985,-2.392542839050293,-1.2451543807983398
1733511866207029800,3.38602978515625,0.01969253458082676,-1.4673981666564941,-1.0525026321411133
1733511866217048800,3.396048828125,0.01966867968440056,-0.5169147849082947,-0.8533148169517517
1733511866227068000,3.40606787109375,-0.02160578966140747,0.044428981840610504,-0.6820051074028015
1733511866237087000,3.4160869140625,0.0282441396266222,0.24620725214481354,-0.5912336707115173
1733511866247105800,3.426105712890625,0.0875101238489151,0.31305980682373047,-0.5785666108131409
1733511866257124900,3.436124755859375,0.06374353915452957,0.281076043844223,-0.6248027682304382
1733511866267143000,3.446142822265625,-0.011041748337447643,0.11320260912179947,-0.6955142617225647
1733511866277161700,3.45616162109375,-0.07747534662485123,-0.12313683331012726,-0.7635086178779602
1733511866287180800,3.466180908203125,-0.10323450714349747,-0.3087479770183563,-0.8255924582481384
1733511866297199900,3.476199951171875,-0.09220173209905624,-0.35456180572509766,-0.8840306401252747
1733511866307219000,3.486218994140625,-0.0647602528333664,-0.25568687915802,-0.9246156215667725
1733511866317237800,3.49623779296875,-0.014036859385669231,-0.07950910180807114,-0.9296952486038208
1733511866327256800,3.5062568359375,0.06703988462686539,0.10204045474529266,-0.8779399394989014
1733511866337276000,3.51627587890625,0.1626916080713272,0.22742916643619537,-0.7832115888595581
1733511866347294000,3.5262939453125,0.22237518429756165,0.28595292568206787,-0.7153225541114807
1733511866357313000,3.53631298828125,0.22971594333648682,0.296342670917511,-0.7012571096420288
1733511866367332000,3.54633203125,0.18951313197612762,0.25077733397483826,-0.7198339700698853
1733511866377351000,3.556350830078125,0.12622210383415222,0.16329853236675262,-0.7530473470687866
1733511866387370000,3.566369873046875,0.09382127970457077,0.027604350820183754,-0.7758839130401611
1733511866397389000,3.57638916015625,0.10436956584453583,-0.16440273821353912,-0.798361599445343
1733511866407407900,3.586407958984375,0.13909000158309937,-0.37350961565971375,-0.8281892538070679
1733511866417426000,3.596426025390625,0.20604825019836426,-0.6284053921699524,-0.854377031326294
1733511866427445000,3.606445068359375,0.2759128212928772,-0.9306091666221619,-0.8864018321037292
1733511866437464000,3.616464111328125,0.3369736671447754,-1.2410327196121216,-0.9234812259674072
1733511866447483000,3.62648291015625,0.3683001697063446,-1.5019503831863403,-0.9612355828285217
1733511866457502000,3.636501953125,0.3850732445716858,-1.6786150932312012,-0.9838770031929016
1733511866467521000,3.64652099609375,0.4044581353664398,-1.746410608291626,-0.9834341406822205
1733511866477540000,3.6565400390625,0.4320923686027527,-1.6718238592147827,-0.9543473720550537
1733511866487558000,3.666557861328125,0.4605708718299866,-1.4617714881896973,-0.8785924315452576
1733511866497577000,3.676576904296875,0.47034645080566406,-1.1159358024597168,-0.7273881435394287
1733511866507596000,3.686595947265625,0.45780909061431885,-0.6252390146255493,-0.5018271803855896
1733511866517614800,3.69661474609375,0.4359390139579773,-0.09907633811235428,-0.1782795637845993
1733511866527634000,3.706634033203125,0.43679389357566833,0.3403731882572174,0.19404606521129608
1733511866537653000,3.716653076171875,0.4851031005382538,0.6609253287315369,0.5119947195053101
1733511866547672000,3.726672119140625,0.5392654538154602,0.8618640303611755,0.7485848665237427
1733511866557689900,3.73668994140625,0.5820684432983398,0.7427003383636475,0.9228767156600952
1733511866567709000,3.746708984375,0.6131629943847656,0.05009661987423897,0.8418484330177307
1733511866577728000,3.75672802734375,0.5759158134460449,-1.1608858108520508,0.3678354322910309
1733511866587746800,3.766746826171875,0.4833531379699707,-2.4823741912841797,-0.24385404586791992
1733511866597766000,3.776765869140625,0.3875005841255188,-3.4247095584869385,-0.7105993032455444
1733511866607785000,3.786784912109375,0.3438103497028351,-3.9070873260498047,-0.8811782598495483
1733511866617803800,3.7968037109375,0.40577802062034607,-3.86822772026062,-0.7736440896987915
1733511866627821800,3.80682177734375,0.5210409760475159,-3.139565944671631,-0.5389628410339355
1733511866637841000,3.8168408203125,0.5167458057403564,-1.7478928565979004,-0.2983328104019165
1733511866647859700,3.826859619140625,0.5355493426322937,0.13610059022903442,-0.17604202032089233
1733511866657878800,3.836878662109375,0.6464003324508667,2.006333351135254,-0.11128824949264526
1733511866667897900,3.84689794921875,0.7165014147758484,3.194533109664917,0.018191447481513023
1733511866677917200,3.856917236328125,0.7065390944480896,3.285754919052124,0.2720417380332947
1733511866687936300,3.866936279296875,0.5796112418174744,2.4118270874023438,0.5854654312133789
1733511866697954300,3.876954345703125,0.2686215341091156,1.1200960874557495,0.8249224424362183
1733511866707973000,3.88697314453125,-0.08810567855834961,-0.0906572937965393,0.8378339409828186
1733511866717992200,3.8969921875,-0.3693790137767792,-0.9312376379966736,0.6386348605155945
1733511866728011300,3.90701123046875,-0.5230556130409241,-1.0801111459732056,0.15618272125720978
1733511866738030000,3.917030029296875,-0.635214626789093,-0.43334347009658813,-0.27401259541511536
1733511866748049200,3.927049072265625,-0.7982349991798401,0.31716516613960266,-0.1135622039437294
1733511866758068200,3.937068115234375,-0.9105668067932129,0.9746886491775513,0.24619707465171814
1733511866768086300,3.947086181640625,-0.9047595262527466,1.4225668907165527,0.4028140902519226
1733511866778105300,3.957105224609375,-0.8279343247413635,1.405980110168457,0.4321945607662201
1733511866788124400,3.96712451171875,-0.7235751152038574,1.0225616693496704,0.43463000655174255
1733511866798143500,3.9771435546875,-0.6214271187782288,0.5971763730049133,0.43944603204727173
1733511866808162300,3.987162353515625,-0.5233133435249329,0.3571677803993225,0.5068376064300537
1733511866818181400,3.997181396484375,-0.4056726396083832,0.4040084183216095,0.6871199607849121
1733511866828200400,4.007200439453125,-0.2941517233848572,0.6243512034416199,0.904999852180481
1733511866838218200,4.01721826171875,-0.22384107112884521,0.7981940507888794,1.0707224607467651
1733511866848237300,4.0272373046875,-0.19851148128509521,0.838348925113678,1.1251779794692993
1733511866858256400,4.03725634765625,-0.1832686960697174,0.7200385332107544,1.062781810760498
1733511866868275500,4.047275390625,-0.16689984500408173,0.48924902081489563,0.9344316720962524
1733511866878294300,4.057294189453125,-0.15590573847293854,0.23205460608005524,0.8088504672050476
1733511866888313300,4.067313232421875,-0.16757917404174805,0.02471606247127056,0.7109161615371704
1733511866898332400,4.07733251953125,-0.19691206514835358,-0.07541784644126892,0.637830913066864
1733511866908350200,4.08735009765625,-0.23939454555511475,-0.10034103691577911,0.6009586453437805
1733511866918369300,4.097369384765625,-0.2911161780357361,-0.0698656514286995,0.6051617860794067
1733511866928388400,4.107388427734375,-0.31325212121009827,0.04376691207289696,0.6339729428291321
1733511866938407200,4.1174072265625,-0.3197355568408966,0.25583815574645996,0.6644284129142761
1733511866948426200,4.12742626953125,-0.3061203956604004,0.5509510040283203,0.701048731803894
1733511866958445300,4.1374453125,-0.2747593820095062,0.8980913758277893,0.7657775282859802
1733511866968463000,4.147463134765625,-0.22232013940811157,1.2425295114517212,0.8367089033126831
1733511866978482200,4.157482177734375,-0.16646258533000946,1.5252894163131714,0.8825867176055908
1733511866988501200,4.167501220703125,-0.12477211654186249,1.6799447536468506,0.9064115881919861
1733511866998520300,4.177520263671875,-0.12768572568893433,1.7028868198394775,0.9127301573753357
1733511867008539100,4.1875390625,-0.19551484286785126,1.6232460737228394,0.9004611968994141
1733511867018558200,4.19755810546875,-0.25619426369667053,1.4956659078598022,0.8345967531204224
1733511867028577300,4.207577392578125,-0.2686610519886017,1.3550260066986084,0.7112679481506348
1733511867038595000,4.217594970703125,-0.25656142830848694,1.2466201782226562,0.5393713712692261
1733511867048614100,4.2276142578125,-0.2294299304485321,1.1751108169555664,0.3805832862854004
1733511867058633200,4.23763330078125,-0.19023017585277557,1.0790791511535645,0.25266021490097046
1733511867068652300,4.24765234375,-0.18565087020397186,0.9603376388549805,0.12835906445980072
1733511867078671000,4.257671142578125,-0.16291947662830353,0.835212230682373,-0.003830347675830126
1733511867088690200,4.267690185546875,-0.15155896544456482,0.6506911516189575,-0.10939805209636688
1733511867098709200,4.277709228515625,-0.179268941283226,0.4421497583389282,-0.14025923609733582
1733511867108727300,4.287727294921875,-0.22189363837242126,0.33741724491119385,-0.055416252464056015
1733511867118746400,4.297746337890625,-0.23248881101608276,0.24511630833148956,0.14196467399597168
1733511867128765400,4.307765380859375,-0.2539847791194916,0.05704360455274582,0.26435181498527527
1733511867138784500,4.317784423828125,-0.3121253550052643,-0.010224583558738232,0.14639055728912354
1733511867148803300,4.32780322265625,-0.29193994402885437,-0.3581005334854126,0.206800639629364
1733511867158822400,4.337822509765625,-0.21041932702064514,-1.0487087965011597,0.7800139784812927
1733511867168841500,4.347841552734375,-0.07148408144712448,-0.3321891129016876,-0.058568067848682404
1733511867178859300,4.357859375,0.3381434381008148,0.6478090882301331,-0.8746770024299622
1733511867188878300,4.36787841796875,0.6042124032974243,-0.24816031754016876,-0.6544770002365112
1733511867198897400,4.3778974609375,0.1984175592660904,-2.073110580444336,0.1118554174900055
1733511867208916200,4.387916259765625,-0.38374173641204834,-2.6988282203674316,0.5121884942054749
1733511867218935300,4.397935302734375,-0.5411795973777771,-2.1755807399749756,0.39139363169670105
1733511867228954400,4.407954345703125,-0.313900351524353,-1.3252149820327759,-0.009934870526194572
1733511867238973400,4.417973388671875,0.11212695389986038,-0.584382951259613,-0.5034326314926147
1733511867248991200,4.4279912109375,0.5801476836204529,-0.05849015712738037,-0.8662822246551514
1733511867259010300,4.43801025390625,0.9457353353500366,0.35885199904441833,-0.9940615892410278
1733511867269029400,4.448029296875,1.148490071296692,0.7942666411399841,-0.9899991750717163
1733511867279048200,4.458048095703125,1.1719774007797241,1.415235161781311,-1.0235860347747803
1733511867289067300,4.4680673828125,1.1088447570800781,1.8470096588134766,-1.011335015296936
1733511867299086300,4.47808642578125,0.9520307779312134,2.100566864013672,-0.8858500719070435
1733511867309104000,4.488104248046875,0.5579745769500732,2.2752742767333984,-0.7476948499679565
1733511867319123200,4.498123291015625,0.03526280075311661,2.2078070640563965,-0.7299667000770569
1733511867329142300,4.508142333984375,-0.36835548281669617,1.8205825090408325,-0.8459729552268982
1733511867339161300,4.518161376953125,-0.6094480752944946,1.3124438524246216,-1.0633511543273926
1733511867349180200,4.52818017578125,-0.7683146595954895,0.9412186145782471,-1.3704549074172974
1733511867359199200,4.53819921875,-0.9384058713912964,0.9520015716552734,-1.8407922983169556
1733511867369218300,4.54821826171875,-1.0201997756958008,1.1440343856811523,-2.2593634128570557
1733511867379236000,4.558236083984375,-0.9346866607666016,1.1374505758285522,-2.3603484630584717
1733511867389255200,4.568255126953125,-0.7439752817153931,0.7796833515167236,-2.10005784034729
1733511867399274200,4.578274169921875,-0.5604406595230103,0.22755402326583862,-1.6148663759231567
1733511867409293300,4.588293212890625,-0.4250096082687378,-0.16702312231063843,-1.1566969156265259
1733511867419312000,4.59831201171875,-0.32062971591949463,-0.22601091861724854,-0.8776774406433105
1733511867429331200,4.608331298828125,-0.24182172119617462,-0.10457848757505417,-0.7619127631187439
1733511867439350300,4.618350341796875,-0.19601285457611084,0.030770467594265938,-0.7530530095100403
1733511867449368300,4.628368408203125,-0.1816922426223755,0.11395163834095001,-0.8214011788368225
1733511867459387400,4.638387451171875,-0.1673872470855713,0.12865549325942993,-0.9483637809753418
1733511867469406500,4.648406494140625,-0.057485781610012054,0.06821399182081223,-1.121109962463379
1733511867479425300,4.65842529296875,0.1136011853814125,-0.07717171311378479,-1.3002183437347412
1733511867489444400,4.6684443359375,0.24764953553676605,-0.24837808310985565,-1.4206515550613403
1733511867499463400,4.67846337890625,0.3401143252849579,-0.44527947902679443,-1.4667384624481201
1733511867509482500,4.688482421875,0.3874155282974243,-0.6523604989051819,-1.487884521484375
1733511867519500300,4.698500244140625,0.37975648045539856,-0.8121060132980347,-1.5580146312713623
1733511867529519400,4.708519287109375,0.32526740431785583,-0.9246336221694946,-1.6597031354904175
1733511867539538400,4.718538330078125,0.23361371457576752,-1.004029631614685,-1.7154425382614136
1733511867549557200,4.72855712890625,0.16497740149497986,-1.0635216236114502,-1.6769249439239502
1733511867559576300,4.738576416015625,0.1381268948316574,-1.0474649667739868,-1.5565640926361084
1733511867569595400,4.748595458984375,0.11942218989133835,-0.9939014315605164,-1.3434193134307861
1733511867579613200,4.75861328125,0.08729267120361328,-0.9238847494125366,-1.0340083837509155
1733511867589632300,4.76863232421875,0.07295101881027222,-0.8301012516021729,-0.6522649526596069
1733511867599651300,4.7786513671875,0.08435611426830292,-0.7607944011688232,-0.22900493443012238
1733511867609670400,4.78867041015625,0.1557498723268509,-0.6842402219772339,0.17211958765983582
1733511867619689200,4.798689208984375,0.26116499304771423,-0.6396786570549011,0.5677183270454407
1733511867629708300,4.808708251953125,0.30642086267471313,-0.5851660966873169,0.9918520450592041
1733511867639727400,4.818727294921875,0.3062629699707031,-0.4004305303096771,1.410177230834961
1733511867649745200,4.8287451171875,0.24581240117549896,-0.12020978331565857,1.7379356622695923
1733511867659764200,4.83876416015625,0.1197885274887085,0.20622773468494415,1.9076755046844482
1733511867669783300,4.848783203125,-0.030495252460241318,0.5397950410842896,1.8679438829421997
1733511867679801900,4.8588017578125,-0.12588812410831451,0.7418142557144165,1.6268985271453857
1733511867689820700,4.868820556640625,-0.12183372676372528,0.6329410672187805,1.2127537727355957
1733511867699839700,4.87883984375,-0.09532435983419418,0.20182429254055023,0.7290928959846497
1733511867709858800,4.88885888671875,-0.14203619956970215,-0.28184038400650024,0.32623833417892456
1733511867719876900,4.898876953125,-0.13830478489398956,-0.38226160407066345,-0.039384085685014725
1733511867729896000,4.90889599609375,-0.012201176956295967,0.38471654057502747,-0.49121174216270447
1733511867739915000,4.9189150390625,0.1509411484003067,1.1921470165252686,-0.7009732127189636
1733511867749934000,4.92893408203125,0.31386828422546387,1.2746342420578003,-0.43002849817276
1733511867759953000,4.938952880859375,0.3862384557723999,0.6839556097984314,0.2526237964630127
1733511867769972000,4.948971923828125,0.3223041892051697,-0.20575587451457977,1.0558600425720215
1733511867779990800,4.95899072265625,0.27550405263900757,-0.8192312121391296,1.464374303817749
1733511867790008800,4.9690087890625,0.26435980200767517,-1.0652949810028076,1.5278414487838745
1733511867800028000,4.97902783203125,0.2774606943130493,-1.1494231224060059,1.443768858909607
1733511867810047000,4.989046875,0.26236188411712646,-1.1079447269439697,1.315524935722351
1733511867820065800,4.999065673828125,0.2238895744085312,-0.9289265871047974,1.1767396926879883
1733511867830084900,5.0090849609375,0.18730466067790985,-0.6499085426330566,1.0673573017120361
1733511867840104000,5.01910400390625,0.14350195229053497,-0.25005418062210083,0.9952238202095032
1733511867850121700,5.029121826171875,0.057775069028139114,0.2074100375175476,0.9584205150604248
1733511867860140800,5.039140869140625,-0.03003796748816967,0.5693763494491577,0.9811409711837769
1733511867870160000,5.049159912109375,-0.08771005272865295,0.8471025228500366,1.0213747024536133
1733511867880179000,5.059178955078125,-0.16165298223495483,1.0496582984924316,1.0066990852355957
1733511867890197800,5.06919775390625,-0.23504836857318878,1.0927716493606567,0.9193305969238281
1733511867900216800,5.079216796875,-0.3489781320095062,1.0254545211791992,0.8194633722305298
1733511867910236000,5.08923583984375,-0.4985625445842743,0.9092174768447876,0.7851405739784241
1733511867920253700,5.099253662109375,-0.6390765905380249,0.8305089473724365,0.8526957035064697
1733511867930272800,5.109272705078125,-0.7266882061958313,0.87350994348526,0.9846324324607849
1733511867940291800,5.119291748046875,-0.7496042847633362,1.0616471767425537,1.11965811252594
1733511867950311000,5.129310791015625,-0.7149909138679504,1.3560173511505127,1.251065969467163
1733511867960329700,5.139329833984375,-0.651640772819519,1.7321877479553223,1.3405797481536865
1733511867970348800,5.149348876953125,-0.5794091820716858,2.0290236473083496,1.3912583589553833
1733511867980368000,5.159367919921875,-0.4874727427959442,2.209850788116455,1.4261345863342285
1733511867990385700,5.1693857421875,-0.4319583475589752,2.290182113647461,1.4393616914749146
1733511868000404700,5.17940478515625,-0.48610058426856995,2.3547513484954834,1.4574252367019653
1733511868010423800,5.189423828125,-0.5686226487159729,2.3536171913146973,1.4619015455245972
1733511868020442600,5.199442626953125,-0.6000661253929138,2.2613933086395264,1.4459155797958374
1733511868030461700,5.209461669921875,-0.5846464037895203,2.1357381343841553,1.4112838506698608
1733511868040480800,5.219480712890625,-0.5435466766357422,2.03727650642395,1.384844422340393
1733511868050498800,5.229498779296875,-0.4836106598377228,1.990965723991394,1.360347032546997
1733511868060518000,5.239517822265625,-0.41174742579460144,2.0121817588806152,1.332078456878662
1733511868070537000,5.249536865234375,-0.33560633659362793,2.069589853286743,1.304070234298706
1733511868080556000,5.25955615234375,-0.2587554156780243,2.1092593669891357,1.2797448635101318
1733511868090574800,5.269574951171875,-0.19671545922756195,2.085887908935547,1.2442021369934082
1733511868100594000,5.279593994140625,-0.15142476558685303,2.032724380493164,1.195413589477539
1733511868110613000,5.289613037109375,-0.13235759735107422,1.9467853307724,1.1404722929000854
1733511868120630800,5.299630859375,-0.12020406126976013,1.8136652708053589,1.0830672979354858
1733511868130649900,5.30964990234375,-0.1275072544813156,1.7041957378387451,1.0267337560653687
1733511868140669000,5.3196689453125,-0.1582583785057068,1.5737321376800537,0.9600273370742798
1733511868150688000,5.32968798828125,-0.21258100867271423,1.4265519380569458,0.8804824352264404
1733511868160706800,5.339706787109375,-0.26970136165618896,1.296514630317688,0.789389431476593
1733511868170726000,5.349725830078125,-0.29749277234077454,1.227031946182251,0.69419926404953
1733511868180744000,5.359743896484375,-0.29694369435310364,1.171549916267395,0.5811240673065186
1733511868190762800,5.3697626953125,-0.2843487858772278,1.073817253112793,0.441300630569458
1733511868200781800,5.37978173828125,-0.26777058839797974,0.9652203917503357,0.2994607985019684
1733511868210801000,5.38980078125,-0.2557344436645508,0.8586159348487854,0.16789159178733826
1733511868220820000,5.399820068359375,-0.25188684463500977,0.7488288879394531,0.04268978536128998
1733511868230838800,5.4098388671875,-0.24440628290176392,0.6263330578804016,-0.0892874225974083
1733511868240857900,5.41985791015625,-0.23751194775104523,0.5120393633842468,-0.21943041682243347
1733511868250876000,5.4298759765625,-0.2319832295179367,0.43466871976852417,-0.34033098816871643
1733511868260894700,5.439894775390625,-0.23377318680286407,0.4006136357784271,-0.42703813314437866
1733511868270913800,5.449913818359375,-0.25826919078826904,0.4046027958393097,-0.46293675899505615
1733511868280932900,5.459932861328125,-0.30508846044540405,0.4913204610347748,-0.44572901725769043
1733511868290951700,5.46995166015625,-0.3611093759536743,0.6446481943130493,-0.3920290470123291
1733511868300970800,5.479970703125,-0.4055100977420807,0.8097483515739441,-0.2916373312473297
1733511868310988800,5.48998876953125,-0.4282846748828888,0.9579756259918213,-0.16367140412330627
1733511868321007600,5.500007568359375,-0.413765013217926,1.081548810005188,-0.012691594660282135
1733511868331026700,5.510026611328125,-0.3732239902019501,1.1539843082427979,0.13744224607944489
1733511868341045800,5.520045654296875,-0.34962180256843567,1.222457766532898,0.28297269344329834
1733511868351064800,5.53006494140625,-0.3625514507293701,1.3089865446090698,0.40543466806411743
1733511868361083600,5.540083740234375,-0.3804851472377777,1.45614755153656,0.6073135137557983
1733511868371102700,5.550102783203125,-0.327341228723526,1.679375410079956,1.0983871221542358
1733511868381121000,5.56012109375,-0.3251357078552246,1.73066246509552,1.3490276336669922
1733511868391139800,5.570139892578125,-0.3529188632965088,1.3293229341506958,0.8489088416099548
1733511868401159000,5.580158935546875,-0.32173267006874084,0.5882609486579895,0.056619688868522644
1733511868411178000,5.590177978515625,-0.22892336547374725,-0.3303871750831604,-0.39266276359558105
1733511868421197000,5.600197021484375,-0.1803867369890213,-1.2126766443252563,-0.5085672736167908
1733511868431215900,5.6102158203125,-0.22024066746234894,-1.3913776874542236,-0.6128803491592407
1733511868441235000,5.62023486328125,-0.2833458185195923,-1.2057945728302002,-0.751966655254364
1733511868451253000,5.6302529296875,-0.2127174735069275,-1.2886409759521484,-0.8264393210411072
1733511868461271800,5.640271728515625,-0.01280078012496233,-1.6407153606414795,-0.6777665019035339
1733511868471291000,5.650290771484375,0.190928116440773,-1.925933837890625,-0.44742274284362793
1733511868481310000,5.66031005859375,0.3358088731765747,-2.0325069427490234,-0.3725920617580414
1733511868491329000,5.6703291015625,0.4378974437713623,-2.111126661300659,-0.4453464150428772
1733511868501347800,5.680347900390625,0.5498227477073669,-2.00905704498291,-0.6067667603492737
1733511868511366000,5.690365966796875,0.7204815745353699,-1.6902797222137451,-0.9067108631134033
1733511868521385000,5.700385009765625,0.9030277729034424,-1.2168868780136108,-1.2350831031799316
1733511868531403800,5.71040380859375,1.016303539276123,-0.6306271553039551,-1.5081603527069092
1733511868541422800,5.7204228515625,0.9931290149688721,0.1694348305463791,-1.6664265394210815
1733511868551442000,5.73044189453125,0.8400741815567017,1.103732943534851,-1.7547075748443604
1733511868561460700,5.740460693359375,0.710615873336792,1.9232964515686035,-1.7190862894058228
1733511868571479800,5.750479736328125,0.6607226729393005,2.25022292137146,-1.537885069847107
1733511868581497900,5.760497802734375,0.564041793346405,2.1638615131378174,-1.3495358228683472
1733511868591516700,5.7705166015625,0.42278480529785156,1.9967701435089111,-1.1639156341552734
1733511868601535700,5.78053564453125,0.08324826508760452,1.516013741493225,-0.972923994064331
1733511868611554800,5.790554931640625,-0.3112140893936157,0.20443513989448547,-1.0176275968551636
1733511868621574000,5.800573974609375,-0.3299919366836548,-1.6934925317764282,-1.3148765563964844
1733511868631592700,5.8105927734375,-0.2356683611869812,-2.471308946609497,-1.587554693222046
1733511868641610800,5.82061083984375,-0.18957063555717468,-2.2228176593780518,-1.7251511812210083
1733511868651629800,5.8306298828125,-0.23931849002838135,-1.5968266725540161,-1.6909120082855225
1733511868661648600,5.840648681640625,-0.36561843752861023,-0.9107382297515869,-1.5276252031326294
1733511868671667700,5.850667724609375,-0.5036695003509521,-0.2644151449203491,-1.3058781623840332
1733511868681687000,5.86068701171875,-0.5939614772796631,0.35426169633865356,-1.1158231496810913
1733511868691706000,5.8707060546875,-0.6075731515884399,0.8313840627670288,-1.01692533493042
1733511868701725200,5.88072509765625,-0.5362938046455383,1.0652889013290405,-1.0049577951431274
1733511868711743200,5.8907431640625,-0.4587652087211609,1.0281760692596436,-1.009482741355896
1733511868721762300,5.90076220703125,-0.4023413360118866,0.7522354125976562,-0.9801624417304993
1733511868731781000,5.910781005859375,-0.3639489412307739,0.3349688947200775,-0.9100320935249329
1733511868741800200,5.92080029296875,-0.3125429153442383,-0.11123847216367722,-0.8356326818466187
1733511868751819000,5.930819091796875,-0.25550785660743713,-0.4832218885421753,-0.7832554578781128
1733511868761838000,5.940838134765625,-0.2147626131772995,-0.699582576751709,-0.7657321095466614
1733511868771856100,5.950856201171875,-0.18448512256145477,-0.7220476865768433,-0.8224360942840576
1733511868781875200,5.960875244140625,-0.13547129929065704,-0.5865805149078369,-0.9497916102409363
1733511868791894300,5.970894287109375,-0.0842219665646553,-0.39051568508148193,-1.0875110626220703
1733511868801913300,5.980913330078125,-0.06954735517501831,-0.25292468070983887,-1.2248445749282837
1733511868811932200,5.99093212890625,-0.03234965726733208,-0.2353355586528778,-1.3755762577056885
1733511868821951200,6.000951171875,0.06256529688835144,-0.34244614839553833,-1.5263268947601318
1733511868831969300,6.01096923828125,0.1702057272195816,-0.5478853583335876,-1.660001277923584
1733511868841988000,6.020988037109375,0.2488197535276413,-0.790701687335968,-1.7404252290725708
1733511868852007200,6.031007080078125,0.294965922832489,-0.9960420727729797,-1.7642306089401245
1733511868862026200,6.041026123046875,0.2917245030403137,-1.1452959775924683,-1.7621301412582397
1733511868872045300,6.05104541015625,0.2138182520866394,-1.2313957214355469,-1.7595309019088745
1733511868882064100,6.061064208984375,0.044219668954610825,-1.271229863166809,-1.8150668144226074
1733511868892083200,6.071083251953125,-0.20144867897033691,-1.2235922813415527,-1.9899486303329468
1733511868902101200,6.081101318359375,-0.4504818320274353,-1.036315679550171,-2.228693962097168
1733511868912120000,6.0911201171875,-0.5790770649909973,-0.9301971793174744,-2.187459707260132
1733511868922139100,6.10113916015625,-0.5324220061302185,-1.1625303030014038,-1.4874327182769775
1733511868932158200,6.111158203125,-0.3906358778476715,-1.4190064668655396,-0.13987544178962708
1733511868942177000,6.121177001953125,-0.33198925852775574,-1.0592103004455566,1.088722586631775
1733511868952196000,6.131196044921875,-0.18697986006736755,-0.2865700125694275,1.93601655960083
1733511868962215200,6.141215087890625,0.044005054980516434,0.5240551829338074,2.480909585952759
1733511868972233000,6.15123291015625,0.21597282588481903,1.1640535593032837,2.7317280769348145
1733511868982252000,6.161251953125,0.34474197030067444,1.4940725564956665,2.715203285217285
1733511868992271000,6.17127099609375,0.4995616376399994,1.505492091178894,2.468226909637451
1733511869002290200,6.181290283203125,0.6341713070869446,1.2582292556762695,2.029330253601074
1733511869012309000,6.19130908203125,0.6111575961112976,0.8445151448249817,1.5379419326782227
1733511869022328000,6.201328125,0.5573428869247437,0.4253603518009186,1.2039122581481934
1733511869032346400,6.211346435546875,0.5141240358352661,0.11088977009057999,1.0974856615066528
1733511869042365200,6.221365234375,0.3912009298801422,-0.09364636242389679,1.1047148704528809
1733511869052384300,6.23138427734375,0.236026793718338,-0.09881236404180527,1.0916649103164673
1733511869062403300,6.2414033203125,0.16575923562049866,0.0854148268699646,1.0046358108520508
1733511869072422100,6.251422119140625,0.25146907567977905,0.1810058057308197,1.0033191442489624
1733511869082441200,6.261441162109375,0.3820759057998657,-0.10945294797420502,1.1948137283325195
1733511869092459300,6.271459228515625,0.3787893056869507,-0.5598635673522949,1.4596501588821411
1733511869102478300,6.281478271484375,0.2724348306655884,-0.8639088869094849,1.6503117084503174
1733511869112497200,6.2914970703125,0.14732404053211212,-0.8541462421417236,1.6471247673034668
1733511869122516200,6.30151611328125,0.0879400297999382,-0.6369211077690125,1.4603017568588257
1733511869132535300,6.311535400390625,0.07028726488351822,-0.4089851379394531,1.2134437561035156
1733511869142554400,6.321554443359375,0.062383223325014114,-0.2949000298976898,1.0607337951660156
1733511869152573200,6.3315732421875,0.043378110975027084,-0.26578769087791443,1.0702556371688843
1733511869162591200,6.34159130859375,-0.021790696308016777,-0.11535417288541794,1.1192255020141602
1733511869172610300,6.3516103515625,-0.10484350472688675,0.15594124794006348,1.123281717300415
1733511869182629000,6.361629150390625,-0.15633726119995117,0.3713313639163971,1.1241223812103271
1733511869192648200,6.371648193359375,-0.1990698277950287,0.4720750153064728,1.173219084739685
1733511869202667300,6.381667236328125,-0.24125418066978455,0.5358030796051025,1.2748024463653564
1733511869212686000,6.39168603515625,-0.2847534418106079,0.606445848941803,1.3687057495117188
1733511869222704000,6.4017041015625,-0.3255661129951477,0.7436081171035767,1.4087532758712769
1733511869232723200,6.41172314453125,-0.3509702682495117,1.0411244630813599,1.3814764022827148
1733511869242742000,6.421741943359375,-0.4073353111743927,1.3242334127426147,1.3205699920654297
1733511869252761000,6.431760986328125,-0.46585747599601746,1.5831794738769531,1.2631953954696655
1733511869262780200,6.4417802734375,-0.4885605573654175,1.899659276008606,1.2375316619873047
1733511869272799200,6.45179931640625,-0.454941064119339,2.0978245735168457,1.2577264308929443
1733511869282818000,6.461818115234375,-0.38951507210731506,2.2302212715148926,1.3292508125305176
1733511869292836000,6.471836181640625,-0.3258061408996582,2.351804494857788,1.4252647161483765
1733511869302855200,6.481855224609375,-0.29582640528678894,2.4598727226257324,1.5180224180221558
1733511869312874000,6.4918740234375,-0.30624496936798096,2.4820239543914795,1.5902608633041382
1733511869322893000,6.50189306640625,-0.2981210947036743,2.406863212585449,1.6257590055465698
1733511869332912000,6.511912109375,-0.2727121412754059,2.243316173553467,1.5968223810195923
1733511869342931200,6.52193115234375,-0.28156915307044983,2.0855178833007812,1.5288960933685303
1733511869352949200,6.53194921875,-0.3411363363265991,1.9424220323562622,1.4453612565994263
1733511869362968300,6.54196826171875,-0.3961060047149658,1.873307228088379,1.3557649850845337
1733511869372987400,6.5519873046875,-0.4114775061607361,1.8648298978805542,1.2737617492675781
1733511869383006200,6.562006103515625,-0.39223629236221313,1.8806167840957642,1.1916927099227905
1733511869393025300,6.572025390625,-0.35538268089294434,1.8717976808547974,1.092360019683838
1733511869403044000,6.582044189453125,-0.30626875162124634,1.799124836921692,0.9701654314994812
1733511869413062100,6.592062255859375,-0.2519322633743286,1.7000224590301514,0.8539352416992188
1733511869423081200,6.602081298828125,-0.20452634990215302,1.600018858909607,0.7490979433059692
1733511869433100300,6.612100341796875,-0.1778542548418045,1.485473871231079,0.6696041822433472
1733511869443119400,6.622119384765625,-0.1678430140018463,1.399227499961853,0.6138857007026672
1733511869453138200,6.63213818359375,-0.16245491802692413,1.3642516136169434,0.5823477506637573
1733511869463157200,6.6421572265625,-0.16711728274822235,1.3749475479125977,0.5739326477050781
1733511869473175300,6.65217529296875,-0.16531804203987122,1.4451674222946167,0.5800912380218506
1733511869483194000,6.662194091796875,-0.15474073588848114,1.520814299583435,0.561136782169342
1733511869493213200,6.672213134765625,-0.1336013674736023,1.543298602104187,0.500839114189148
1733511869503232300,6.682232177734375,-0.13398665189743042,1.4708781242370605,0.4066289961338043
1733511869513251000,6.6922509765625,-0.1696232110261917,1.3220769166946411,0.31381621956825256
1733511869523270100,6.702270263671875,-0.24970147013664246,1.1630009412765503,0.22293217480182648
1733511869533289200,6.712289306640625,-0.34665489196777344,1.0120433568954468,0.11375003308057785
1733511869543307000,6.72230712890625,-0.4362596869468689,0.8894996047019958,0.022256506606936455
1733511869553326000,6.732326171875,-0.4899154603481293,0.8536409139633179,-0.03781775012612343
1733511869563345200,6.74234521484375,-0.5423535108566284,0.8963210582733154,-0.06459597498178482
1733511869573364200,6.7523642578125,-0.6023212671279907,0.9125924706459045,-0.12222198396921158
1733511869583383000,6.762383056640625,-0.6414421796798706,0.7986456155776978,-0.21858792006969452
1733511869593402000,6.772402099609375,-0.6794856786727905,0.5550822019577026,-0.34682124853134155
1733511869603420200,6.782420166015625,-0.7033053040504456,0.24044236540794373,-0.470890074968338
1733511869613439000,6.79243896484375,-0.6717620491981506,-0.06132467836141586,-0.4922685921192169
1733511869623458000,6.8024580078125,-0.6180568933486938,-0.15309564769268036,-0.6384584903717041
1733511869633477000,6.81247705078125,-0.5855689644813538,-0.0960555374622345,-0.8492119908332825
1733511869643496200,6.82249609375,-0.5779523849487305,-0.08860039710998535,-0.8463047742843628
1733511869653515000,6.832514892578125,-0.5192014575004578,-0.11748477071523666,-0.6994695663452148
1733511869663534000,6.8425341796875,-0.35371872782707214,-0.3860883116722107,-0.5959210991859436
1733511869673552400,6.852552490234375,-0.18919503688812256,-1.1150914430618286,-0.6201518774032593
1733511869683571000,6.862571044921875,-0.11286742240190506,-2.1547341346740723,-0.8434427380561829
1733511869693590000,6.872590087890625,-0.016493752598762512,-2.4649770259857178,-1.8386577367782593
1733511869703608800,6.88260888671875,0.36836978793144226,-0.6524805426597595,-2.3239166736602783
1733511869713628000,6.8926279296875,0.4710378348827362,-0.2830337882041931,-0.8855298757553101
1733511869723647000,6.90264697265625,0.3621407747268677,-0.6411998271942139,0.3806324899196625
1733511869733664800,6.912664794921875,0.1876952052116394,-0.4420073628425598,0.9881043434143066
1733511869743683800,6.922683837890625,0.05879049003124237,0.21054735779762268,1.1647396087646484
1733511869753703000,6.932702880859375,0.20034337043762207,1.3259518146514893,0.9476116299629211
1733511869763722000,6.942721923828125,0.5639699697494507,2.325413227081299,0.44523385167121887
1733511869773740800,6.95274072265625,0.9005303978919983,2.851027011871338,-0.19333359599113464
1733511869783760000,6.962759765625,0.9685618281364441,3.011636972427368,-0.8168445825576782
1733511869793778000,6.97277783203125,0.6440449953079224,3.142627239227295,-1.3579795360565186
1733511869803796700,6.982796630859375,0.25916895270347595,2.9984703063964844,-1.631361722946167
1733511869813815800,6.99281591796875,0.2261657416820526,2.21972918510437,-1.4679204225540161
1733511869823835000,7.0028349609375,0.15703433752059937,1.2244590520858765,-1.1362454891204834
1733511869833853700,7.012853759765625,-0.08101869374513626,-0.3227883279323578,-1.1738168001174927
1733511869843872800,7.022872802734375,-0.20503322780132294,-1.9648215770721436,-1.4420469999313354
1733511869853891800,7.032891845703125,-0.10141175240278244,-2.5138986110687256,-1.538940191268921
1733511869863909600,7.04290966796875,-0.0327497199177742,-2.2751245498657227,-1.4567596912384033
1733511869873928700,7.0529287109375,-0.1391185075044632,-1.83525550365448,-1.2569429874420166
1733511869883947800,7.06294775390625,-0.3729047477245331,-1.397671103477478,-1.0236008167266846
1733511869893966800,7.072966796875,-0.6634231209754944,-0.9196233153343201,-0.8621946573257446
1733511869903985700,7.082985595703125,-0.9165490865707397,-0.3107832968235016,-0.8726793527603149
1733511869914004700,7.093004638671875,-1.0323617458343506,0.3937056362628937,-1.0933928489685059
1733511869924023000,7.10302294921875,-0.925987184047699,0.9754465818405151,-1.3206307888031006
1733511869934041900,7.113041748046875,-0.6804112195968628,1.1840709447860718,-1.339387059211731
1733511869944061000,7.12306103515625,-0.49364742636680603,1.0185874700546265,-1.1459792852401733
1733511869954079700,7.133079833984375,-0.386684775352478,0.7085137367248535,-0.873514711856842
1733511869964098800,7.143098876953125,-0.29521840810775757,0.4949985444545746,-0.7135869860649109
1733511869974117600,7.15311767578125,-0.18912047147750854,0.43364572525024414,-0.7198294401168823
1733511869984136000,7.163135986328125,-0.0748145654797554,0.3674032390117645,-0.7882074117660522
1733511869994155000,7.173155029296875,0.0076201241463422775,0.18781375885009766,-0.8381068110466003
1733511870004173800,7.183173828125,0.039695873856544495,-0.027111496776342392,-0.8747690320014954
1733511870014193000,7.19319287109375,0.05261034145951271,-0.22291456162929535,-0.9351466298103333
1733511870024212000,7.2032119140625,0.04698146507143974,-0.37929531931877136,-1.0443310737609863
1733511870034231000,7.21323095703125,0.032358843833208084,-0.46017447113990784,-1.205519676208496
1733511870044248800,7.223248779296875,0.044610731303691864,-0.5464798808097839,-1.3640555143356323
1733511870054268000,7.233267822265625,0.09911151975393295,-0.6905220150947571,-1.4623202085494995
1733511870064287000,7.243286865234375,0.2071530818939209,-0.90689617395401,-1.5019173622131348
1733511870074305800,7.253305908203125,0.3255345821380615,-1.137303352355957,-1.519676685333252
1733511870084324900,7.263324951171875,0.42430660128593445,-1.2976802587509155,-1.5136408805847168
1733511870094344000,7.273343994140625,0.4832253158092499,-1.3017112016677856,-1.4658093452453613
1733511870104362800,7.28336279296875,0.4747689366340637,-1.1465744972229004,-1.3545001745224
1733511870114380800,7.293380859375,0.40231338143348694,-0.8592668771743774,-1.1710989475250244
1733511870124399900,7.30339990234375,0.2949734628200531,-0.5461763143539429,-0.9436472654342651
1733511870134418700,7.313418701171875,0.18860384821891785,-0.25081178545951843,-0.7030077576637268
1733511870144437800,7.323437744140625,0.09376111626625061,0.034817345440387726,-0.466646671295166
1733511870154456800,7.333456787109375,-0.005146291106939316,0.3515731990337372,-0.2130812555551529
1733511870164476000,7.343475830078125,-0.08839526027441025,0.7037935256958008,0.04236125200986862
1733511870174493700,7.35349365234375,-0.1350620985031128,1.0617032051086426,0.2876652777194977
1733511870184512800,7.3635126953125,-0.17136584222316742,1.3263520002365112,0.5050840973854065
1733511870194531800,7.37353173828125,-0.20762291550636292,1.4023295640945435,0.6922531723976135
1733511870204550700,7.383550537109375,-0.20390887558460236,1.345200777053833,0.8256453275680542
1733511870214569700,7.39356982421875,-0.12327075004577637,1.313900351524353,0.8266549706459045
1733511870224588800,7.4035888671875,-0.012436116114258766,1.42649507522583,0.6677313446998596
1733511870234606800,7.41360693359375,0.09519793838262558,1.5658012628555298,0.5076172947883606
1733511870244626000,7.4236259765625,0.25228509306907654,1.4935439825057983,0.5552562475204468
1733511870254645000,7.43364501953125,0.49196186661720276,1.091313123703003,0.9795255064964294
1733511870264663800,7.443663818359375,0.7385314106941223,0.5962194800376892,1.6711392402648926
1733511870274683000,7.453682861328125,0.8097779154777527,0.21032504737377167,2.1604669094085693
1733511870284702000,7.463701904296875,0.829129695892334,-0.20025336742401123,2.352783203125
1733511870294720000,7.473719970703125,0.8150181174278259,-0.6564115881919861,2.380075693130493
1733511870304738800,7.48373876953125,0.7408896684646606,-1.0328010320663452,2.2937169075012207
1733511870314758000,7.4937578125,0.6340489983558655,-1.2131071090698242,2.1176235675811768
1733511870324777000,7.50377685546875,0.5159289240837097,-1.2003629207611084,1.9238460063934326
1733511870334796000,7.513796142578125,0.43300631642341614,-1.0021865367889404,1.7602776288986206
1733511870344814800,7.52381494140625,0.41141974925994873,-0.7943204045295715,1.665763258934021
1733511870354834000,7.533833984375,0.26887086033821106,-0.3679957389831543,1.604556918144226
1733511870364852000,7.54385205078125,0.056832510977983475,0.28670015931129456,1.538667917251587
1733511870374870800,7.553870849609375,-0.027577444911003113,0.8854693174362183,1.4350477457046509
1733511870384889900,7.563889892578125,-0.04208113253116608,1.174120306968689,1.2903451919555664
1733511870394909000,7.573908935546875,-0.04539277032017708,1.2561984062194824,1.1469520330429077
1733511870404927700,7.583927734375,-0.07139797508716583,1.2304970026016235,1.01413893699646
1733511870414945800,7.59394580078125,-0.10481851547956467,1.2328474521636963,0.9596951603889465
1733511870424964900,7.60396484375,-0.12656696140766144,1.2826565504074097,1.0138670206069946
1733511870434983700,7.613983642578125,-0.1405315101146698,1.3356492519378662,1.1266313791275024
1733511870445002800,7.624002685546875,-0.17878280580043793,1.4978548288345337,1.2402889728546143
1733511870455021800,7.634021728515625,-0.2560823857784271,1.7786548137664795,1.2980492115020752
1733511870465041000,7.644041015625,-0.28346139192581177,1.9984793663024902,1.296736240386963
1733511870475059700,7.654059814453125,-0.25511202216148376,2.1032803058624268,1.250091552734375
1733511870485077800,7.664077880859375,-0.24506619572639465,2.110092878341675,1.1499760150909424
1733511870495096800,7.674096923828125,-0.27434685826301575,2.0636565685272217,1.008324384689331
1733511870505115600,7.68411572265625,-0.29818272590637207,1.966471552848816,0.8562051057815552
1733511870515134700,7.694134765625,-0.31342053413391113,1.8500458002090454,0.7129976153373718
1733511870525153800,7.70415380859375,-0.33438822627067566,1.7659162282943726,0.5967211127281189
1733511870535172900,7.7141728515625,-0.3702943027019501,1.6960498094558716,0.5065555572509766
1733511870545191000,7.72419091796875,-0.4165521264076233,1.6358245611190796,0.4500502347946167
1733511870555210000,7.7342099609375,-0.4705977737903595,1.5688912868499756,0.4368324279785156
1733511870565229000,7.74422900390625,-0.5067794322967529,1.4561899900436401,0.489614337682724
1733511870575248000,7.754247802734375,-0.5120812654495239,1.2994359731674194,0.5958827137947083
1733511870585267000,7.764266845703125,-0.5100654363632202,1.1478434801101685,0.7382965087890625
1733511870595286000,7.7742861328125,-0.5149214267730713,1.0669610500335693,0.8767081499099731
1733511870605303800,7.7843037109375,-0.5111148357391357,1.1363091468811035,1.0039113759994507
1733511870615323000,7.794322998046875,-0.48241451382637024,1.4537699222564697,1.1003167629241943
1733511870625342000,7.804342041015625,-0.4132717251777649,1.8172731399536133,1.1808632612228394
1733511870635361000,7.814361083984375,-0.33092838525772095,2.0293192863464355,1.2307308912277222
1733511870645379800,7.8243798828125,-0.2466477006673813,2.164896249771118,1.2319012880325317
1733511870655399000,7.83439892578125,-0.1670554131269455,2.2496230602264404,1.2119752168655396
1733511870665417000,7.8444169921875,-0.11557915806770325,2.2958016395568848,1.1691399812698364
1733511870675435800,7.854435791015625,-0.08862636983394623,2.293252468109131,1.120530128479004
1733511870685454800,7.864454833984375,-0.06824500113725662,2.2136776447296143,1.0668976306915283
1733511870695474000,7.874473876953125,-0.056468769907951355,2.0733535289764404,1.0065903663635254
1733511870705493000,7.884492919921875,-0.05051692947745323,1.9034111499786377,0.9428818225860596
1733511870715512000,7.894511962890625,-0.06942590326070786,1.6979084014892578,0.9040473699569702
1733511870725529900,7.90452978515625,-0.10934373736381531,1.4805045127868652,0.9226940274238586
1733511870735549000,7.914548828125,-0.14786556363105774,1.3182584047317505,0.9660976529121399
1733511870745568000,7.924568115234375,-0.1958542764186859,1.2090058326721191,0.9833672046661377
1733511870755586800,7.9345869140625,-0.2577693462371826,1.1220566034317017,0.9301846623420715
1733511870765606000,7.94460595703125,-0.3345470428466797,1.0485327243804932,0.8291435241699219
1733511870775625000,7.954625,-0.4065016806125641,0.9968127608299255,0.7139413356781006
1733511870785644000,7.96464404296875,-0.4601713716983795,0.9681582450866699,0.601036787033081
1733511870795661800,7.974661865234375,-0.4925367832183838,0.9416414499282837,0.4833434522151947
1733511870805681000,7.984680908203125,-0.5091334581375122,0.9035332798957825,0.3583921790122986
1733511870815700000,7.994699951171875,-0.5038806200027466,0.8504010438919067,0.23594029247760773
1733511870825718800,8.00471875,-0.4893632233142853,0.8011514544487,0.1210852563381195
1733511870835737900,8.01473779296875,-0.4687652885913849,0.7566598653793335,0.021204471588134766
1733511870845757000,8.0247568359375,-0.4379514753818512,0.7104073762893677,-0.061781276017427444
1733511870855775000,8.03477490234375,-0.39371582865715027,0.6459540724754333,-0.14662134647369385
1733511870865794000,8.0447939453125,-0.34114107489585876,0.5630879402160645,-0.21645723283290863
1733511870875813000,8.054813232421875,-0.30066847801208496,0.4920867085456848,-0.2700706422328949
1733511870885832200,8.064832275390625,-0.2867249548435211,0.49269378185272217,-0.32348236441612244
1733511870895851000,8.07485107421875,-0.32039424777030945,0.5495229363441467,-0.38886722922325134
1733511870905870000,8.0848701171875,-0.379839688539505,0.5940315127372742,-0.43757858872413635
1733511870915888000,8.09488818359375,-0.4318557679653168,0.6641759872436523,-0.3754843473434448
1733511870925907000,8.104906982421875,-0.49493443965911865,0.8361476063728333,-0.09569527208805084
1733511870935926000,8.114926025390625,-0.6113947033882141,1.1116995811462402,0.13947436213493347
1733511870945945000,8.124945068359375,-0.7257509827613831,1.3257386684417725,0.00742729427292943
1733511870955964000,8.1349638671875,-0.7390729188919067,1.1604578495025635,-0.2899641692638397
1733511870965983000,8.14498291015625,-0.5966281294822693,0.45619839429855347,-0.4086620807647705
1733511870976001000,8.1550009765625,-0.37469732761383057,-0.5275972485542297,-0.33333563804626465
1733511870986019800,8.165019775390626,-0.21787430346012115,-1.3194835186004639,-0.2233249396085739
1733511870996039000,8.175038818359376,-0.1311924010515213,-1.6659421920776367,-0.20985333621501923
1733511871006058000,8.18505810546875,-0.026871174573898315,-1.5482186079025269,-0.33865877985954285
1733511871016077000,8.1950771484375,0.04277155175805092,-1.223494291305542,-0.49453359842300415
1733511871026095900,8.205095947265624,0.06594326347112656,-1.0195555686950684,-0.5796923041343689
1733511871036114000,8.215114013671876,0.135483980178833,-1.1215341091156006,-0.650209367275238
1733511871046133000,8.225133056640624,0.24413204193115234,-1.5496950149536133,-0.7734857201576233
1733511871056151800,8.23515185546875,0.3703107535839081,-2.1079204082489014,-0.9744449257850647
1733511871066171000,8.2451708984375,0.48877716064453125,-2.4824204444885254,-1.2175039052963257
1733511871076190000,8.25518994140625,0.6025132536888123,-2.385798692703247,-1.4497530460357666
1733511871086209000,8.265208984375,0.696143388748169,-1.85391104221344,-1.6102527379989624
1733511871096226800,8.275226806640624,0.7154765725135803,-1.1195846796035767,-1.6537586450576782
1733511871106246000,8.285245849609375,0.6737185120582581,-0.3598160743713379,-1.5875989198684692
1733511871116265000,8.295264892578125,0.5539495348930359,0.37308743596076965,-1.4543887376785278
1733511871126283800,8.30528369140625,0.37728241086006165,0.9277603030204773,-1.3097949028015137
1733511871136302800,8.315302734375,0.1355792135000229,1.2741773128509521,-1.2184895277023315
1733511871146322000,8.325322021484375,-0.04309945926070213,1.2841951847076416,-1.1441700458526611
1733511871156340000,8.335340087890625,-0.09723886847496033,0.8634854555130005,-1.0887269973754883
1733511871166359000,8.345359130859375,-0.12702129781246185,-0.7032983303070068,-1.143479585647583
1733511871176378000,8.355378173828125,-0.2538732886314392,-2.734231472015381,-1.3375155925750732
1733511871186397200,8.365397216796875,-0.4157103896141052,-3.1815099716186523,-1.4807995557785034
1733511871196416000,8.375416015625,-0.5432859063148499,-2.6165974140167236,-1.4988880157470703
1733511871206435000,8.38543505859375,-0.6503059267997742,-1.7803560495376587,-1.3372024297714233
1733511871216453000,8.395453125,-0.6963626742362976,-0.9435243606567383,-1.0596150159835815
1733511871226472000,8.405471923828125,-0.6480593681335449,-0.2585245370864868,-0.7702120542526245
1733511871236491000,8.415490966796876,-0.5468315482139587,0.241975337266922,-0.5508554577827454
1733511871246510000,8.425510009765626,-0.46379515528678894,0.6016800999641418,-0.4313272535800934
1733511871256529000,8.43552880859375,-0.4281061291694641,0.7997958064079285,-0.38735151290893555
1733511871266548000,8.4455478515625,-0.41810524463653564,0.7914071083068848,-0.409771203994751
1733511871276567000,8.455567138671874,-0.4040522575378418,0.5917757749557495,-0.49554574489593506
1733511871286584800,8.465584716796876,-0.3538205325603485,0.2343844175338745,-0.621036171913147
1733511871296604000,8.47560400390625,-0.2825990617275238,-0.20619136095046997,-0.7410395741462708
1733511871306623000,8.485623046875,-0.21977488696575165,-0.6145505905151367,-0.824533998966217
1733511871316642000,8.49564208984375,-0.16503147780895233,-0.9291367530822754,-0.8734868764877319
1733511871326660900,8.505660888671875,-0.09813983738422394,-1.126186490058899,-0.9124718904495239
1733511871336680000,8.515679931640625,-0.021304447203874588,-1.190151572227478,-0.9528949856758118
1733511871346698000,8.525697998046875,0.03128426522016525,-1.136691927909851,-0.9864094853401184
1733511871356716800,8.535716796875,0.04672953113913536,-0.9596182703971863,-0.9957659840583801
1733511871366736000,8.54573583984375,0.05298168957233429,-0.6654700636863708,-0.9696149826049805
1733511871376755000,8.5557548828125,0.059930142015218735,-0.2656337320804596,-0.9264933466911316
1733511871386774000,8.56577392578125,0.06510598212480545,0.185485377907753,-0.8760315775871277
1733511871396791800,8.575791748046875,0.06299649178981781,0.5901399254798889,-0.8385590314865112
1733511871406811000,8.585810791015625,0.055970802903175354,0.8418155312538147,-0.8500624299049377
1733511871416830000,8.595829833984375,0.060370609164237976,0.8942694067955017,-0.9288661479949951
1733511871426848800,8.605848876953125,0.07130011171102524,0.7619807124137878,-1.0826016664505005
1733511871436867800,8.615867919921875,0.07996657490730286,0.4808124005794525,-1.2836695909500122
1733511871446887000,8.625886962890625,0.08880671858787537,0.053506650030612946,-1.5267728567123413
1733511871456905000,8.635905029296875,0.09009701758623123,-0.4967905879020691,-1.7772109508514404
1733511871466924000,8.645924072265625,0.06611086428165436,-1.056113839149475,-1.9855029582977295
1733511871476943000,8.655943115234376,0.009065421298146248,-1.4800907373428345,-2.098938465118408
1733511871486962200,8.665962158203126,-0.11751687526702881,-1.684228539466858,-2.0766050815582275
1733511871496981000,8.67598095703125,-0.29288870096206665,-1.6610372066497803,-1.9176557064056396
1733511871507000000,8.686,-0.43762263655662537,-1.496446132659912,-1.6806342601776123
1733511871517019100,8.69601904296875,-0.522503674030304,-1.2834819555282593,-1.4342681169509888
1733511871527037000,8.706036865234376,-0.5699137449264526,-1.0362181663513184,-1.190255045890808
1733511871537056000,8.716055908203124,-0.5855861902236938,-0.783083438873291,-0.8910768032073975
1733511871547075000,8.726074951171874,-0.57204270362854,-0.5691312551498413,-0.5166036486625671
1733511871557094000,8.736093994140624,-0.502255916595459,-0.3865925669670105,-0.11633399873971939
1733511871567113000,8.746113037109374,-0.38403260707855225,-0.2071591317653656,0.299698144197464
1733511871577132000,8.756132080078125,-0.3022077977657318,-0.03492823243141174,0.7081002593040466
1733511871587149800,8.76614990234375,-0.2677953243255615,0.12627480924129486,1.0798742771148682
1733511871597169000,8.7761689453125,-0.20633648335933685,0.29364410042762756,1.3506184816360474
1733511871607188000,8.78618798828125,-0.07357967644929886,0.4550497829914093,1.477333903312683
1733511871617207000,8.79620703125,0.07002223283052444,0.5286970734596252,1.4606441259384155
1733511871627225900,8.806225830078125,0.20152316987514496,0.4766046702861786,1.3837289810180664
1733511871637245000,8.816244873046875,0.32555803656578064,0.19946308434009552,1.361544132232666
1733511871647263000,8.826262939453125,0.43022042512893677,-0.29001307487487793,1.4641082286834717
1733511871657281800,8.83628173828125,0.5081817507743835,-0.8013208508491516,1.6538395881652832
1733511871667300900,8.84630078125,0.5260452628135681,-1.1665805578231812,1.8581187725067139
1733511871677320000,8.85631982421875,0.5123624801635742,-1.3197295665740967,2.038731813430786
1733511871687339300,8.86633935546875,0.4639246463775635,-1.3719929456710815,2.1858043670654297
1733511871697358300,8.8763583984375,0.464184045791626,-1.3218650817871094,2.2611100673675537
1733511871707376400,8.88637646484375,0.48588329553604126,-1.3292219638824463,2.273061513900757
1733511871717395200,8.896395263671875,0.4628317654132843,-1.4238427877426147,2.239692449569702
1733511871727414300,8.906414306640626,0.41171959042549133,-1.5726677179336548,2.1884052753448486
1733511871737433300,8.916433349609376,0.3090938925743103,-1.7510571479797363,2.181715726852417
1733511871747452400,8.926452392578126,0.1761535108089447,-1.6860452890396118,2.097006320953369
1733511871757471200,8.93647119140625,0.11562971770763397,-1.3578171730041504,1.8713256120681763
1733511871767489500,8.946489501953126,0.04954871907830238,-1.0657925605773926,1.5401629209518433
1733511871777508600,8.956508544921874,-0.04989877715706825,-0.8935132026672363,1.1674585342407227
1733511871787527400,8.96652734375,-0.16691642999649048,-0.7785808444023132,0.7829992771148682
1733511871797546500,8.97654638671875,-0.40064185857772827,-0.5645266175270081,0.3997722864151001
1733511871807565600,8.986565673828125,-0.5927556753158569,-0.5617824196815491,0.32309383153915405
1733511871817584600,8.996584716796875,-0.6425389647483826,-0.6803540587425232,0.8466622233390808
1733511871827602400,9.0066025390625,-0.5313459038734436,-0.06365756690502167,1.5777614116668701
1733511871837621500,9.01662158203125,-0.40522897243499756,1.1068669557571411,2.157764196395874
1733511871847640600,9.026640625,-0.3086138367652893,2.1153056621551514,2.4957759380340576
1733511871857659400,9.036659423828125,-0.238031268119812,2.46160626411438,2.5322585105895996
1733511871867678500,9.046678466796875,-0.20306158065795898,2.2299797534942627,2.3332908153533936
1733511871877697500,9.056697509765625,-0.18844854831695557,1.7995004653930664,2.059709310531616
1733511871887715300,9.06671533203125,-0.17930558323860168,1.447611689567566,1.7983840703964233
1733511871897734400,9.076734375,-0.19056569039821625,1.3058537244796753,1.5816203355789185
1733511871907753500,9.08675341796875,-0.23422540724277496,1.3177305459976196,1.4316781759262085
1733511871917772500,9.0967724609375,-0.26476892828941345,1.3211380243301392,1.2888070344924927
1733511871927791400,9.106791259765625,-0.2892715632915497,1.33835768699646,1.1326102018356323
1733511871937810400,9.116810546875,-0.3170376718044281,1.3007160425186157,0.9674238562583923
1733511871947828500,9.126828369140625,-0.33324968814849854,1.1851675510406494,0.7980926036834717
1733511871957847300,9.136847412109375,-0.35145530104637146,1.0248974561691284,0.660361647605896
1733511871967866400,9.146866455078126,-0.37290048599243164,0.8491790890693665,0.551996111869812
1733511871977885400,9.156885498046876,-0.3859696686267853,0.647639811038971,0.45790478587150574
1733511871987904300,9.166904296875,-0.3862263858318329,0.4260282516479492,0.3824443221092224
1733511871997923300,9.17692333984375,-0.38204681873321533,0.2617085576057434,0.33263710141181946
1733511872007941400,9.18694140625,-0.3618912398815155,0.21591851115226746,0.30089813470840454
1733511872017960200,9.196960205078126,-0.3240455985069275,0.24198660254478455,0.27364039421081543
1733511872027979300,9.206979248046874,-0.2745520770549774,0.3060010075569153,0.23842276632785797
1733511872037998300,9.216998291015624,-0.23515939712524414,0.40031445026397705,0.17068792879581451
1733511872048017400,9.227017333984374,-0.21733415126800537,0.4480557143688202,0.05861840024590492
1733511872058036200,9.2370361328125,-0.2279183566570282,0.37696585059165955,-0.09132848680019379
1733511872068054500,9.247054443359374,-0.2692962884902954,0.29348301887512207,-0.25287508964538574
1733511872078073600,9.257073486328125,-0.3315197229385376,0.2907828390598297,-0.35513222217559814
1733511872088092400,9.267092529296875,-0.40566086769104004,0.3739664852619171,-0.3360072672367096
1733511872098111500,9.277111572265625,-0.46529704332351685,0.5333817005157471,-0.16240033507347107
1733511872108130600,9.287130615234375,-0.5008831024169922,0.8292304277420044,0.13741131126880646
1733511872118149600,9.297149658203125,-0.4859108328819275,1.2278352975845337,0.4635992646217346
1733511872128167400,9.30716748046875,-0.4265519976615906,1.5301761627197266,0.8273853659629822
1733511872138186500,9.3171865234375,-0.36081719398498535,1.7313101291656494,1.09004807472229
1733511872148205600,9.32720556640625,-0.31677117943763733,1.6876676082611084,0.9676703810691833
1733511872158224400,9.337224365234375,-0.28017136454582214,1.3500182628631592,0.5915217399597168
1733511872168243500,9.347243408203125,-0.22570084035396576,0.9517300128936768,0.12751826643943787
1733511872178262500,9.357262451171875,-0.15996524691581726,0.3193534016609192,-0.23496726155281067
1733511872188280300,9.3672802734375,-0.05922150984406471,-0.44867849349975586,-0.3498034179210663
1733511872198299400,9.37729931640625,0.054852597415447235,-0.7638670802116394,-0.3431015610694885
1733511872208318500,9.387318359375,0.1477619707584381,-0.3067624866962433,-0.3797071576118469
1733511872218337500,9.397337646484376,0.2299623042345047,0.498290091753006,-0.46500182151794434
1733511872228356400,9.4073564453125,0.19073091447353363,0.3428802490234375,-0.37919381260871887
1733511872238374400,9.41737451171875,-0.013943667523562908,-0.8677493333816528,-0.0710945874452591
1733511872248393500,9.4273935546875,-0.17602239549160004,-1.5671229362487793,-0.06464669108390808
1733511872258412300,9.437412353515626,-0.12325345724821091,-1.4833662509918213,-0.6442512273788452
1733511872268431400,9.447431396484374,0.18974992632865906,-1.2556005716323853,-1.5703476667404175
1733511872278450400,9.457450439453124,0.5229303240776062,-1.3378658294677734,-2.251753330230713
1733511872288469200,9.46746923828125,0.705456554889679,-1.2392908334732056,-2.6408419609069824
1733511872298487600,9.477487548828124,0.7190304398536682,-0.7572975754737854,-2.805697441101074
1733511872308506400,9.48750634765625,0.6277462244033813,-0.28716564178466797,-2.791130781173706
1733511872318525400,9.497525390625,0.3625156879425049,-0.24589036405086517,-2.5926766395568848
1733511872328544300,9.507544189453125,-0.12685136497020721,-1.1942389011383057,-2.037761688232422
1733511872338563300,9.517563232421875,-0.5409069061279297,-2.488323211669922,-1.3066927194595337
1733511872348582400,9.52758251953125,-0.462417870759964,-2.7121851444244385,-0.9483706951141357
1733511872358600400,9.537600341796875,0.04714256897568703,-1.966373324394226,-1.0598440170288086
1733511872368619500,9.54761962890625,0.4150412678718567,-1.0032790899276733,-1.3870840072631836
1733511872378638600,9.557638671875,0.5849733352661133,-0.1490490734577179,-1.4286556243896484
1733511872388657400,9.567657470703125,0.5604273676872253,0.5553401112556458,-1.1652013063430786
1733511872398676500,9.577676513671875,0.2550238370895386,1.2527562379837036,-0.8247599005699158
1733511872408695600,9.587695556640625,-0.11544202268123627,1.787528157234192,-0.5700365900993347
1733511872418713300,9.59771337890625,-0.18374411761760712,1.944682240486145,-0.5456609129905701
1733511872428732400,9.607732421875,-0.041105907410383224,1.7669498920440674,-0.6654366850852966
1733511872438751500,9.61775146484375,0.09936518222093582,1.4373714923858643,-0.7486032247543335
1733511872448770600,9.6277705078125,0.17979981005191803,1.029322624206543,-0.7590533494949341
1733511872458789400,9.637789306640625,0.17376933991909027,0.6717227101325989,-0.72536700963974
1733511872468808400,9.647808349609376,0.10325164347887039,0.4839940071105957,-0.6741005182266235
1733511872478826500,9.657826416015626,0.04456516355276108,0.37139901518821716,-0.6732677817344666
1733511872488845300,9.66784521484375,0.006896397098898888,0.2870708405971527,-0.7274374961853027
1733511872498864400,9.677864501953126,0.007177360355854034,0.17817819118499756,-0.7962208390235901
1733511872508883500,9.687883544921876,0.03731924295425415,0.07732006907463074,-0.829662024974823
1733511872518902500,9.697902587890624,0.08301243185997009,-0.009379670023918152,-0.8281179666519165
1733511872528921300,9.70792138671875,0.09713669866323471,-0.10450585186481476,-0.7886337041854858
1733511872538939400,9.717939453125,0.046387504786252975,-0.18662229180335999,-0.7497121095657349
1733511872548958500,9.72795849609375,-0.04763707146048546,-0.21446090936660767,-0.7504987120628357
1733511872558977300,9.737977294921874,-0.11408720910549164,-0.1781172752380371,-0.8114965558052063
1733511872568996400,9.747996337890624,-0.14605864882469177,-0.1173139214515686,-0.9042498469352722
1733511872579015400,9.758015380859375,-0.15035086870193481,-0.06842600554227829,-1.0088599920272827
1733511872589034200,9.7680341796875,-0.15724177658557892,-0.01971505954861641,-1.0920779705047607
1733511872599052500,9.778052490234375,-0.15788626670837402,0.04779181256890297,-1.1472362279891968
1733511872609071600,9.788071533203125,-0.13413824141025543,0.1568632274866104,-1.1840676069259644
1733511872619090400,9.79809033203125,-0.08856277167797089,0.2841823101043701,-1.2286885976791382
1733511872629109500,9.808109619140625,-0.020338982343673706,0.3783823251724243,-1.3245331048965454
1733511872639128300,9.81812841796875,0.046636320650577545,0.35007983446121216,-1.4653960466384888
1733511872649147400,9.8281474609375,0.0948408842086792,0.19529126584529877,-1.6460577249526978
1733511872659165400,9.83816552734375,0.12496203184127808,-0.08035629242658615,-1.8551234006881714
1733511872669184500,9.8481845703125,0.135916605591774,-0.43302759528160095,-2.0793204307556152
1733511872679203600,9.85820361328125,0.09944062680006027,-0.7617306709289551,-2.2619664669036865
1733511872689222000,9.868221923828125,0.010358781553804874,-1.0061256885528564,-2.355969190597534
1733511872699240700,9.87824072265625,-0.11169282346963882,-1.177618145942688,-2.3715341091156006
1733511872709259800,9.888259765625,-0.2429281771183014,-1.29245126247406,-2.306171417236328
1733511872719277800,9.89827783203125,-0.3622215688228607,-1.404154658317566,-2.152045965194702
1733511872729296600,9.908296630859375,-0.49208658933639526,-1.5208895206451416,-1.880894422531128
1733511872739315700,9.918315673828126,-0.6724821925163269,-1.597825288772583,-1.478973627090454
1733511872749334800,9.928334716796876,-0.8393326997756958,-1.5510019063949585,-1.0071032047271729
1733511872759353900,9.938353759765626,-0.9379900097846985,-0.9263984560966492,-0.7489752769470215
1733511872769372700,9.94837255859375,-0.8815935850143433,1.2071186304092407,-1.1196849346160889
1733511872779390700,9.958390625,-0.3575258255004883,3.239335060119629,-0.9823251962661743
1733511872789409800,9.968409912109376,0.25078293681144714,3.73300838470459,0.5960425138473511
1733511872799428600,9.9784287109375,0.6076646447181702,2.5502095222473145,2.6098437309265137
1733511872809447700,9.98844775390625,0.7851273417472839,1.4024451971054077,3.342475414276123
1733511872819466800,9.998466796875,1.014479637145996,0.6391914486885071,3.339660882949829
1733511872829485800,10.00848583984375,1.2146660089492798,-0.08640294522047043,3.1605279445648193
1733511872839504000,10.01850390625,1.3017103672027588,-0.8474951982498169,3.031034469604492
1733511872849523000,10.02852294921875,1.2606351375579834,-1.600007176399231,3.047116279602051
1733511872859542000,10.0385419921875,1.0965468883514404,-2.1650500297546387,3.161639928817749
1733511872869560800,10.048560791015625,0.8522039651870728,-2.3743152618408203,3.3259079456329346
1733511872879580000,10.058579833984375,0.5932280421257019,-2.1732749938964844,3.403864622116089
1733511872889598700,10.0685986328125,0.37537193298339844,-1.7520331144332886,3.2767226696014404
1733511872899616800,10.07861669921875,0.24173852801322937,-1.3955434560775757,2.965947389602661
1733511872909635800,10.0886357421875,0.1459321826696396,-1.142921805381775,2.5474534034729004
1733511872919655000,10.098655029296875,0.03456677868962288,-1.0194960832595825,2.1272194385528564
1733511872929674000,10.108674072265625,-0.10726302117109299,-1.013083815574646,1.7946652173995972
1733511872939692800,10.11869287109375,-0.20709773898124695,-0.8590061068534851,1.5073575973510742
1733511872949710800,10.1287109375,-0.1466878056526184,-0.5695726275444031,1.2830982208251953
1733511872959730000,10.13872998046875,-0.15044686198234558,-0.1511482298374176,1.1016912460327148
1733511872969748700,10.148748779296875,-0.20120257139205933,0.33505502343177795,0.9107538461685181
1733511872979767800,10.158767822265625,-0.260172963142395,0.7560437917709351,0.7069908976554871
1733511872989787000,10.168786865234376,-0.43905314803123474,0.3984316885471344,0.9622777104377747
1733511872999805700,10.1788056640625,-0.6056810617446899,-0.38848501443862915,1.7922899723052979
1733511873009823700,10.18882373046875,-0.6041813492774963,-0.04743477329611778,2.2089264392852783
1733511873019842800,10.1988427734375,-0.5195199847221375,0.9853111505508423,2.354635715484619
1733511873029861600,10.208861572265626,-0.421657919883728,1.9994045495986938,2.397073268890381
1733511873039880700,10.218880615234376,-0.37878236174583435,2.4434621334075928,2.3573429584503174
1733511873049899800,10.228899658203124,-0.3822370171546936,2.2480549812316895,2.20870041847229
1733511873059918800,10.2389189453125,-0.41366177797317505,1.841137170791626,1.9765479564666748
1733511873069936600,10.2489365234375,-0.45914703607559204,1.5975258350372314,1.7628318071365356
1733511873079955700,10.258955810546874,-0.49598121643066406,1.6116228103637695,1.6249964237213135
1733511873089974800,10.268974853515624,-0.49111470580101013,1.777687430381775,1.560469627380371
1733511873099993600,10.27899365234375,-0.48251402378082275,1.970234751701355,1.5049935579299927
1733511873110012700,10.2890126953125,-0.4899017810821533,2.02540922164917,1.3830045461654663
1733511873120031700,10.29903173828125,-0.5031933784484863,1.9089720249176025,1.1541967391967773
1733511873130049800,10.3090498046875,-0.5326511859893799,1.6572328805923462,0.9162478446960449
1733511873140068900,10.31906884765625,-0.5723043084144592,1.2853858470916748,0.724589467048645
1733511873150088000,10.329087890625,-0.595116913318634,0.914681613445282,0.5719430446624756
1733511873160107000,10.33910693359375,-0.612598180770874,0.6148205995559692,0.458199143409729
1733511873170125800,10.349125732421875,-0.6304668188095093,0.34789007902145386,0.3630537688732147
1733511873180145000,10.359144775390625,-0.625181257724762,0.18781331181526184,0.28147581219673157
1733511873190163000,10.369162841796875,-0.5718581080436707,0.15909475088119507,0.19007126986980438
1733511873200181800,10.379181640625,-0.48061391711235046,0.30497977137565613,0.05958143621683121
1733511873210200800,10.389200927734375,-0.38139796257019043,0.5890698432922363,-0.12638482451438904
1733511873220220000,10.399219970703125,-0.2896491587162018,0.8236985802650452,-0.3318471610546112
1733511873230239000,10.409239013671876,-0.19197411835193634,0.8583880662918091,-0.5064471364021301
1733511873240257800,10.4192578125,-0.13524159789085388,0.8028222918510437,-0.6078677773475647
1733511873250275800,10.42927587890625,-0.12897604703903198,0.7007728815078735,-0.599022388458252
1733511873260295000,10.439294921875,-0.170946404337883,0.5677780508995056,-0.46473804116249084
1733511873270313700,10.449313720703126,-0.23913389444351196,0.5138474106788635,-0.23914407193660736
1733511873280332800,10.459332763671876,-0.3117987811565399,0.6773721575737,0.008493156172335148
1733511873290351900,10.469351806640624,-0.37324032187461853,0.9581006169319153,0.22409981489181519
1733511873300370700,10.47937060546875,-0.4480471909046173,1.2151943445205688,0.3927817642688751
1733511873310388700,10.489388671875,-0.5188493728637695,1.414275884628296,0.5728639960289001
1733511873320407800,10.49940771484375,-0.5121411085128784,1.5751019716262817,1.0057097673416138
1733511873330426600,10.509426513671874,-0.511049211025238,1.7007862329483032,1.249179720878601
1733511873340445700,10.51944580078125,-0.5384038686752319,1.5359294414520264,0.9905835390090942
1733511873350464800,10.52946484375,-0.49050217866897583,1.1213284730911255,0.3406401574611664
1733511873360482800,10.53948291015625,-0.3246615529060364,0.01628199592232704,-0.30161336064338684
1733511873370501600,10.549501708984375,-0.16892151534557343,-1.5235563516616821,-0.7685493230819702
1733511873380520700,10.559520751953125,-0.17704708874225616,-2.102029800415039,-0.7340304851531982
1733511873390539800,10.569539794921875,-0.08688843250274658,-1.0940278768539429,-0.25464072823524475
1733511873400558600,10.57955859375,0.24188652634620667,1.1225404739379883,-0.13171054422855377
1733511873410577700,10.58957763671875,0.49257028102874756,1.8790391683578491,-0.04065769910812378
1733511873420596000,10.599595947265625,0.45726636052131653,0.6238807439804077,0.2551313638687134
1733511873430614800,10.60961474609375,0.18506371974945068,-0.7733121514320374,0.2598854601383209
1733511873440633900,10.6196337890625,-0.06413331627845764,-1.4732519388198853,-0.24717962741851807
1733511873450653000,10.62965283203125,-0.0908462256193161,-1.5917820930480957,-1.0444937944412231
1733511873460672000,10.639672119140625,0.094194196164608,-1.4547946453094482,-1.9000813961029053
1733511873470690800,10.64969091796875,0.30488333106040955,-1.249268889427185,-2.622561454772949
1733511873480708900,10.659708984375,0.4118180274963379,-0.9279515147209167,-3.090700626373291
1733511873490728000,10.66972802734375,0.4449351131916046,-0.6822987198829651,-3.25892972946167
1733511873500746800,10.679746826171876,0.39750394225120544,-0.7195379734039307,-3.162501573562622
1733511873510765800,10.689765869140626,0.18093006312847137,-1.178839921951294,-2.9086310863494873
1733511873520785000,10.699784912109376,-0.1912999451160431,-2.1022918224334717,-2.4539589881896973
1733511873530803700,10.7098037109375,-0.508859395980835,-3.423931360244751,-1.7605754137039185
1733511873540821800,10.71982177734375,-0.31062036752700806,-3.661494016647339,-1.2612109184265137
1733511873550840800,10.7298408203125,0.19049294292926788,-2.682689666748047,-1.0362826585769653
1733511873560859600,10.739859619140624,0.5858930349349976,-1.481616497039795,-0.975713312625885
1733511873570878700,10.749878662109374,0.6287134289741516,-0.40863141417503357,-1.2566438913345337
1733511873580897800,10.759897705078124,0.3802521824836731,0.5434178113937378,-1.5041239261627197
1733511873590916900,10.769916748046874,0.0004652474308386445,1.1808815002441406,-1.310756802558899
1733511873600934700,10.7799345703125,-0.2174907773733139,1.493309497833252,-0.9068244695663452
1733511873610953700,10.78995361328125,-0.11129152029752731,1.6324422359466553,-0.6084957718849182
1733511873620972800,10.799972900390625,0.05405402556061745,1.6101707220077515,-0.5420687794685364
1733511873630991600,10.80999169921875,0.12835632264614105,1.3292502164840698,-0.632575273513794
1733511873641010700,10.8200107421875,0.11724747717380524,0.9451572299003601,-0.766169548034668
1733511873651029000,10.830029052734375,0.08334939926862717,0.6148083806037903,-0.8326646089553833
1733511873661047800,10.8400478515625,0.03961336985230446,0.4126337468624115,-0.82528156042099
1733511873671067000,10.85006689453125,-0.031637560576200485,0.3396613299846649,-0.7647152543067932
1733511873681086000,10.8600859375,-0.116838738322258,0.3300928473472595,-0.7442275881767273
1733511873691104800,10.870104736328125,-0.1651611477136612,0.3226359784603119,-0.8059092164039612
1733511873701123800,10.880123779296875,-0.17136284708976746,0.3053978681564331,-0.9178221821784973
1733511873711142000,10.890141845703125,-0.15260514616966248,0.23452472686767578,-1.0155236721038818
1733511873721160700,10.90016064453125,-0.13518460094928741,0.11521166563034058,-1.0650064945220947
1733511873731179800,10.9101796875,-0.1538313329219818,-0.01640901155769825,-1.0775301456451416
1733511873741198800,10.92019873046875,-0.19107776880264282,-0.10874320566654205,-1.084588885307312
1733511873751217700,10.9302177734375,-0.2333102822303772,-0.1313398778438568,-1.1246634721755981
1733511873761236700,10.94023681640625,-0.2542981505393982,-0.10076197981834412,-1.2003138065338135
1733511873771254800,10.9502548828125,-0.26399582624435425,-0.06064996495842934,-1.2860783338546753
1733511873781273600,10.960273681640626,-0.2893347442150116,-0.06591210514307022,-1.3598321676254272
1733511873791292700,10.970292724609376,-0.29555922746658325,-0.20023195445537567,-1.432250738143921
1733511873801311700,10.980311767578126,-0.2905447781085968,-0.39230284094810486,-1.4798027276992798
1733511873811330800,10.990330810546874,-0.2773878276348114,-0.5734457969665527,-1.4930380582809448
1733511873821349600,11.000349609375,-0.23416927456855774,-0.7183020114898682,-1.4799118041992188
1733511873831367700,11.01036767578125,-0.16036729514598846,-0.8390508890151978,-1.4060922861099243
1733511873841386800,11.02038671875,-0.04273573309183121,-0.9727972745895386,-1.2477506399154663
1733511873851405600,11.030405517578124,0.09321501106023788,-1.13041353225708,-1.0212664604187012
1733511873861424600,11.040424560546874,0.18996818363666534,-1.2311537265777588,-0.8076266646385193
1733511873871443700,11.050443603515625,0.24163492023944855,-1.2278145551681519,-0.6898818016052246
1733511873881462800,11.060462890625,0.24379420280456543,-1.1097755432128906,-0.6865701675415039
1733511873891480600,11.07048046875,0.2128845751285553,-0.8979918956756592,-0.7202436923980713
1733511873901499600,11.080499755859375,0.1597670167684555,-0.629314124584198,-0.7243979573249817
1733511873911518700,11.090518798828125,0.0794837698340416,-0.3479459285736084,-0.6711689829826355
1733511873921537500,11.10053759765625,-0.056520406156778336,-0.09568624198436737,-0.5838361978530884
1733511873931556600,11.110556640625,-0.23415757715702057,0.0658334270119667,-0.4654363691806793
1733511873941575700,11.12057568359375,-0.40247175097465515,0.10484766960144043,-0.3295256495475769
1733511873951593700,11.13059375,-0.5224488377571106,0.12739460170269012,-0.22862330079078674
1733511873961612800,11.14061279296875,-0.5857518911361694,0.232683464884758,-0.21665799617767334
1733511873971631900,11.1506318359375,-0.5880048274993896,0.448983371257782,-0.2962745726108551
1733511873981651000,11.16065087890625,-0.48964306712150574,0.7361975908279419,-0.45959559082984924
1733511873991669800,11.170669677734375,-0.2518015205860138,0.9044011235237122,-0.6424630284309387
1733511874001688800,11.180688720703126,0.10930636525154114,0.5416551232337952,-0.6676621437072754
1733511874011707000,11.190706787109375,0.4869745969772339,-0.4919132888317108,-0.42983898520469666
1733511874021725700,11.2007255859375,0.7382420301437378,-1.6898137331008911,0.02288561686873436
1733511874031744800,11.210744873046876,0.8314634561538696,-2.172980785369873,0.6175580024719238
1733511874041763800,11.220763916015626,0.8540942072868347,-1.7909035682678223,1.268179178237915
1733511874051782700,11.23078271484375,0.8090309500694275,-0.9219394326210022,1.9163415431976318
1733511874061800700,11.24080078125,0.7086726427078247,0.011906824074685574,2.4665701389312744
1733511874071819800,11.25081982421875,0.613118588924408,0.7370972037315369,2.8082919120788574
1733511874081838600,11.260838623046874,0.5790820717811584,1.0268951654434204,2.9086484909057617
1733511874091857700,11.270857666015624,0.5777564644813538,0.8598325252532959,2.8141729831695557
1733511874101876700,11.280876708984374,0.5407073497772217,0.35107237100601196,2.611750602722168
1733511874111895800,11.290895751953125,0.45749759674072266,-0.25491276383399963,2.391909122467041
1733511874121913600,11.30091357421875,0.3212028741836548,-0.8003036379814148,2.236609697341919
1733511874131932700,11.3109326171875,0.15383034944534302,-1.2714697122573853,2.17038893699646
1733511874141951700,11.32095166015625,0.00448745908215642,-1.5785433053970337,2.1581475734710693
1733511874151970600,11.330970458984375,-0.15604904294013977,-1.6946357488632202,2.1490702629089355
1733511874161989600,11.34098974609375,-0.3088628053665161,-1.6374022960662842,2.083432197570801
1733511874172008700,11.3510087890625,-0.4207029640674591,-1.5097705125808716,1.9272069931030273
1733511874182026800,11.36102685546875,-0.4691546559333801,-1.4274319410324097,1.712120771408081
1733511874192045600,11.371045654296875,-0.5631124973297119,-1.3554641008377075,1.509432077407837
1733511874202064600,11.381064697265625,-0.8015404939651489,-0.9899045825004578,1.2887914180755615
1733511874212083700,11.391083740234375,-0.9720298647880554,-0.5037859678268433,1.1495702266693115
1733511874222102500,11.4011025390625,-1.097882866859436,-0.012293473817408085,1.122637152671814
1733511874232121600,11.41112158203125,-1.1607086658477783,0.36343422532081604,1.276890516281128
1733511874242140000,11.421139892578125,-1.160644769668579,0.9187315106391907,1.6363530158996582
1733511874252158700,11.43115869140625,-1.000454068183899,1.5547778606414795,2.028311014175415
1733511874262177800,11.441177734375,-0.7602713704109192,2.1119563579559326,2.3228039741516113
1733511874272196900,11.45119677734375,-0.5443249344825745,2.4339754581451416,2.415170192718506
1733511874282215700,11.461215576171876,-0.3885963559150696,2.4803006649017334,2.2888526916503906
1733511874292234800,11.47123486328125,-0.2551378905773163,2.370617389678955,2.0407755374908447
1733511874302252800,11.481252685546876,-0.14973023533821106,2.268402576446533,1.807295322418213
1733511874312271600,11.491271728515626,-0.0811961442232132,2.2708964347839355,1.6405141353607178
1733511874322290700,11.501290771484374,-0.020350640639662743,2.3390395641326904,1.5594686269760132
1733511874332309800,11.511309814453124,0.049816761165857315,2.4019112586975098,1.5475512742996216
1733511874342328800,11.521328857421874,0.09991161525249481,2.351165771484375,1.5269354581832886
1733511874352346600,11.5313466796875,0.08771862834692001,2.141622304916382,1.4280705451965332
1733511874362365700,11.54136572265625,0.026127437129616737,1.7602790594100952,1.2508208751678467
1733511874372384800,11.551384765625,-0.046877313405275345,1.2647000551223755,1.0379042625427246
1733511874382403600,11.561403564453125,-0.12059760838747025,0.7613272666931152,0.8240636587142944
1733511874392422700,11.571422607421875,-0.1985253393650055,0.25177401304244995,0.631672739982605
1733511874402441700,11.581441650390625,-0.24593998491764069,-0.1820485144853592,0.5267109274864197
1733511874412459500,11.59145947265625,-0.19390229880809784,-0.3504434823989868,0.492112934589386
1733511874422478600,11.601478515625,-0.11691031605005264,-0.37317755818367004,0.47138315439224243
1733511874432497700,11.61149755859375,-0.0644577145576477,-0.348606139421463,0.4382098317146301
1733511874442516700,11.621516845703125,-0.03621809184551239,-0.25142261385917664,0.3740643858909607
1733511874452535600,11.63153564453125,-0.029397597536444664,-0.14804039895534515,0.2987249493598938
1733511874462553900,11.641553955078125,-0.04867728427052498,-0.10273256152868271,0.22531253099441528
1733511874472573000,11.651572998046875,-0.08431551605463028,-0.16995054483413696,0.16025535762310028
1733511874482591700,11.661591796875,-0.12352204322814941,-0.31464192271232605,0.11974254250526428
1733511874492610800,11.67161083984375,-0.166889488697052,-0.4700557589530945,0.10044048726558685
1733511874502629600,11.681629638671875,-0.2018464058637619,-0.5373733043670654,0.06549155712127686
1733511874512648700,11.691648681640626,-0.22513249516487122,-0.41148263216018677,-0.007985149510204792
1733511874522667500,11.70166748046875,-0.22774799168109894,-0.13201209902763367,-0.08848345279693604
1733511874532685800,11.711685791015626,-0.1934170424938202,0.07030296325683594,-0.16055640578269958
1733511874542705000,11.721704833984376,-0.12884096801280975,0.057280369102954865,-0.229135200381279
1733511874552723700,11.7317236328125,-0.07963799685239792,-0.06607219576835632,-0.28682857751846313
1733511874562742800,11.74174267578125,-0.08783760666847229,-0.07693283259868622,-0.297108918428421
1733511874572761900,11.751761962890624,-0.17544366419315338,0.17709702253341675,-0.26735588908195496
1733511874582779600,11.761779541015626,-0.3011174499988556,0.6912372708320618,-0.18172407150268555
1733511874592798700,11.771798828125,-0.3631027340888977,1.3345552682876587,0.02676517702639103
1733511874602817800,11.78181787109375,-0.28800585865974426,1.9751403331756592,0.5339237451553345
1733511874612836600,11.791836669921874,-0.19744916260242462,2.485116958618164,1.0516306161880493
1733511874622855700,11.801855712890625,-0.2360418289899826,3.0161612033843994,0.9237200617790222
1733511874632874800,11.811874755859375,-0.16053685545921326,3.329874038696289,0.2781931459903717
1733511874642892500,11.821892578125,0.1778947114944458,2.349648952484131,-0.15476307272911072
1733511874652911600,11.83191162109375,0.6261361241340637,0.9004080891609192,-0.0005774506134912372
1733511874662930700,11.8419306640625,0.7477831840515137,0.3263972997665405,0.5198063850402832
1733511874672949800,11.85194970703125,0.6388764977455139,-0.17625348269939423,0.7809613943099976
1733511874682968300,11.86196826171875,0.5088292956352234,-1.0110024213790894,0.7072866559028625
1733511874692987400,11.8719873046875,0.33382248878479004,-1.9338399171829224,0.3850686550140381
1733511874703005400,11.88200537109375,0.0967300534248352,-2.456479072570801,-0.2008129209280014
1733511874713024300,11.892024169921875,-0.06794580072164536,-2.6989948749542236,-0.9175245761871338
1733511874723043300,11.902043212890625,-0.014639699831604958,-2.8706116676330566,-1.6777821779251099
1733511874733062100,11.912062255859375,0.2462053894996643,-3.020810604095459,-2.255460739135742
1733511874743081200,11.922081298828125,0.5289881229400635,-3.1671931743621826,-2.698381185531616
1733511874753099500,11.932099609375,0.7686144709587097,-3.0650205612182617,-3.0625553131103516
1733511874763118300,11.942118408203125,0.9239766597747803,-2.6688225269317627,-3.307486057281494
1733511874773137400,11.952137451171875,0.8463506698608398,-2.500889301300049,-3.353360652923584
1733511874783156500,11.962156494140626,0.3619837164878845,-3.4704766273498535,-2.676283121109009
1733511874793175300,11.97217529296875,0.11250267922878265,-4.012247085571289,-1.496516227722168
1733511874803194400,11.9821943359375,0.5274040102958679,-2.506476879119873,-0.9957876801490784
1733511874813212400,11.99221240234375,0.8724433779716492,-0.49747660756111145,-1.1235262155532837
1733511874823231200,12.002231201171876,0.7124465107917786,0.7315191626548767,-1.1629191637039185
1733511874833250300,12.012250244140626,0.32517141103744507,1.2131808996200562,-0.9599560499191284
1733511874843269400,12.022269287109374,0.061825260519981384,1.3388067483901978,-0.7670148611068726
1733511874853288400,12.032288330078124,0.01273003127425909,1.2278441190719604,-0.7573854923248291
1733511874863307300,12.042307373046874,0.008584821596741676,0.9322384595870972,-0.921413004398346
1733511874873325300,12.0523251953125,-0.044349461793899536,0.5918692946434021,-1.1544338464736938
1733511874883344400,12.062344482421874,-0.1488412469625473,0.398980051279068,-1.3651578426361084
1733511874893363200,12.07236328125,-0.2581830620765686,0.3874173164367676,-1.5190186500549316
1733511874903382300,12.08238232421875,-0.275861918926239,0.4071955680847168,-1.6294766664505005
1733511874913401300,12.0924013671875,-0.19923441112041473,0.34416693449020386,-1.6426868438720703
1733511874923420400,12.10242041015625,-0.0788576751947403,0.21670939028263092,-1.591691017150879
1733511874933438200,12.112438232421875,0.026435328647494316,0.12177585810422897,-1.512062668800354
1733511874943457300,12.122457275390625,0.0795973539352417,0.10077337175607681,-1.4138985872268677
1733511874953476400,12.132476318359375,0.08356558531522751,0.17298240959644318,-1.3019382953643799
1733511874963495200,12.1424951171875,0.05630254000425339,0.2980399429798126,-1.2062610387802124
1733511874973514200,12.15251416015625,0.00591600826010108,0.4285091459751129,-1.1285946369171143
1733511874983532500,12.162532470703125,-0.054156117141246796,0.5199298858642578,-1.1013169288635254
1733511874993551400,12.17255126953125,-0.11911004036664963,0.5778309106826782,-1.1011912822723389
1733511875003570400,12.1825703125,-0.1738329529762268,0.5812706351280212,-1.0835055112838745
1733511875013589500,12.192589599609375,-0.20222336053848267,0.5467318296432495,-1.0345983505249023
1733511875023608300,12.2026083984375,-0.18165604770183563,0.4980921447277069,-0.9543539881706238
1733511875033627400,12.21262744140625,-0.15500789880752563,0.4432935416698456,-0.8564268946647644
1733511875043645400,12.2226455078125,-0.14380691945552826,0.41534313559532166,-0.7729418277740479
1733511875053664500,12.23266455078125,-0.15439894795417786,0.4452701210975647,-0.7240889668464661
1733511875063683300,12.242683349609376,-0.15619924664497375,0.49975624680519104,-0.7068324685096741
1733511875073702400,12.252702392578126,-0.15640006959438324,0.5207162499427795,-0.6896536946296692
1733511875083721500,12.262721435546876,-0.13084810972213745,0.47125551104545593,-0.6725737452507019
1733511875093740300,12.272740234375,-0.05566181242465973,0.386066198348999,-0.6867701411247253
1733511875103758300,12.28275830078125,0.03960585594177246,0.3189516067504883,-0.7691504955291748
1733511875113777400,12.29277734375,0.13455979526042938,0.23805809020996094,-0.9036814570426941
1733511875123796200,12.302796142578124,0.22995609045028687,0.11217792332172394,-1.0397604703903198
1733511875133815300,12.312815185546874,0.31602099537849426,-0.03940008953213692,-1.1494345664978027
1733511875143834400,12.32283447265625,0.3526786267757416,-0.19415318965911865,-1.2135204076766968
1733511875153852200,12.33285205078125,0.3318806290626526,-0.301308810710907,-1.2652981281280518
1733511875163871200,12.342871337890625,0.29341524839401245,-0.33009520173072815,-1.3461849689483643
1733511875173890300,12.352890380859375,0.24813492596149445,-0.22539077699184418,-1.4867044687271118
1733511875183909400,12.362909423828125,0.18882712721824646,0.01355042401701212,-1.6508543491363525
1733511875193928200,12.37292822265625,0.09358582645654678,0.2851952314376831,-1.778314232826233
1733511875203947300,12.382947265625,-0.04723626747727394,0.41529491543769836,-1.7879109382629395
1733511875213965300,12.39296533203125,-0.20848603546619415,0.34570786356925964,-1.5983396768569946
1733511875223984000,12.402984130859375,-0.31500449776649475,0.1259978860616684,-1.1680015325546265
1733511875234003200,12.413003173828125,-0.26367834210395813,-0.0818510353565216,-0.4738518297672272
