time,seconds_elapsed,z,y,x
1733512573342496000,0.02749609375,-0.039474256336688995,-0.020988108590245247,-0.002171748783439398
1733512573352514000,0.03751416015625,-0.03270648419857025,-0.011815352365374565,0.004254666622728109
1733512573362532900,0.047532958984375,-0.027507463470101357,0.00180644984357059,0.0073692332953214645
1733512573372551000,0.057551025390625,-0.01925264298915863,0.017596876248717308,0.010117990896105766
1733512573382570000,0.067570068359375,-0.012709787115454674,0.04158077389001846,0.006393026560544968
1733512573392587800,0.077587890625,-0.011690150015056133,0.05524197965860367,-0.004064515698701143
1733512573402606000,0.087606201171875,-0.009467209689319134,0.053535692393779755,-0.022251242771744728
1733512573412625000,0.097625,-0.0058058686554431915,0.04676569625735283,-0.03272697329521179
1733512573422643000,0.107642822265625,-0.004504382144659758,0.03023066371679306,-0.04184404015541077
1733512573432660700,0.11766064453125,-0.0035420451313257217,0.009167286567389965,-0.050450775772333145
1733512573442679800,0.1276796875,-0.0031044878996908665,-0.000576686579734087,-0.05831002816557884
1733512573452698000,0.137697998046875,0.002740556374192238,-0.012440789490938187,-0.056587524712085724
1733512573462717000,0.147717041015625,0.006637826096266508,-0.015930062159895897,-0.05296136438846588
1733512573472735000,0.15773486328125,0.011581643484532833,-0.025417953729629517,-0.04606008902192116
1733512573482753000,0.1677529296875,0.011088692583143711,-0.030262775719165802,-0.04193778336048126
1733512573492771800,0.177771728515625,0.020486978814005852,-0.0379861444234848,-0.03746088221669197
1733512573502790000,0.187789794921875,0.023931777104735374,-0.039150744676589966,-0.0337337888777256
1733512573512809000,0.19780908203125,0.03235410153865814,-0.05722257122397423,-0.04730894789099693
1733512573522827000,0.207826904296875,0.03036845102906227,-0.065593421459198,-0.05485288426280022
1733512573532845000,0.217844970703125,0.029134584590792656,-0.0820060521364212,-0.061295539140701294
1733512573542864000,0.22786376953125,0.025100694969296455,-0.10422400385141373,-0.0709305852651596
1733512573552882000,0.2378818359375,0.022013654932379723,-0.12491468340158463,-0.0828956589102745
1733512573562899700,0.247899658203125,0.019568340852856636,-0.13861611485481262,-0.08692902326583862
1733512573572918800,0.257918701171875,0.01632443256676197,-0.14260897040367126,-0.09426005929708481
1733512573582937000,0.26793701171875,0.015042386017739773,-0.1377447098493576,-0.09259185940027237
1733512573592956000,0.277955810546875,0.007710394915193319,-0.13150694966316223,-0.09389236569404602
1733512573602974000,0.287973876953125,0.0033033955842256546,-0.12036135792732239,-0.09395867586135864
1733512573612992000,0.297991943359375,-0.0037187496200203896,-0.1106758639216423,-0.09790384769439697
1733512573623010800,0.3080107421875,-0.014181244187057018,-0.1100526824593544,-0.10651757568120956
1733512573633028900,0.31802880859375,-0.03018171340227127,-0.11739642918109894,-0.11744356155395508
1733512573643046400,0.32804638671875,-0.04329938068985939,-0.12707728147506714,-0.13182543218135834
1733512573653065500,0.3380654296875,-0.051827285438776016,-0.13623492419719696,-0.14481323957443237
1733512573663083300,0.348083251953125,-0.054037176072597504,-0.13355524837970734,-0.1482204794883728
1733512573673102300,0.358102294921875,-0.05529485642910004,-0.12576106190681458,-0.14862960577011108
1733512573683120400,0.368120361328125,-0.06044381111860275,-0.11021726578474045,-0.14846475422382355
1733512573693138400,0.378138427734375,-0.05651241913437843,-0.10006346553564072,-0.14055496454238892
1733512573703157500,0.388157470703125,-0.041726283729076385,-0.07813712954521179,-0.12443137913942337
1733512573713175600,0.398175537109375,-0.030598832294344902,-0.07165895402431488,-0.11643918603658676
1733512573723194400,0.4081943359375,-0.023938266560435295,-0.06294509023427963,-0.13038349151611328
1733512573733212400,0.41821240234375,-0.013161581009626389,-0.037410154938697815,-0.13210125267505646
1733512573743230500,0.42823046875,-0.002064987551420927,-0.016145877540111542,-0.12297727167606354
1733512573753249300,0.438249267578125,0.006384191568940878,0.008037181571125984,-0.11509596556425095
1733512573763267600,0.448267578125,0.013580851256847382,0.028025271371006966,-0.10959653556346893
1733512573773285400,0.458285400390625,0.0212954543530941,0.03446357324719429,-0.095258429646492
1733512573783304400,0.468304443359375,0.030093740671873093,0.03290322795510292,-0.08763726055622101
1733512573793322200,0.478322265625,0.03330884501338005,0.030654555186629295,-0.07956621795892715
1733512573803341300,0.48834130859375,0.03184543922543526,0.02236999198794365,-0.06850717961788177
1733512573813359600,0.498359619140625,0.02675565332174301,0.008116763085126877,-0.0604131817817688
1733512573823377400,0.50837744140625,0.019081754609942436,-0.004323129076510668,-0.048417769372463226
1733512573833396500,0.518396484375,0.011372953653335571,-0.01761581562459469,-0.03555407002568245
1733512573843414500,0.52841455078125,0.002207418903708458,-0.03310156241059303,-0.021186847239732742
1733512573853432300,0.538432373046875,-0.009548941627144814,-0.030238542705774307,-0.0014308380195870996
1733512573863451400,0.548451416015625,-0.0224721971899271,-0.03795398399233818,0.008941908366978168
1733512573873469400,0.558469482421875,-0.025905100628733635,-0.055761225521564484,0.01356371957808733
1733512573883488500,0.568488525390625,-0.01925412192940712,-0.06291447579860687,0.009548204950988293
1733512573893506600,0.578506591796875,-0.002585029462352395,-0.018656061962246895,0.005044653546065092
1733512573903524400,0.5885244140625,0.012906844727694988,0.06896673142910004,0.02640427090227604
1733512573913543400,0.59854345703125,0.007966975681483746,0.1347191333770752,0.05724614858627319
1733512573923561200,0.608561279296875,-0.011509786359965801,0.1724742352962494,0.07512155175209045
1733512573933580300,0.618580322265625,-0.03340773656964302,0.197908416390419,0.09989135712385178
1733512573943598600,0.6285986328125,-0.042407091706991196,0.2318919599056244,0.1411285400390625
1733512573953616400,0.638616455078125,-0.05648502707481384,0.29018262028694153,0.18926560878753662
1733512573963635500,0.648635498046875,-0.06851212680339813,0.3411078453063965,0.23476199805736542
1733512573973653200,0.6586533203125,-0.07884531468153,0.37554308772087097,0.26570388674736023
1733512573983671600,0.668671630859375,-0.08403288573026657,0.4131876528263092,0.281977117061615
1733512573993690400,0.6786904296875,-0.0967092290520668,0.4611756503582001,0.2876458764076233
1733512574003708400,0.68870849609375,-0.11154250800609589,0.495583713054657,0.26555201411247253
1733512574013727500,0.6987275390625,-0.11780747771263123,0.5235426425933838,0.20568381249904633
1733512574023745500,0.70874560546875,-0.10980681329965591,0.56058269739151,0.12115268409252167
1733512574033763300,0.718763427734375,-0.09674099832773209,0.6327853798866272,0.030541859567165375
1733512574043782400,0.728782470703125,-0.09291989356279373,0.7108801603317261,-0.08742339164018631
1733512574053800400,0.738800537109375,-0.09101443737745285,0.7319160103797913,-0.2250049114227295
1733512574063819500,0.748819580078125,-0.0768757164478302,0.6642743945121765,-0.31636837124824524
1733512574073837600,0.758837646484375,-0.029494181275367737,0.5792449712753296,-0.34610679745674133
1733512574083855400,0.76885546875,0.028164852410554886,0.49054497480392456,-0.32906150817871094
1733512574093874400,0.77887451171875,0.07065987586975098,0.418510764837265,-0.30854952335357666
1733512574103892200,0.788892333984375,0.08327340334653854,0.34827467799186707,-0.2601878345012665
1733512574113910500,0.79891064453125,0.06020085886120796,0.31021448969841003,-0.16394144296646118
1733512574123929600,0.8089296875,0.01757483370602131,0.3400011658668518,-0.05138560011982918
1733512574133947400,0.818947509765625,-0.010458201169967651,0.42032909393310547,0.06364920735359192
1733512574143966500,0.828966552734375,-0.031355757266283035,0.5081138610839844,0.16456890106201172
1733512574153984500,0.838984619140625,-0.07162661850452423,0.5292416214942932,0.23293909430503845
1733512574164002300,0.849002197265625,-0.12013982981443405,0.4330722391605377,0.28164219856262207
1733512574174021400,0.859021484375,-0.10045021027326584,0.3464166820049286,0.30035650730133057
1733512574184039400,0.869039306640625,-0.04810631647706032,0.31548699736595154,0.2947441637516022
1733512574194058500,0.87905859375,-0.015477732755243778,0.30702337622642517,0.2908089756965637
1733512574204076500,0.88907666015625,-0.01690412126481533,0.27881863713264465,0.30858156085014343
1733512574214094300,0.89909423828125,-0.03439652547240257,0.24163901805877686,0.3190237879753113
1733512574224113400,0.909113525390625,-0.04162301495671272,0.23207081854343414,0.32334426045417786
1733512574234131500,0.91913134765625,-0.045099977403879166,0.25060585141181946,0.31583282351493835
1733512574244149500,0.9291494140625,-0.048465147614479065,0.2781442701816559,0.294712096452713
1733512574254168600,0.93916845703125,-0.04418577253818512,0.3113853335380554,0.2674705982208252
1733512574264186400,0.949186279296875,-0.029010551050305367,0.3546966016292572,0.2409345954656601
1733512574274205400,0.959205322265625,-0.015545280650258064,0.3809462785720825,0.22523660957813263
1733512574284223200,0.96922314453125,0.002534386934712529,0.39896416664123535,0.21446411311626434
1733512574294241500,0.979241455078125,0.01989474706351757,0.4235183894634247,0.20820704102516174
1733512574304260600,0.989260498046875,0.02421732433140278,0.4558022916316986,0.1981770545244217
1733512574314278400,0.9992783203125,0.013565801084041595,0.4983077347278595,0.1904796063899994
1733512574324296400,1.00929638671875,0.0010561345843598247,0.5474321246147156,0.1890966147184372
1733512574334315500,1.0193154296875,-0.0019457463640719652,0.5902634859085083,0.17481961846351624
1733512574344333300,1.029333251953125,0.009686408564448357,0.6079521775245667,0.14738932251930237
1733512574354352400,1.039352294921875,0.030684197321534157,0.5973135828971863,0.12128234654664993
1733512574364370400,1.049370361328125,0.05832008644938469,0.585983395576477,0.10146895796060562
1733512574374388500,1.059388427734375,0.09082823246717453,0.5849629044532776,0.08486255258321762
1733512574384407600,1.069407470703125,0.1188255101442337,0.5779337286949158,0.062498658895492554
1733512574394425300,1.07942529296875,0.14660917222499847,0.5454287528991699,0.04236215725541115
1733512574404444400,1.0894443359375,0.15831004083156586,0.4945192337036133,0.01583733595907688
1733512574414462200,1.099462158203125,0.15791605412960052,0.43255987763404846,-0.025241244584321976
1733512574424480500,1.10948046875,0.14318132400512695,0.36125773191452026,-0.0776064470410347
1733512574434499600,1.11949951171875,0.13289566338062286,0.2903151214122772,-0.13159164786338806
1733512574444517400,1.129517333984375,0.1246291995048523,0.231963649392128,-0.19233782589435577
1733512574454535400,1.139535400390625,0.10851244628429413,0.16821010410785675,-0.2629617750644684
1733512574464554500,1.149554443359375,0.06552929431200027,0.10871481150388718,-0.34044378995895386
1733512574474572500,1.159572509765625,0.006384395528584719,0.06904062628746033,-0.4080921709537506
1733512574484591400,1.16959130859375,-0.04182068258523941,0.05637649819254875,-0.4578722417354584
1733512574494609400,1.179609375,-0.06270452588796616,0.09425001591444016,-0.5034813284873962
1733512574504627500,1.18962744140625,-0.061559371650218964,0.18148690462112427,-0.5125936269760132
1733512574514646500,1.199646484375,-0.06492602080106735,0.30329054594039917,-0.4737606942653656
1733512574524664300,1.209664306640625,-0.06407886743545532,0.41793349385261536,-0.4007517397403717
1733512574534683400,1.219683349609375,-0.06199892982840538,0.49336349964141846,-0.30920061469078064
1733512574544701400,1.229701416015625,-0.06696093082427979,0.5330195426940918,-0.2085733562707901
1733512574554719500,1.239719482421875,-0.09160395711660385,0.5624589323997498,-0.10154197365045547
1733512574564738600,1.249738525390625,-0.14358779788017273,0.5886870622634888,-0.015477927401661873
1733512574574756400,1.25975634765625,-0.20481857657432556,0.5724638104438782,-0.006527595687657595
1733512574584774400,1.2697744140625,-0.27367645502090454,0.5272665023803711,-0.016881166025996208
1733512574594793200,1.279793212890625,-0.33663681149482727,0.4983949661254883,0.012947351671755314
1733512574604811500,1.2898115234375,-0.40615278482437134,0.40018612146377563,0.07192784547805786
1733512574614830600,1.29983056640625,-0.4979439377784729,0.14821958541870117,0.11518198251724243
1733512574624848400,1.309848388671875,-0.6101863384246826,-0.24623557925224304,0.17209400236606598
1733512574634866400,1.319866455078125,-0.681090772151947,-0.7653867602348328,0.29097938537597656
1733512574644885500,1.329885498046875,-0.6252086162567139,-1.37004816532135,0.5415213108062744
1733512574654903300,1.3399033203125,-0.4973726272583008,-1.8461320400238037,0.9531027674674988
1733512574664921600,1.349921630859375,-0.3963701128959656,-1.7794413566589355,1.3735878467559814
1733512574674940400,1.3599404296875,-0.1718197911977768,-1.595252275466919,1.2103036642074585
1733512574684958500,1.36995849609375,0.1655486524105072,-1.9256759881973267,0.8277498483657837
1733512574694977500,1.3799775390625,0.4818088710308075,-2.659705400466919,0.6568313837051392
1733512574704995300,1.389995361328125,0.6820570230484009,-3.493204355239868,0.5467943549156189
1733512574715013600,1.400013671875,0.7622652649879456,-3.9664530754089355,0.4631466567516327
1733512574725032400,1.410032470703125,0.846363365650177,-3.8312995433807373,0.28456732630729675
1733512574735050500,1.420050537109375,0.9820297360420227,-3.4038023948669434,0.0070270667783916
1733512574745069600,1.430069580078125,1.0458612442016602,-2.9686379432678223,-0.2167426496744156
1733512574755087400,1.44008740234375,0.992488443851471,-2.5634026527404785,-0.3712327480316162
1733512574765105400,1.45010546875,0.7404990792274475,-1.9339237213134766,-0.5317193269729614
1733512574775124500,1.46012451171875,0.32080841064453125,-0.9684973955154419,-0.8319904804229736
1733512574785142500,1.470142578125,-0.02807740867137909,-0.12348998337984085,-1.1109066009521484
1733512574795160600,1.48016064453125,-0.19686946272850037,0.16981026530265808,-0.9570040702819824
1733512574805179400,1.490179443359375,-0.3284839391708374,-0.09737828373908997,-0.016086628660559654
1733512574815197400,1.500197509765625,-0.31472280621528625,0.47167685627937317,0.46692153811454773
1733512574825216500,1.510216552734375,-0.34520456194877625,1.313464879989624,0.08425430953502655
1733512574835234300,1.520234375,-0.3203575909137726,1.1844125986099243,-0.2700057923793793
1733512574845252600,1.530252685546875,-0.2656637132167816,0.7040770649909973,-0.44705355167388916
1733512574855271400,1.540271484375,-0.22555340826511383,0.6610403060913086,-0.4483340382575989
1733512574865289500,1.55028955078125,-0.17356424033641815,1.0354021787643433,-0.3463621437549591
1733512574875307300,1.560307373046875,-0.1763327419757843,1.226993441581726,-0.2691316604614258
1733512574885326300,1.570326416015625,-0.22511066496372223,0.9931636452674866,-0.3166688084602356
1733512574895344400,1.580344482421875,-0.2188473343849182,0.40446043014526367,-0.5014072060585022
1733512574905363200,1.59036328125,-0.13767871260643005,-0.2712988555431366,-0.7272230386734009
1733512574915381500,1.600381591796875,-0.10612491518259048,-0.6139526963233948,-0.8648088574409485
1733512574925399600,1.610399658203125,-0.14396683871746063,-0.5521263480186462,-0.8132527470588684
1733512574935418400,1.62041845703125,-0.15823109447956085,-0.41461044549942017,-0.6045276522636414
1733512574945436400,1.6304365234375,-0.11266174912452698,-0.33977028727531433,-0.39631372690200806
1733512574955455500,1.64045556640625,-0.01821759156882763,-0.4014275372028351,-0.3583458662033081
1733512574965473500,1.6504736328125,0.08292847126722336,-0.5090296268463135,-0.4445877969264984
1733512574975491600,1.66049169921875,0.11085761338472366,-0.5866302251815796,-0.48328661918640137
1733512574985510400,1.670510498046875,0.09901373088359833,-0.6505570411682129,-0.45283710956573486
1733512574995528400,1.680528564453125,0.11080721020698547,-0.6646602749824524,-0.3958054184913635
1733512575005546200,1.690546142578125,0.16551147401332855,-0.5821957588195801,-0.32727962732315063
1733512575015565300,1.7005654296875,0.21668469905853271,-0.47666850686073303,-0.2781650424003601
1733512575025583600,1.71058349609375,0.23612497746944427,-0.415881872177124,-0.2773280143737793
1733512575035602400,1.7206025390625,0.25521501898765564,-0.30175527930259705,-0.2662857174873352
1733512575045620500,1.730620361328125,0.29482901096343994,-0.05741368979215622,-0.19062821567058563
1733512575055638500,1.740638427734375,0.3409622311592102,0.19390469789505005,-0.05818457528948784
1733512575065657300,1.7506572265625,0.37815141677856445,0.3116300106048584,0.07724355906248093
1733512575075675400,1.76067529296875,0.44089841842651367,0.30563217401504517,0.12154017388820648
1733512575085693400,1.770693359375,0.5352427363395691,0.28258198499679565,0.1010356992483139
1733512575095712500,1.78071240234375,0.5982773900032043,0.19961422681808472,0.09364242851734161
1733512575105730600,1.79073046875,0.6133857369422913,-0.019265392795205116,0.12020106613636017
1733512575115749400,1.800749267578125,0.5726799964904785,-0.24766340851783752,0.14871856570243835
1733512575125767400,1.810767333984375,0.4704105854034424,-0.3650997281074524,0.1525689661502838
1733512575135785200,1.82078515625,0.3526231646537781,-0.39335745573043823,0.15173117816448212
1733512575145804300,1.83080419921875,0.2583821713924408,-0.383107990026474,0.1700233668088913
1733512575155822600,1.840822509765625,0.1728430986404419,-0.32380029559135437,0.18140961229801178
1733512575165841400,1.85084130859375,0.0794212818145752,-0.2406366914510727,0.1814783215522766
1733512575175859500,1.860859375,0.004709567409008741,-0.18271362781524658,0.1610407531261444
1733512575185877200,1.870877197265625,-0.026490431278944016,-0.1751672923564911,0.12246058881282806
1733512575195896300,1.880896240234375,-0.01880395971238613,-0.21327067911624908,0.09257341921329498
1733512575205914600,1.89091455078125,0.021297121420502663,-0.24877087771892548,0.08896616846323013
1733512575215932400,1.900932373046875,0.06726273149251938,-0.22215455770492554,0.12246214598417282
1733512575225951500,1.910951416015625,0.11361584812402725,-0.13470140099525452,0.1901000291109085
1733512575235969500,1.920969482421875,0.16178567707538605,0.007286759093403816,0.2618308365345001
1733512575245988400,1.93098828125,0.21478524804115295,0.1649690717458725,0.31446608901023865
1733512575256006400,1.94100634765625,0.2600845992565155,0.31854766607284546,0.3257938623428345
1733512575266024400,1.9510244140625,0.2691771686077118,0.43834546208381653,0.31445038318634033
1733512575276043500,1.96104345703125,0.24120250344276428,0.5149637460708618,0.3144071698188782
1733512575286061600,1.9710615234375,0.19657084345817566,0.5399231910705566,0.324954092502594
1733512575296079400,1.981079345703125,0.16038338840007782,0.544717013835907,0.3624914586544037
1733512575306098400,1.991098388671875,0.1233004629611969,0.5283918380737305,0.38804155588150024
1733512575316116200,2.0011162109375,0.1051553338766098,0.47243034839630127,0.40351441502571106
1733512575326135300,2.01113525390625,0.09446513652801514,0.3876939117908478,0.4249161183834076
1733512575336153600,2.021153564453125,0.09411108493804932,0.32347339391708374,0.44927677512168884
1733512575346171400,2.03117138671875,0.10427343845367432,0.3005361258983612,0.4717501401901245
1733512575356190500,2.0411904296875,0.12405896186828613,0.28233495354652405,0.49636226892471313
1733512575366208300,2.051208251953125,0.14450271427631378,0.22757238149642944,0.514820396900177
1733512575376227300,2.061227294921875,0.15540508925914764,0.14007465541362762,0.5184720754623413
1733512575386245400,2.071245361328125,0.15210889279842377,0.04483494535088539,0.5085099339485168
1733512575396263400,2.081263427734375,0.14696331322193146,-0.04289332404732704,0.5001752376556396
1733512575406282500,2.091282470703125,0.1442713886499405,-0.11381116509437561,0.49063366651535034
1733512575416300500,2.101300537109375,0.15667042136192322,-0.1630064845085144,0.4731590747833252
1733512575426318300,2.111318359375,0.16449984908103943,-0.19950324296951294,0.46396690607070923
1733512575436337400,2.12133740234375,0.15268531441688538,-0.1773548424243927,0.4624115526676178
1733512575446355500,2.13135546875,0.15207038819789886,-0.12360745668411255,0.4618789255619049
1733512575456374500,2.14137451171875,0.15401007235050201,-0.1105722039937973,0.46152323484420776
1733512575466392600,2.151392578125,0.1409834921360016,-0.12103070318698883,0.4485587179660797
1733512575476410400,2.161410400390625,0.10618811845779419,-0.08673286437988281,0.41802266240119934
1733512575486429400,2.171429443359375,0.09020914882421494,0.0026694543194025755,0.3876378536224365
1733512575496447200,2.181447265625,0.0828755795955658,0.0038161820266395807,0.3592790961265564
1733512575506465500,2.191465576171875,0.0670313686132431,-0.009084968827664852,0.3353833556175232
1733512575516484600,2.201484619140625,0.04544821009039879,0.013769001699984074,0.301694393157959
1733512575526502400,2.21150244140625,0.02824791893362999,0.09375864267349243,0.27918002009391785
1733512575536521500,2.221521484375,0.02354084700345993,0.11613104492425919,0.27243003249168396
1733512575546539500,2.23153955078125,0.017430491745471954,0.09937337040901184,0.2496035248041153
1733512575556557300,2.241557373046875,0.012390288524329662,0.06811366230249405,0.22121207416057587
1733512575566576400,2.251576416015625,0.00309319281950593,0.04807737469673157,0.19752538204193115
1733512575576594400,2.261594482421875,-0.006428550463169813,0.06624596565961838,0.17736825346946716
1733512575586613500,2.271613525390625,-0.02958340384066105,0.018987104296684265,0.1720627099275589
1733512575596631600,2.281631591796875,-0.05969065800309181,-0.03322967514395714,0.15381361544132233
1733512575606649300,2.2916494140625,-0.07967528700828552,-0.056136325001716614,0.1357310265302658
1733512575616668400,2.30166845703125,-0.09459594637155533,-0.06478197127580643,0.12425844371318817
1733512575626686200,2.311686279296875,-0.10676632821559906,-0.0834541842341423,0.1156172901391983
1733512575636704500,2.32170458984375,-0.11598929017782211,-0.12482725083827972,0.10004310309886932
1733512575646723000,2.33172314453125,-0.13498695194721222,-0.17504167556762695,0.06757224351167679
1733512575656741000,2.3417412109375,-0.19377723336219788,-0.25263476371765137,0.041668765246868134
1733512575666760000,2.351760009765625,-0.24521246552467346,-0.32925763726234436,-0.04613165929913521
1733512575676778000,2.361778076171875,-0.3000594973564148,-0.3360038995742798,-0.13874463737010956
1733512575686796000,2.371796142578125,-0.36487364768981934,-0.34424373507499695,-0.17255692183971405
1733512575696815000,2.381815185546875,-0.484759658575058,-0.3028254508972168,-0.18571004271507263
1733512575706833200,2.391833251953125,-0.7163683772087097,-0.1847672462463379,-0.08499088883399963
1733512575716852000,2.40185205078125,-0.9803861975669861,-0.017776278778910637,0.15021222829818726
1733512575726870000,2.4118701171875,-1.1399084329605103,0.29404154419898987,0.45214569568634033
1733512575736888000,2.42188818359375,-0.9535664319992065,0.5445336699485779,0.21717357635498047
1733512575746907000,2.431906982421875,-0.37580904364585876,-0.18612481653690338,-0.36864063143730164
1733512575756925200,2.44192529296875,0.2609506845474243,-0.900752067565918,-0.5758399963378906
1733512575766943000,2.45194287109375,0.44388750195503235,-1.4207464456558228,-0.3898395001888275
1733512575776962000,2.461962158203125,0.5760517716407776,-1.7948342561721802,-0.05359245836734772
1733512575786980000,2.47197998046875,0.6633400917053223,-2.108816385269165,0.2326105386018753
1733512575796999000,2.4819990234375,0.5077987313270569,-2.195927143096924,0.3759476840496063
1733512575807017000,2.492016845703125,0.2551204264163971,-1.8684844970703125,0.2316640019416809
1733512575817035000,2.502034912109375,0.1573876589536667,-0.9819515347480774,-0.40642380714416504
1733512575827054000,2.51205419921875,0.3143690228462219,-0.1249348446726799,-1.285614013671875
1733512575837072100,2.522072021484375,0.622069239616394,0.06092756241559982,-1.8606319427490234
1733512575847090000,2.53208984375,0.6670244336128235,-1.0468782186508179,-1.7038779258728027
1733512575857109000,2.54210888671875,0.3585774302482605,-2.8557398319244385,-0.9859610199928284
1733512575867127000,2.552126953125,0.3623329997062683,-2.9798996448516846,-0.7052438259124756
1733512575877146000,2.56214599609375,0.6557479500770569,-1.272596836090088,-0.9607090950012207
1733512575887164200,2.5721640625,0.5694532990455627,0.5226834416389465,-0.8458259105682373
1733512575897182000,2.582181884765625,0.23397068679332733,1.586746096611023,-0.4530958831310272
1733512575907201000,2.592200927734375,0.0019688745960593224,2.1067397594451904,-0.1439497470855713
1733512575917219000,2.602218994140625,-0.03507835790514946,2.2512881755828857,-0.0995740219950676
1733512575927238000,2.61223779296875,0.04566815495491028,2.03537654876709,-0.293334424495697
1733512575937256200,2.622256103515625,0.09479095786809921,1.525781273841858,-0.6013138890266418
1733512575947274000,2.63227392578125,0.08541769534349442,0.8808104395866394,-0.8837127685546875
1733512575957293000,2.64229296875,0.08023887872695923,0.3553539216518402,-1.0662412643432617
1733512575967311000,2.65231103515625,0.10392263531684875,0.19714297354221344,-1.1596952676773071
1733512575977329000,2.662328857421875,0.1456662267446518,0.43608713150024414,-1.1644458770751953
1733512575987348000,2.672347900390625,0.18696732819080353,0.9610182642936707,-1.0950589179992676
1733512575997366000,2.682365966796875,0.21477165818214417,1.522053837776184,-0.9702474474906921
1733512576007385000,2.692385009765625,0.20124121010303497,1.94520902633667,-0.8277276158332825
1733512576017403100,2.702403076171875,0.15947884321212769,2.193430185317993,-0.715846061706543
1733512576027421000,2.7124208984375,0.07688666135072708,2.279829740524292,-0.6514867544174194
1733512576037440000,2.72243994140625,-0.018550215288996696,2.2033843994140625,-0.6491863131523132
1733512576047458000,2.7324580078125,-0.0816788524389267,2.0125653743743896,-0.7043150663375854
1733512576057477000,2.74247705078125,-0.13360905647277832,1.7746447324752808,-0.7825039029121399
1733512576067495200,2.7524951171875,-0.15379901230335236,1.5495727062225342,-0.8574532866477966
1733512576077513000,2.762512939453125,-0.19168108701705933,1.3328065872192383,-0.9301644563674927
1733512576087532000,2.772531982421875,-0.25126850605010986,1.1374990940093994,-0.9912773370742798
1733512576097550000,2.782550048828125,-0.32833200693130493,1.0120997428894043,-1.0523505210876465
1733512576107568000,2.792568115234375,-0.3857114315032959,0.9509506225585938,-1.089827299118042
1733512576117587200,2.802587158203125,-0.40482255816459656,0.9593929052352905,-1.1092243194580078
1733512576127605000,2.81260498046875,-0.3770822584629059,1.0424736738204956,-1.1234415769577026
1733512576137624000,2.8226240234375,-0.3288269639015198,1.1396477222442627,-1.1218763589859009
1733512576147642000,2.83264208984375,-0.26475581526756287,1.2672874927520752,-1.1090114116668701
1733512576157660000,2.842659912109375,-0.18344882130622864,1.4389601945877075,-1.0871789455413818
1733512576167679000,2.852678955078125,-0.11663676798343658,1.5916330814361572,-1.0607914924621582
1733512576177697000,2.862697021484375,-0.07683056592941284,1.692139744758606,-1.0441850423812866
1733512576187715000,2.872715087890625,-0.017924638465046883,1.7422404289245605,-1.0583651065826416
1733512576197734100,2.882734130859375,0.06316216289997101,1.6704978942871094,-1.0984504222869873
1733512576207752000,2.892751953125,0.12650226056575775,1.464895486831665,-1.159880518913269
1733512576217771000,2.90277099609375,0.1765885204076767,1.1322097778320312,-1.2245142459869385
1733512576227789000,2.9127890625,0.22301088273525238,0.7334410548210144,-1.299432635307312
1733512576237807000,2.92280712890625,0.26163339614868164,0.3516196310520172,-1.3952479362487793
1733512576247826200,2.932826171875,0.28576454520225525,0.026936372742056847,-1.4994611740112305
1733512576257844000,2.942843994140625,0.2874417304992676,-0.13270246982574463,-1.6020126342773438
1733512576267863000,2.952863037109375,0.2562912702560425,-0.09881268441677094,-1.6656129360198975
1733512576277881000,2.962881103515625,0.2033131718635559,0.14176462590694427,-1.6556270122528076
1733512576287899100,2.972899169921875,0.14095285534858704,0.6022025346755981,-1.5079728364944458
1733512576297918200,2.982918212890625,0.0987040102481842,1.2533320188522339,-1.1838761568069458
1733512576307936000,2.99293603515625,0.08039344102144241,1.893402338027954,-0.7605754733085632
1733512576317954000,3.0029541015625,0.09094171971082687,2.299116373062134,-0.38678717613220215
1733512576327973000,3.01297314453125,0.16170217096805573,2.404482126235962,-0.14253082871437073
1733512576337991000,3.022990966796875,0.1902727633714676,2.3167948722839355,-0.008483982644975185
1733512576348010000,3.033010009765625,0.1769029051065445,2.0984854698181152,0.137820765376091
1733512576358028300,3.0430283203125,0.2187005579471588,1.8719894886016846,0.32998019456863403
1733512576368046000,3.053046142578125,0.32148873805999756,1.7372870445251465,0.5726932287216187
1733512576378065200,3.063065185546875,0.385159969329834,1.726059913635254,0.8986554145812988
1733512576388083000,3.0730830078125,0.3593598008155823,1.8175439834594727,1.257283329963684
1733512576398102000,3.08310205078125,0.29816049337387085,1.8864895105361938,1.5137208700180054
1733512576408120000,3.0931201171875,0.2201751470565796,1.8800606727600098,1.5896601676940918
1733512576418138000,3.10313818359375,0.13253143429756165,1.8527911901474,1.4807169437408447
1733512576428157200,3.1131572265625,0.05602520704269409,1.8471601009368896,1.2730121612548828
1733512576438175000,3.123175048828125,-0.00029405392706394196,1.8349837064743042,1.0934354066848755
1733512576448193000,3.133193115234375,-0.01605224423110485,1.7396947145462036,1.083011507987976
1733512576458212000,3.143212158203125,-0.05260508507490158,1.5821120738983154,1.241005301475525
1733512576468230000,3.15322998046875,-0.11281915754079819,1.415223479270935,1.4644052982330322
1733512576478249000,3.1632490234375,-0.17013195157051086,1.2408639192581177,1.6609992980957031
1733512576488267000,3.17326708984375,-0.20820635557174683,1.091626763343811,1.8037253618240356
1733512576498285000,3.18328515625,-0.23478837311267853,0.9590328931808472,1.8852232694625854
1733512576508304100,3.19330419921875,-0.25940370559692383,0.8158211708068848,1.9205317497253418
1733512576518322000,3.203322021484375,-0.25826188921928406,0.7089952826499939,1.9419881105422974
1733512576528341000,3.213341064453125,-0.26275914907455444,0.8185087442398071,1.937515377998352
1733512576538359000,3.223359130859375,-0.333029180765152,1.0151031017303467,1.9297428131103516
1733512576548377000,3.233377197265625,-0.4279857873916626,1.1473932266235352,1.9614006280899048
1733512576558396200,3.243396240234375,-0.5133334398269653,1.3971410989761353,2.0288519859313965
1733512576568414000,3.2534140625,-0.505592405796051,1.728550672531128,2.1387460231781006
1733512576578432000,3.263431884765625,-0.4731067717075348,2.0454392433166504,2.248596429824829
1733512576588451000,3.273451171875,-0.4757672846317291,2.703638792037964,2.272552013397217
1733512576598469000,3.28346923828125,-0.49509063363075256,3.7242159843444824,2.313291549682617
1733512576608488200,3.29348828125,-0.5071001648902893,4.430472373962402,2.4003946781158447
1733512576618506000,3.303506103515625,-0.46148180961608887,4.651756763458252,2.4354209899902344
1733512576628524000,3.31352392578125,-0.36633187532424927,4.410061359405518,2.4311835765838623
1733512576638543000,3.323543212890625,-0.26587194204330444,3.974121332168579,2.472754955291748
1733512576648562700,3.333562744140625,-0.24753397703170776,3.5954880714416504,2.5388495922088623
1733512576658581500,3.34358154296875,-0.29349836707115173,3.2652673721313477,2.4796013832092285
1733512576668599600,3.353599609375,-0.31130746006965637,2.9695355892181396,2.278614044189453
1733512576678617600,3.36361767578125,-0.2717559337615967,2.5455753803253174,2.0083158016204834
1733512576688636400,3.373636474609375,-0.23302000761032104,2.132611036300659,1.7133091688156128
1733512576698654700,3.38365478515625,-0.18274091184139252,1.8918906450271606,1.4740794897079468
1733512576708672500,3.393672607421875,-0.14262732863426208,1.7945505380630493,1.304088830947876
1733512576718691600,3.403691650390625,-0.09108667075634003,1.8258357048034668,1.1953986883163452
1733512576728709400,3.41370947265625,-0.03846154361963272,1.9025955200195312,1.091860055923462
1733512576738728400,3.423728515625,-0.022469492629170418,1.9434406757354736,0.9504796862602234
1733512576748746800,3.433746826171875,-0.055434633046388626,1.8533328771591187,0.7821207642555237
1733512576758764500,3.4437646484375,-0.11638546735048294,1.6221508979797363,0.6310993432998657
1733512576768783600,3.45378369140625,-0.19612263143062592,1.3093993663787842,0.49005943536758423
1733512576778801400,3.463801513671875,-0.28355562686920166,1.0155479907989502,0.34306374192237854
1733512576788820500,3.473820556640625,-0.3441998064517975,0.7617470622062683,0.18885286152362823
1733512576798838500,3.483838623046875,-0.3775119483470917,0.5019245147705078,0.033604953438043594
1733512576808856600,3.493856689453125,-0.38237833976745605,0.18254148960113525,-0.10197710990905762
1733512576818875600,3.503875732421875,-0.3369356691837311,-0.08106598258018494,-0.20874938368797302
1733512576828893700,3.513893798828125,-0.2513182461261749,-0.26412075757980347,-0.23938745260238647
1733512576838911500,3.523911376953125,-0.17126229405403137,-0.24714137613773346,-0.19501464068889618
1733512576848930600,3.5339306640625,-0.1370372176170349,0.08898923546075821,-0.09624838829040527
1733512576858948400,3.5439482421875,-0.19127582013607025,0.6106624007225037,-0.0013789394870400429
1733512576868967400,3.553967529296875,-0.3095409572124481,1.1416738033294678,0.15973138809204102
1733512576878985700,3.56398583984375,-0.46932515501976013,1.6514933109283447,0.4212605357170105
1733512576889003500,3.57400341796875,-0.6882484555244446,2.156226396560669,0.6356346011161804
1733512576899022600,3.584022705078125,-0.8511043190956116,2.103158712387085,0.6596702337265015
1733512576909040400,3.594040283203125,-0.7093480229377747,0.8529435992240906,0.38511350750923157
1733512576919058700,3.60405859375,-0.39097753167152405,-1.1023725271224976,-0.398087739944458
1733512576929077500,3.614077392578125,-0.18620385229587555,-2.7318878173828125,-1.3906372785568237
1733512576939095600,3.624095458984375,-0.15122240781784058,-3.3465616703033447,-1.9426132440567017
1733512576949114600,3.634114501953125,-0.22748015820980072,-2.828361988067627,-1.9735674858093262
1733512576959132700,3.644132568359375,-0.32183098793029785,-1.5125751495361328,-1.7823491096496582
1733512576969150500,3.654150390625,-0.4040433168411255,-0.28810209035873413,-1.484449863433838
1733512576979169500,3.66416943359375,-0.47138938307762146,-0.33578217029571533,-1.0087947845458984
1733512576989187600,3.6741875,-0.5183560848236084,-1.1883585453033447,-0.5901706218719482
1733512576999206700,3.68420654296875,-0.5513240694999695,-1.940588116645813,-0.4686276614665985
1733512577009224700,3.694224609375,-0.4886023700237274,-2.212249279022217,-0.7165799736976624
1733512577019242500,3.704242431640625,-0.2517732083797455,-2.205756902694702,-1.186383843421936
1733512577029261600,3.714261474609375,0.10540488362312317,-1.9726593494415283,-1.6359219551086426
1733512577039279400,3.724279296875,0.46336162090301514,-1.594008207321167,-1.933953046798706
1733512577049298400,3.73429833984375,0.7009169459342957,-1.1751110553741455,-2.032327890396118
1733512577059316700,3.744316650390625,0.8428504467010498,-0.8786986470222473,-2.004595994949341
1733512577069334500,3.75433447265625,1.084017276763916,-0.49585384130477905,-1.7709060907363892
1733512577079353600,3.764353515625,1.233870506286621,-0.23724983632564545,-1.5158146619796753
1733512577089371400,3.774371337890625,1.1769428253173828,-0.03397847339510918,-1.3679370880126953
1733512577099389400,3.784389404296875,1.009475827217102,0.23816224932670593,-1.1408802270889282
1733512577109408500,3.794408447265625,0.7020131945610046,0.4780645966529846,-0.9633253812789917
1733512577119426600,3.804426513671875,0.233128160238266,0.6547263264656067,-1.0663849115371704
1733512577129445600,3.814445556640625,-0.10258939117193222,0.9140915870666504,-1.3522489070892334
1733512577139463700,3.824463623046875,-0.24907250702381134,1.285034418106079,-1.6652393341064453
1733512577149481500,3.8344814453125,-0.2572561204433441,1.5916712284088135,-1.9078980684280396
1733512577159500500,3.84450048828125,-0.26100513339042664,1.6851308345794678,-2.0300705432891846
1733512577169518600,3.8545185546875,-0.3063049912452698,1.4512584209442139,-2.0581612586975098
1733512577179537400,3.864537353515625,-0.366681843996048,0.882790744304657,-1.962264895439148
1733512577189555700,3.8745556640625,-0.4483146667480469,0.11477235704660416,-1.731673240661621
1733512577199573500,3.884573486328125,-0.5615226626396179,-0.5625727772712708,-1.4227793216705322
1733512577209592600,3.894592529296875,-0.6638876795768738,-1.006567358970642,-1.1093425750732422
1733512577219610400,3.9046103515625,-0.7244718670845032,-1.2321019172668457,-0.8500275611877441
1733512577229628700,3.914628662109375,-0.7672520875930786,-1.3010344505310059,-0.6832742691040039
1733512577239647700,3.924647705078125,-0.8107345700263977,-1.261927604675293,-0.5990792512893677
1733512577249665500,3.93466552734375,-0.8411383032798767,-1.1253453493118286,-0.5665114521980286
1733512577259684600,3.9446845703125,-0.8541207313537598,-0.9148072600364685,-0.5789074301719666
1733512577269702700,3.95470263671875,-0.8125706315040588,-0.6661990880966187,-0.6078996658325195
1733512577279720400,3.964720458984375,-0.7144700288772583,-0.4225056767463684,-0.6328138113021851
1733512577289739500,3.974739501953125,-0.5822544693946838,-0.23822905123233795,-0.64096599817276
1733512577299757600,3.984757568359375,-0.44671154022216797,-0.15965260565280914,-0.6377419829368591
1733512577309775600,3.994775634765625,-0.3311316668987274,-0.20022346079349518,-0.6349020004272461
1733512577319794700,4.004794677734375,-0.24104604125022888,-0.32239148020744324,-0.6468527913093567
1733512577329812500,4.0148125,-0.15733756124973297,-0.4693814516067505,-0.6718284487724304
1733512577339831600,4.02483154296875,-0.04516315460205078,-0.569113552570343,-0.7589604258537292
1733512577349849300,4.034849365234375,0.04882832244038582,-0.6152210831642151,-0.9021391868591309
1733512577359867600,4.04486767578125,0.0972868800163269,-0.6566296219825745,-1.0818644762039185
1733512577369886700,4.05488671875,0.08704755455255508,-0.6809331178665161,-1.2584611177444458
1733512577379904500,4.064904541015625,0.034946899861097336,-0.692754328250885,-1.415711760520935
1733512577389923600,4.074923583984375,0.008697718381881714,-0.741316020488739,-1.5986847877502441
1733512577399941400,4.08494140625,0.0097262654453516,-0.8030968904495239,-1.7954964637756348
1733512577409959700,4.094959716796875,0.03864846006035805,-0.7993306517601013,-1.9721250534057617
1733512577419978500,4.104978515625,0.08867021650075912,-0.7263540029525757,-2.082581043243408
1733512577429996500,4.11499658203125,0.1305079460144043,-0.6143707633018494,-2.098900318145752
1733512577440015600,4.125015625,0.11381641030311584,-0.4740477204322815,-2.049309492111206
1733512577450033700,4.13503369140625,-0.004292387515306473,-0.2180631011724472,-2.050478935241699
1733512577460051500,4.145051513671875,-0.12885427474975586,0.03334927558898926,-2.0388848781585693
1733512577470070500,4.155070556640625,-0.16395661234855652,-0.11769776791334152,-1.4352761507034302
1733512577480088600,4.165088623046875,-0.14352773129940033,-0.4981042742729187,0.10057100653648376
1733512577490106600,4.175106689453125,-0.03894566372036934,-0.2121068686246872,1.6322548389434814
1733512577500125700,4.185125732421875,0.15445242822170258,0.6227834224700928,2.4536893367767334
1733512577510143500,4.1951435546875,0.34079328179359436,1.307787299156189,2.6998887062072754
1733512577520162600,4.20516259765625,0.5401095151901245,1.3813161849975586,2.704223871231079
1733512577530180400,4.215180419921875,0.7385014295578003,0.8507491946220398,2.6193645000457764
1733512577540198700,4.22519873046875,0.8915578722953796,-0.18996377289295197,2.526862621307373
1733512577550217700,4.2352177734375,0.9638727903366089,-1.3358540534973145,2.4829766750335693
1733512577560235500,4.245235595703125,0.9654839634895325,-2.130788803100586,2.463155508041382
1733512577570254600,4.255254638671875,0.9503223299980164,-2.529898166656494,2.549520969390869
1733512577580272600,4.265272705078125,0.8518664240837097,-2.504577159881592,2.7750091552734375
1733512577590290400,4.27529052734375,0.5781760215759277,-2.0709028244018555,3.0383899211883545
1733512577600309500,4.2853095703125,0.2371978759765625,-1.389949083328247,3.247269630432129
1733512577610327600,4.29532763671875,-0.05136308819055557,-0.8290524482727051,3.374133586883545
1733512577620345600,4.305345703125,-0.22685883939266205,-0.5467343330383301,3.3299214839935303
1733512577630364700,4.31536474609375,-0.29315638542175293,-0.4433232247829437,3.064039468765259
1733512577640382500,4.325382568359375,-0.31751301884651184,-0.5068598389625549,2.6298487186431885
1733512577650400300,4.335400146484375,-0.40002545714378357,-0.6329746246337891,2.175333261489868
1733512577660418000,4.34541796875,-0.50751793384552,-0.5913164615631104,1.8568036556243896
1733512577670436000,4.35543603515625,-0.7155212163925171,-0.09711336344480515,1.7007932662963867
1733512577680455000,4.365454833984375,-0.7341915369033813,0.5211175084114075,1.513293743133545
1733512577690473000,4.375472900390625,-0.6171812415122986,1.2122416496276855,1.3358224630355835
1733512577700492000,4.385491943359375,-0.7730948328971863,1.560948371887207,1.5017282962799072
1733512577710510000,4.395510009765625,-0.734032154083252,1.6532386541366577,2.161736249923706
1733512577720528100,4.405528076171875,-0.6012464761734009,1.8281338214874268,2.742465019226074
1733512577730547000,4.415546875,-0.5412175059318542,2.4266409873962402,2.909255027770996
1733512577740565000,4.42556494140625,-0.5220682621002197,3.056959629058838,2.87654447555542
1733512577750584000,4.435583984375,-0.4138139486312866,3.340437650680542,2.82540225982666
1733512577760602000,4.44560205078125,-0.21555019915103912,3.2347524166107178,2.679063320159912
1733512577770620200,4.4556201171875,0.011827295646071434,2.90553617477417,2.3442492485046387
1733512577780639200,4.46563916015625,0.1392289698123932,2.639219045639038,1.9238020181655884
1733512577790657000,4.475656982421875,0.2181890308856964,2.576531171798706,1.5106149911880493
1733512577800675000,4.485675048828125,0.21798063814640045,2.679194688796997,1.2002841234207153
1733512577810694000,4.49569384765625,0.12131667137145996,2.7920446395874023,1.0466389656066895
1733512577820712200,4.505712158203125,-0.00892264861613512,2.7410354614257812,0.9856691956520081
1733512577830731300,4.515731201171875,-0.15578746795654297,2.507874011993408,0.9713477492332458
1733512577840749000,4.5257490234375,-0.3308403789997101,2.1779892444610596,0.9234436750411987
1733512577850767000,4.53576708984375,-0.49073177576065063,1.733954668045044,0.7346537709236145
1733512577860786000,4.545785888671875,-0.5651897192001343,1.1423035860061646,0.4219908118247986
1733512577870804000,4.555803955078125,-0.5506512522697449,0.530193567276001,0.10432228446006775
1733512577880823000,4.565822998046875,-0.5106928944587708,-0.0124667352065444,-0.14988435804843903
1733512577890841000,4.575841064453125,-0.47859007120132446,-0.44791433215141296,-0.31994715332984924
1733512577900859100,4.585859130859375,-0.46464481949806213,-0.7672749757766724,-0.46386250853538513
1733512577910878000,4.5958779296875,-0.46109482645988464,-0.9875812530517578,-0.6252734661102295
1733512577920896000,4.60589599609375,-0.45392683148384094,-1.1970773935317993,-0.7890979647636414
1733512577930914000,4.6159140625,-0.48360005021095276,-1.3252500295639038,-0.9011600613594055
1733512577940932900,4.625932861328125,-0.49937117099761963,-1.393344759941101,-0.9637614488601685
1733512577950951200,4.635951171875,-0.49499958753585815,-1.1697872877120972,-0.9533525109291077
1733512577960970200,4.64597021484375,-0.4499026834964752,-0.6175076365470886,-0.8305498957633972
1733512577970988000,4.655988037109375,-0.4849914312362671,-0.018754441291093826,-0.5959469676017761
1733512577981006000,4.666006103515625,-0.651490330696106,0.4694875180721283,-0.28013303875923157
1733512577991025000,4.67602490234375,-0.8178343176841736,0.9424473643302917,0.07459390163421631
1733512578001043200,4.686043212890625,-0.878429114818573,1.3895714282989502,0.32597002387046814
1733512578011062300,4.696062255859375,-0.8459092378616333,1.4955774545669556,0.4267408549785614
1733512578021080000,4.706080078125,-0.7524125576019287,1.3283709287643433,0.3283381462097168
1733512578031098000,4.71609814453125,-0.6103236079216003,1.201542615890503,0.03993431478738785
1733512578041117000,4.726116943359375,-0.47069644927978516,1.0109679698944092,-0.33592045307159424
1733512578051135000,4.736135009765625,-0.3934969902038574,0.5628519654273987,-0.6787920594215393
1733512578061153300,4.7461533203125,-0.4317108392715454,0.17667502164840698,-0.9447028636932373
1733512578071172000,4.756172119140625,-0.5280869007110596,0.024076681584119797,-1.1358137130737305
1733512578081190100,4.766190185546875,-0.6186186075210571,-0.0158951748162508,-1.312902569770813
1733512578091209200,4.776209228515625,-0.6670314073562622,-0.024748587980866432,-1.51304292678833
1733512578101227000,4.78622705078125,-0.6580094695091248,-0.06399565190076828,-1.6700936555862427
1733512578111245000,4.7962451171875,-0.6086429953575134,-0.2553485631942749,-1.749706506729126
1733512578121263900,4.806263916015625,-0.4725338816642761,-0.6050596237182617,-1.2737280130386353
1733512578131282200,4.8162822265625,0.0935782864689827,0.30288976430892944,1.7593994140625
1733512578141301200,4.82630126953125,0.37549611926078796,1.5107232332229614,1.1372747421264648
1733512578151319000,4.836319091796875,-0.04955769702792168,1.828304648399353,-0.5172919034957886
1733512578161337000,4.846337158203125,-0.2744627296924591,1.3839160203933716,-0.40169525146484375
1733512578171356000,4.85635595703125,0.07093702256679535,0.8447608351707458,0.14788290858268738
1733512578181374000,4.8663740234375,0.47265946865081787,-0.32069361209869385,0.39081692695617676
1733512578191393000,4.87639306640625,0.5569549202919006,-1.768835186958313,0.5013725161552429
1733512578201411000,4.8864111328125,0.3579985201358795,-2.120915651321411,0.3799557089805603
1733512578211429000,4.89642919921875,0.164724662899971,-1.2620558738708496,-0.2521335780620575
1733512578221448000,4.906447998046875,0.14969711005687714,0.055154599249362946,-1.1602150201797485
1733512578231466000,4.916466064453125,0.20705893635749817,1.098274827003479,-2.040644884109497
1733512578241484300,4.926484375,0.3027092516422272,1.8529914617538452,-2.7739553451538086
1733512578251503000,4.936503173828125,0.468077152967453,2.2671215534210205,-3.128725290298462
1733512578261521200,4.946521240234375,0.7964670062065125,1.6905981302261353,-3.052915096282959
1733512578271540200,4.956540283203125,1.107735514640808,0.16904841363430023,-2.547055244445801
1733512578281558000,4.96655810546875,1.0816185474395752,-1.1997840404510498,-1.7845048904418945
1733512578291576000,4.976576171875,0.43323928117752075,-1.6563332080841064,-1.341710090637207
1733512578301595000,4.986594970703125,-0.2434578537940979,-1.6169391870498657,-1.252933382987976
1733512578311613200,4.99661328125,-0.6155078411102295,-1.3191218376159668,-1.290379524230957
1733512578321632300,5.00663232421875,-0.6268208026885986,-0.9596458077430725,-1.3130931854248047
1733512578331650000,5.016650146484375,-0.5502727627754211,-0.7650845646858215,-1.3537460565567017
1733512578341668000,5.026668212890625,-0.5646733045578003,-1.2684547901153564,-1.6844884157180786
1733512578351687000,5.03668701171875,-0.7409964203834534,-2.651732921600342,-2.5310702323913574
1733512578361705000,5.046705078125,-0.9882200360298157,-3.336745023727417,-3.118800163269043
1733512578371724000,5.05672412109375,-0.9746134281158447,-3.321474075317383,-3.1170601844787598
1733512578381742000,5.0667421875,-0.7290297150611877,-3.025784730911255,-2.633975028991699
1733512578391760100,5.076760009765625,-0.5145408511161804,-2.5289275646209717,-1.9477382898330688
1733512578401779200,5.086779296875,-0.480276495218277,-1.8551326990127563,-1.289899468421936
1733512578411797000,5.096796875,-0.5803754329681396,-1.0788090229034424,-0.7938299179077148
1733512578421815000,5.10681494140625,-0.6911337375640869,-0.3256022334098816,-0.5364639759063721
1733512578431833900,5.116833740234375,-0.7135308980941772,0.2540811002254486,-0.47466182708740234
1733512578441852200,5.12685205078125,-0.624243974685669,0.542962372303009,-0.4881242513656616
1733512578451871200,5.136871337890625,-0.4558008909225464,0.504106879234314,-0.4953345060348511
1733512578461889000,5.146888916015625,-0.2916489541530609,0.272453248500824,-0.47567734122276306
1733512578471907000,5.156906982421875,-0.21757419407367706,0.050634853541851044,-0.450684130191803
1733512578481926000,5.16692578125,-0.21248260140419006,-0.14565083384513855,-0.42540618777275085
1733512578491944200,5.176944091796875,-0.2218438684940338,-0.30802589654922485,-0.3961966335773468
1733512578501963300,5.18696337890625,-0.2223093956708908,-0.37992537021636963,-0.37488576769828796
1733512578511981000,5.19698095703125,-0.21484960615634918,-0.340183287858963,-0.3488653302192688
1733512578521999000,5.2069990234375,-0.19780439138412476,-0.17875970900058746,-0.3285365402698517
1733512578532018000,5.217017822265625,-0.17010724544525146,0.06506228446960449,-0.3175557851791382
1733512578542036000,5.227035888671875,-0.12853272259235382,0.3153659403324127,-0.33083829283714294
1733512578552055000,5.237054931640625,-0.09027083963155746,0.5040697455406189,-0.3695041835308075
1733512578562073000,5.247072998046875,-0.056729190051555634,0.5761212110519409,-0.4552186131477356
1733512578572091100,5.257091064453125,0.0015207997057586908,0.4827633202075958,-0.5873430967330933
1733512578582110200,5.267110107421875,0.08683782815933228,0.2091624140739441,-0.7472683191299438
1733512578592128000,5.2771279296875,0.15812303125858307,-0.14775650203227997,-0.9074617028236389
1733512578602146000,5.28714599609375,0.20140781998634338,-0.5234662890434265,-1.0295064449310303
1733512578612164900,5.297164794921875,0.23512130975723267,-0.9028277397155762,-1.119215488433838
1733512578622183200,5.30718310546875,0.23975111544132233,-1.269856333732605,-1.187788724899292
1733512578632202200,5.3172021484375,0.19248345494270325,-1.5815635919570923,-1.2324602603912354
1733512578642220000,5.327219970703125,0.10483544319868088,-1.7335954904556274,-1.2830945253372192
1733512578652238300,5.33723828125,-0.0127721494063735,-1.7330881357192993,-1.3390408754348755
1733512578662257400,5.34725732421875,-0.16707979142665863,-1.6590170860290527,-1.4139853715896606
1733512578672275500,5.357275390625,-0.3321734070777893,-1.5478734970092773,-1.498741626739502
1733512578682294300,5.367294189453125,-0.48414182662963867,-1.4796308279037476,-1.6027220487594604
1733512578692312600,5.3773125,-0.6044591665267944,-1.4477040767669678,-1.6656155586242676
1733512578702330400,5.387330322265625,-0.661369800567627,-1.319090723991394,-1.6125794649124146
1733512578712349400,5.397349365234375,-0.6866850256919861,-1.0798389911651611,-1.4479774236679077
1733512578722367500,5.407367431640625,-0.6658785343170166,-0.7052789926528931,-1.488072156906128
1733512578732386300,5.41738623046875,-0.5846801400184631,-0.009690645150840282,-2.303506374359131
1733512578742404400,5.427404296875,-0.35826578736305237,0.04308494180440903,-2.4214701652526855
1733512578752422400,5.43742236328125,0.0007746496703475714,-1.2240021228790283,0.027539163827896118
1733512578762441500,5.44744140625,0.35271114110946655,-0.8996049165725708,2.639481544494629
1733512578772459500,5.45745947265625,0.6084611415863037,0.6876939535140991,4.048091888427734
1733512578782478300,5.467478271484375,0.8120640516281128,2.032655954360962,4.596951007843018
1733512578792496400,5.477496337890625,0.9903709292411804,2.445749282836914,4.663944244384766
1733512578802514400,5.487514404296875,1.0928611755371094,1.745740532875061,4.515819549560547
1733512578812533500,5.497533447265625,1.2405097484588623,0.24074488878250122,4.340921878814697
1733512578822551600,5.507551513671875,1.3903368711471558,-1.63835871219635,4.2098259925842285
1733512578832569300,5.5175693359375,1.3057197332382202,-3.256378173828125,4.019139289855957
1733512578842588400,5.52758837890625,1.0355615615844727,-4.206442356109619,3.6419835090637207
1733512578852606500,5.5376064453125,0.677287757396698,-4.4729390144348145,3.1825640201568604
1733512578862625300,5.547625244140625,0.2742142975330353,-4.328775882720947,2.8001017570495605
1733512578872643600,5.5576435546875,-0.06420474499464035,-4.053134441375732,2.498159408569336
1733512578882661400,5.567661376953125,-0.3077274262905121,-3.653052568435669,2.2094664573669434
1733512578892680400,5.577680419921875,-0.5167104601860046,-2.9379324913024902,1.901360034942627
1733512578902698500,5.587698486328125,-0.5081390142440796,-1.753760576248169,1.632084608078003
1733512578912717300,5.59771728515625,-0.4709261357784271,-0.31428319215774536,1.5217276811599731
1733512578922735400,5.6077353515625,-0.48513102531433105,1.159129023551941,1.5293242931365967
1733512578932753400,5.61775341796875,-0.5441917181015015,2.2993428707122803,1.6240745782852173
1733512578942772500,5.6277724609375,-0.5192520618438721,2.9842488765716553,1.6852885484695435
1733512578952790500,5.63779052734375,-0.4693915545940399,3.1605308055877686,1.7055286169052124
1733512578962808300,5.647808349609375,-0.43670833110809326,1.7712489366531372,1.8824399709701538
1733512578972827400,5.657827392578125,-0.41778817772865295,0.4785398542881012,2.1593377590179443
1733512578982845400,5.667845458984375,-0.3026512563228607,0.6113375425338745,2.2419686317443848
1733512578992864300,5.6778642578125,-0.09473855793476105,1.561282753944397,2.3664357662200928
1733512579002882600,5.687882568359375,0.0888647586107254,2.2849836349487305,2.482731342315674
1733512579012900400,5.697900390625,0.1345861703157425,2.391409397125244,2.33638596534729
1733512579022919400,5.70791943359375,0.07893319427967072,2.27459716796875,1.988417148590088
1733512579032937500,5.7179375,-0.014940833672881126,2.1653363704681396,1.6044180393218994
1733512579042956300,5.727956298828125,-0.0589306578040123,2.129664182662964,1.2938930988311768
1733512579052974300,5.737974365234375,-0.0936683937907219,2.2355265617370605,1.1211050748825073
1733512579062992400,5.747992431640625,-0.16271032392978668,2.2228739261627197,1.0250918865203857
1733512579073011500,5.758011474609375,-0.3334927260875702,1.996781826019287,0.8778401613235474
1733512579083029500,5.768029541015625,-0.5292189121246338,1.7034105062484741,0.6726462244987488
1733512579093048300,5.77804833984375,-0.6252000331878662,1.3031837940216064,0.44831138849258423
1733512579103066400,5.78806640625,-0.5926560163497925,0.7664951086044312,0.24808749556541443
1733512579113084400,5.79808447265625,-0.48736444115638733,0.12460590898990631,0.09696295857429504
1733512579123103500,5.808103515625,-0.3966735899448395,-0.5429139137268066,0.002202285686507821
1733512579133121500,5.81812158203125,-0.29311710596084595,-1.1557040214538574,-0.04591571167111397
1733512579143139300,5.828139404296875,-0.1842208355665207,-1.5762176513671875,-0.08102023601531982
1733512579153158400,5.838158447265625,-0.09416897594928741,-1.575455665588379,-0.1871464103460312
1733512579163176400,5.848176513671875,-0.061412692070007324,-1.2356139421463013,-0.35620948672294617
1733512579173195300,5.8581953125,-0.04560443386435509,-0.9128963351249695,-0.5222184658050537
1733512579183213600,5.868213623046875,-0.028805313631892204,-0.7253260612487793,-0.5799593329429626
1733512579193231400,5.8782314453125,-0.02004164829850197,-0.33058401942253113,-0.5018352270126343
1733512579203250400,5.88825048828125,-0.004381564445793629,0.2744769752025604,-0.299662321805954
1733512579213268500,5.8982685546875,-0.016962869092822075,1.008137822151184,-0.008734590373933315
1733512579223287300,5.908287353515625,-0.09793830662965775,1.6826728582382202,0.27438676357269287
1733512579233305300,5.918305419921875,-0.21945194900035858,2.0883095264434814,0.4247341752052307
1733512579243323400,5.928323486328125,-0.2981337308883667,2.194028615951538,0.4628382921218872
1733512579253342500,5.938342529296875,-0.3232435882091522,2.157336711883545,0.42500486969947815
1733512579263360500,5.948360595703125,-0.3062497079372406,2.218336582183838,0.3427266478538513
1733512579273379300,5.95837939453125,-0.2626122236251831,2.3523306846618652,0.1843457669019699
1733512579283397400,5.9683974609375,-0.17486877739429474,2.261319637298584,0.0007014053408056498
1733512579293415400,5.97841552734375,-0.10203024744987488,1.9381717443466187,-0.13669054210186005
1733512579303434500,5.9884345703125,-0.07528729736804962,1.536027193069458,-0.2814486026763916
1733512579313452500,5.99845263671875,-0.04279273375868797,1.1882054805755615,-0.5230018496513367
1733512579323471600,6.0084716796875,0.026087462902069092,1.0327621698379517,-0.7283692359924316
1733512579333489400,6.018489501953125,0.2431769073009491,1.1223359107971191,-0.2749551832675934
1733512579343507500,6.028507568359375,0.7186344861984253,2.5537455081939697,1.339361310005188
1733512579353526300,6.0385263671875,0.38777533173561096,4.250391483306885,1.4834178686141968
1733512579363544600,6.048544677734375,-0.14494763314723969,3.6682121753692627,0.9792606234550476
1733512579373562400,6.058562255859375,0.1710020750761032,2.1552703380584717,0.8632863163948059
1733512579383581400,6.06858154296875,0.8452903628349304,0.959038496017456,0.7833840250968933
1733512579393599500,6.078599609375,0.8655825853347778,-0.8898248672485352,0.3258800804615021
1733512579403618300,6.088618408203125,0.14159412682056427,-2.777799367904663,-0.29415953159332275
1733512579413636400,6.09863623046875,-0.6161847114562988,-3.643599271774292,-0.6568330526351929
1733512579423654400,6.108654296875,-1.0819331407546997,-3.2912802696228027,-0.9192070960998535
1733512579433673500,6.118673583984375,-1.1914615631103516,-2.8048484325408936,-1.3337140083312988
1733512579443691500,6.12869140625,-0.9968466758728027,-2.858525514602661,-1.9227174520492554
1733512579453710300,6.13871044921875,-0.6341712474822998,-3.298602342605591,-2.4274632930755615
1733512579463728400,6.148728271484375,-0.18387775123119354,-3.901599645614624,-2.7602076530456543
1733512579473746400,6.158746337890625,0.2767694890499115,-4.547562122344971,-2.9491469860076904
1733512579483765200,6.16876513671875,0.7720597386360168,-4.876794338226318,-2.939997434616089
1733512579493783600,6.178783447265625,1.31533944606781,-4.787546157836914,-2.767030715942383
1733512579503802600,6.188802734375,1.6599960327148438,-4.527654647827148,-2.4520461559295654
1733512579513820400,6.1988203125,1.6259297132492065,-4.088484764099121,-2.0964653491973877
1733512579523838500,6.20883837890625,1.1930382251739502,-3.313471555709839,-1.8150314092636108
1733512579533857300,6.218857177734375,0.5357479453086853,-2.226412773132324,-1.676421880722046
1733512579543875300,6.228875244140625,0.13477392494678497,-0.8644185662269592,-1.9011187553405762
1733512579553893400,6.238893310546875,0.22415706515312195,0.8444088697433472,-2.477041482925415
1733512579563912400,6.248912353515625,0.12818484008312225,1.7438021898269653,-2.5110156536102295
1733512579573930500,6.258930419921875,-0.23846186697483063,1.220573902130127,-1.4928598403930664
1733512579583949300,6.26894921875,-0.450656920671463,0.6316373348236084,-0.6469016671180725
1733512579593967400,6.27896728515625,-0.5951022505760193,0.45959046483039856,-0.39059585332870483
1733512579603985700,6.288985595703125,-0.6920726299285889,0.4657747149467468,-0.3974291980266571
1733512579614004500,6.29900439453125,-0.6771240830421448,0.5176061987876892,-0.4808117151260376
1733512579624022500,6.3090224609375,-0.5525455474853516,0.5706163644790649,-0.6212178468704224
1733512579634041600,6.31904150390625,-0.43121615052223206,0.5965174436569214,-0.7835081815719604
1733512579644059400,6.329059326171875,-0.3579443395137787,0.5564574599266052,-0.9343514442443848
1733512579654078000,6.339077880859375,-0.28882306814193726,0.44118303060531616,-1.0620434284210205
1733512579664096800,6.3490966796875,-0.22259655594825745,0.2523535192012787,-1.1661796569824219
1733512579674114800,6.35911474609375,-0.1798514872789383,0.012526296079158783,-1.2533129453659058
1733512579684134000,6.3691337890625,-0.15773342549800873,-0.25164327025413513,-1.3089176416397095
1733512579694152000,6.37915185546875,-0.1531224399805069,-0.479286789894104,-1.3346551656723022
1733512579704170000,6.389169921875,-0.15095792710781097,-0.6305305361747742,-1.3490252494812012
1733512579714188800,6.399188720703125,-0.15179362893104553,-0.7000347971916199,-1.3561073541641235
1733512579724206800,6.409206787109375,-0.14993944764137268,-0.6881995797157288,-1.3608388900756836
1733512579734226000,6.419225830078125,-0.15050004422664642,-0.6137087941169739,-1.3653061389923096
1733512579744244000,6.429243896484375,-0.15257519483566284,-0.48644793033599854,-1.351230263710022
1733512579754262000,6.439261962890625,-0.13770782947540283,-0.35400307178497314,-1.3193873167037964
1733512579764281000,6.449281005859375,-0.11286891996860504,-0.24997617304325104,-1.2818799018859863
1733512579774299000,6.459298828125,-0.09637383371591568,-0.1503438502550125,-1.244265079498291
1733512579784318000,6.46931787109375,-0.06915465742349625,-0.03173214942216873,-1.2248338460922241
1733512579794335700,6.479335693359375,-0.03049594908952713,0.10584381967782974,-1.2325695753097534
1733512579804354000,6.48935400390625,0.0036539523862302303,0.22733460366725922,-1.3110969066619873
1733512579814373000,6.499373046875,0.025974705815315247,0.2808596193790436,-1.491573691368103
1733512579824391000,6.509390869140625,0.021369673311710358,0.25890377163887024,-1.776244044303894
1733512579834409000,6.519408935546875,0.0116669787093997,0.1605766862630844,-2.111919641494751
1733512579844427800,6.529427734375,0.046955861151218414,-0.0739111676812172,-2.4580821990966797
1733512579854445800,6.53944580078125,0.13596537709236145,-0.5362772345542908,-2.7978568077087402
1733512579864465000,6.54946484375,0.21532340347766876,-1.1791037321090698,-3.038027048110962
1733512579874483000,6.55948291015625,0.25771722197532654,-1.861934781074524,-3.064244270324707
1733512579884501000,6.5695009765625,0.25084784626960754,-2.44209885597229,-2.7699835300445557
1733512579894520000,6.57952001953125,0.15894055366516113,-2.795444965362549,-2.096229076385498
1733512579904537900,6.589537841796875,-0.011273386888206005,-2.766155958175659,-1.1033271551132202
1733512579914557000,6.599556884765625,-0.2540287673473358,-2.2159550189971924,0.04199320822954178
1733512579924575000,6.609574951171875,-0.5136837959289551,-1.267440676689148,1.1143020391464233
1733512579934593000,6.619593017578125,-0.729469358921051,-0.13013513386249542,1.9075690507888794
1733512579944612000,6.629612060546875,-0.8602715730667114,0.9417763948440552,2.3873820304870605
1733512579954630000,6.6396298828125,-0.7820848822593689,1.892382264137268,2.8512446880340576
1733512579964649000,6.64964892578125,-0.4667557179927826,2.7690281867980957,3.4110379219055176
1733512579974666800,6.659666748046875,-0.1858137995004654,3.545219659805298,3.731825590133667
1733512579984685000,6.66968505859375,-0.05027225241065025,3.882005453109741,3.6444945335388184
1733512579994704100,6.6797041015625,0.09331980347633362,3.413914442062378,3.3164258003234863
1733512580004722000,6.689721923828125,0.3742606043815613,1.903978705406189,2.985755443572998
1733512580014740000,6.699739990234375,0.6738784313201904,-0.3701261579990387,2.7813634872436523
1733512580024758800,6.7097587890625,0.8096019625663757,-2.7020139694213867,2.6634879112243652
1733512580034776800,6.71977685546875,0.7935875654220581,-4.328336238861084,2.5574517250061035
1733512580044796000,6.7297958984375,0.6969186663627625,-5.029118537902832,2.424116849899292
1733512580054814000,6.73981396484375,0.6885467767715454,-4.920162200927734,2.2087597846984863
1733512580064832000,6.74983203125,0.6558952331542969,-3.9942264556884766,1.8131132125854492
1733512580074851000,6.75985107421875,0.5044220685958862,-2.806973457336426,1.4239366054534912
1733512580084868900,6.769868896484375,0.27136123180389404,-1.6159353256225586,1.1708894968032837
1733512580094888000,6.779887939453125,0.14360752701759338,-0.39955592155456543,1.1030229330062866
1733512580104905700,6.78990576171875,0.03859303519129753,0.6591119170188904,1.1585693359375
1733512580114924000,6.799924072265625,-0.05277043208479881,1.4009778499603271,1.284556269645691
1733512580124943000,6.809943115234375,-0.1761048138141632,1.703776478767395,1.4224777221679688
1733512580134961000,6.8199609375,-0.2009827345609665,1.6210054159164429,1.5042695999145508
1733512580144980000,6.82997998046875,-0.06607481837272644,1.400314211845398,1.3589043617248535
1733512580154997800,6.839997802734375,-0.008021635934710503,0.6706805229187012,0.9461463093757629
1733512580165015800,6.850015869140625,-0.12925484776496887,-0.2875315546989441,1.1824673414230347
1733512580175035000,6.860034912109375,-0.2633860409259796,-0.3035169243812561,1.5184288024902344
1733512580185053000,6.870052978515625,-0.3290122151374817,0.21502180397510529,1.7427623271942139
1733512580195072000,6.880072021484375,-0.32939890027046204,0.8517223596572876,1.8429211378097534
1733512580205090000,6.890090087890625,-0.3078550398349762,1.3020801544189453,1.8030842542648315
1733512580215107800,6.90010791015625,-0.30519798398017883,1.3867138624191284,1.6535497903823853
1733512580225127000,6.910126953125,-0.3110082149505615,1.2099018096923828,1.4220974445343018
1733512580235145000,6.92014501953125,-0.3208206295967102,0.99544358253479,1.1583943367004395
1733512580245163000,6.9301630859375,-0.3330613970756531,0.8984816074371338,0.9304609298706055
1733512580255182000,6.94018212890625,-0.3187114894390106,0.9317522048950195,0.7804344296455383
1733512580265199900,6.950199951171875,-0.3039204180240631,0.9849675893783569,0.6745651364326477
1733512580275219000,6.960218994140625,-0.32702386379241943,0.9795515537261963,0.5434926152229309
1733512580285236700,6.97023681640625,-0.37732499837875366,0.8446536660194397,0.3533434569835663
1733512580295255000,6.980255126953125,-0.41743913292884827,0.5121561884880066,0.13326646387577057
1733512580305274000,6.990274169921875,-0.41647982597351074,0.10399401932954788,-0.04551173001527786
1733512580315292000,7.0002919921875,-0.34800997376441956,-0.3279171586036682,-0.13931839168071747
1733512580325311000,7.01031103515625,-0.2829000949859619,-0.7967867851257324,-0.10374988615512848
1733512580335328800,7.020328857421875,-0.2956707775592804,-1.379995584487915,0.07164457440376282
1733512580345346800,7.030346923828125,-0.37559792399406433,-1.9696238040924072,0.29181969165802
1733512580355366000,7.040365966796875,-0.45683789253234863,-2.340139865875244,0.4898427724838257
1733512580365384000,7.050384033203125,-0.5168251395225525,-2.335675001144409,0.5852847695350647
1733512580375403000,7.060403076171875,-0.5678590536117554,-2.062567949295044,0.5488210320472717
1733512580385421000,7.070421142578125,-0.6056402325630188,-1.5678322315216064,0.3946511447429657
1733512580395438800,7.08043896484375,-0.583057165145874,-1.0692381858825684,0.22432999312877655
1733512580405458000,7.0904580078125,-0.44808903336524963,-0.6883699893951416,0.06343279033899307
1733512580415476000,7.10047607421875,-0.2700873613357544,-0.27776435017585754,-0.15205715596675873
1733512580425494800,7.110494873046875,-0.09632592648267746,0.06684560328722,-0.3648042678833008
1733512580435513000,7.12051318359375,0.07960169017314911,0.15854357182979584,-0.43674424290657043
1733512580445531000,7.13053076171875,0.19285841286182404,0.23663772642612457,-0.38136225938796997
1733512580455550000,7.140550048828125,0.2856120467185974,0.6423828601837158,-0.17688076198101044
1733512580465567700,7.150567626953125,0.47911733388900757,1.639001488685608,0.3662332594394684
1733512580475586800,7.1605869140625,0.506504237651825,2.9478235244750977,0.35443758964538574
1733512580485605000,7.170605224609375,0.3834288418292999,4.082204818725586,0.01388908363878727
1733512580495623000,7.180622802734375,0.37334558367729187,3.22940993309021,-0.01035953126847744
1733512580505642000,7.19064208984375,0.49905073642730713,0.5669510960578918,0.17528441548347473
1733512580515660000,7.200659912109375,0.3408997356891632,-1.2708423137664795,0.3125842213630676
1733512580525677800,7.210677734375,-0.09472484141588211,-1.4799944162368774,0.2125486433506012
1733512580535697000,7.22069677734375,-0.2836252450942993,-0.6468663215637207,0.0015136427246034145
1733512580545715000,7.23071484375,-0.20355165004730225,-0.22064930200576782,-0.3277013599872589
1733512580555734000,7.240734130859375,-0.20984044671058655,-0.7447562217712402,-0.6219865083694458
1733512580565752000,7.250751953125,-0.3132247030735016,-2.0099568367004395,-0.8027138710021973
1733512580575769900,7.260769775390625,-0.43338945508003235,-3.416135311126709,-1.0413269996643066
1733512580585789000,7.270788818359375,-0.3837638795375824,-4.2716217041015625,-1.3865256309509277
1733512580595806700,7.280806640625,-0.07374583184719086,-4.268587112426758,-1.6648145914077759
1733512580605825800,7.29082568359375,0.38134363293647766,-3.636120319366455,-1.8806055784225464
1733512580615844000,7.300843994140625,0.8446205258369446,-2.6751410961151123,-2.0293447971343994
1733512580625862000,7.31086181640625,1.1695632934570312,-1.718741536140442,-2.0462586879730225
1733512580635881000,7.320880859375,1.3163833618164062,-1.0008164644241333,-1.941535234451294
1733512580645898800,7.330898681640625,1.3470981121063232,-0.7142399549484253,-1.738803505897522
1733512580655916800,7.340916748046875,1.2925453186035156,-0.5872178673744202,-1.469894528388977
1733512580665934800,7.350934814453125,1.2430284023284912,-0.35432153940200806,-1.1549056768417358
1733512580675953000,7.360952880859375,0.9971180558204651,-0.1877320259809494,-0.8902302980422974
1733512580685971700,7.3709716796875,0.42015233635902405,-0.2116282880306244,-0.7862837314605713
1733512580695989800,7.38098974609375,-0.09764312952756882,-0.5020635724067688,-0.8227357864379883
1733512580706008800,7.3910087890625,-0.3566545844078064,-1.1897422075271606,-1.3657547235488892
1733512580716027000,7.40102685546875,-0.4742341935634613,-2.178194284439087,-1.9550340175628662
1733512580726045000,7.411044921875,-0.638859748840332,-2.6514906883239746,-2.024407148361206
1733512580736063700,7.421063720703125,-0.7857711315155029,-2.5676865577697754,-1.6548553705215454
1733512580746081800,7.431081787109375,-0.8524668216705322,-2.2880964279174805,-1.1150151491165161
1733512580756099600,7.441099609375,-0.7992534041404724,-1.8874850273132324,-0.6675350666046143
1733512580766118700,7.45111865234375,-0.6034114360809326,-1.4110580682754517,-0.44138583540916443
1733512580776137000,7.461136962890625,-0.3932885527610779,-0.9939284920692444,-0.40766116976737976
1733512580786155800,7.47115576171875,-0.27101558446884155,-0.8170437216758728,-0.46881958842277527
1733512580796173800,7.481173828125,-0.21852228045463562,-0.8824176788330078,-0.5815243124961853
1733512580806191900,7.49119189453125,-0.1437874287366867,-1.1700478792190552,-0.6624798774719238
1733512580816210700,7.501210693359375,-0.05442638695240021,-1.619958519935608,-0.7055583596229553
1733512580826228700,7.511228759765625,0.052406955510377884,-2.084277868270874,-0.7446324825286865
1733512580836247800,7.521247802734375,0.1470426470041275,-2.434558153152466,-0.8048290014266968
1733512580846265900,7.531265869140625,0.20490923523902893,-2.6042287349700928,-0.8738304972648621
1733512580856284000,7.541283935546875,0.22752107679843903,-2.567441940307617,-0.9328085780143738
1733512580866302700,7.551302734375,0.22344568371772766,-2.3430535793304443,-0.9779159426689148
1733512580876320800,7.56132080078125,0.1990218311548233,-1.9678913354873657,-0.9918421506881714
1733512580886339800,7.57133984375,0.2022450566291809,-1.5196363925933838,-0.9873814582824707
1733512580896358000,7.58135791015625,0.22100304067134857,-1.071160078048706,-0.9969930648803711
1733512580906376000,7.5913759765625,0.2409628927707672,-0.7086300849914551,-1.054905891418457
1733512580916394800,7.601394775390625,0.2568933665752411,-0.5151314735412598,-1.2191239595413208
1733512580926412800,7.611412841796875,0.2519625723361969,-0.571601390838623,-1.4946694374084473
1733512580936431900,7.621431884765625,0.1645592302083969,-0.9243258833885193,-1.7889701128005981
1733512580946449700,7.63144970703125,-0.014878541231155396,-1.5222333669662476,-1.9409708976745605
1733512580956468000,7.641468017578125,-0.09515154361724854,-2.247206449508667,-1.9550350904464722
1733512580966486800,7.65148681640625,-0.013845372945070267,-2.9265682697296143,-1.9618282318115234
1733512580976504800,7.6615048828125,0.17462706565856934,-3.427504777908325,-1.9824509620666504
1733512580986524000,7.67152392578125,0.4445861279964447,-3.6223561763763428,-1.9304965734481812
1733512580996541700,7.681541748046875,0.6890478134155273,-3.4190664291381836,-1.791660189628601
1733512581006559700,7.691559814453125,0.8068100214004517,-2.8087711334228516,-1.5624209642410278
1733512581016578800,7.701578857421875,0.8129634857177734,-1.8828270435333252,-1.2373923063278198
1733512581026596900,7.711596923828125,0.7046919465065002,-0.8900478482246399,-0.8455262780189514
1733512581036616000,7.721615966796875,0.4896717667579651,-0.15236975252628326,-0.38081881403923035
1733512581046633700,7.7316337890625,0.2678802013397217,0.20224297046661377,0.14103004336357117
1733512581056651800,7.74165185546875,-0.003666333854198456,0.3608424663543701,0.6085554361343384
1733512581066670800,7.7516708984375,-0.28480374813079834,0.4358844757080078,1.0388716459274292
1733512581076688600,7.761688720703125,-0.5137503743171692,0.34828779101371765,1.389892816543579
1733512581086707700,7.771707763671875,-0.7653732299804688,0.05195861682295799,1.6786043643951416
1733512581096725800,7.781725830078125,-1.0372412204742432,-0.41108545660972595,2.0181033611297607
1733512581106743800,7.791743896484375,-1.1263476610183716,-0.8748863935470581,2.345592737197876
1733512581116763000,7.801762939453125,-1.0586711168289185,-1.0848668813705444,2.418306350708008
1733512581126780700,7.81178076171875,-0.9699006676673889,-0.8057685494422913,2.106654405593872
1733512581136799000,7.821799072265625,-0.8167760968208313,-0.2776985764503479,1.6105026006698608
1733512581146818000,7.831818115234375,-0.5133927464485168,-0.2024797946214676,1.2426271438598633
1733512581156835800,7.8418359375,-0.2228594422340393,-0.809739351272583,1.08530592918396
1733512581166855000,7.85185498046875,0.0560041218996048,-1.7952719926834106,1.1626907587051392
1733512581176872700,7.861872802734375,0.3183124363422394,-2.832305431365967,1.3848127126693726
1733512581186890800,7.871890869140625,0.5273833274841309,-3.51454758644104,1.5265804529190063
1733512581196909800,7.881909912109375,0.7807122468948364,-3.6309101581573486,1.5263386964797974
1733512581206928000,7.891927978515625,0.9300611615180969,-3.54750657081604,1.4435393810272217
1733512581216947000,7.901947021484375,1.0572062730789185,-3.618527889251709,1.3116106986999512
1733512581226964700,7.91196484375,1.188926100730896,-3.8342106342315674,1.1464707851409912
1733512581236982800,7.921982666015625,1.256169080734253,-3.945509910583496,0.9649516344070435
1733512581247001900,7.932001953125,1.3011075258255005,-3.8190338611602783,0.8239988088607788
1733512581257019600,7.94201953125,1.3476816415786743,-3.5934579372406006,0.7175346612930298
1733512581267038700,7.952038818359375,1.4138846397399902,-3.2345941066741943,0.604701042175293
1733512581277056800,7.962056884765625,1.4137251377105713,-3.1106927394866943,0.48608195781707764
1733512581287074800,7.97207470703125,1.4089858531951904,-3.041163206100464,0.37905755639076233
1733512581297094000,7.982093994140625,1.3947240114212036,-2.887035846710205,0.2493206113576889
1733512581307111700,7.992111572265625,1.3394415378570557,-2.625948905944824,0.09818150848150253
1733512581317130800,8.002130859375,1.2274236679077148,-2.3010032176971436,0.0014307303354144096
1733512581327148800,8.012148681640625,1.0641385316848755,-1.9844756126403809,-0.0028355177491903305
1733512581337166800,8.022166748046875,0.8875847458839417,-1.771669864654541,0.07742496579885483
1733512581347186000,8.03218603515625,0.705153226852417,-1.6292098760604858,0.20214511454105377
1733512581357203700,8.04220361328125,0.5316094160079956,-1.4443731307983398,0.3157805800437927
1733512581367222800,8.052222900390625,0.3770335614681244,-1.2174466848373413,0.36864474415779114
1733512581377240800,8.06224072265625,0.2693105638027191,-1.0028637647628784,0.3873995244503021
1733512581387259000,8.0722587890625,0.2173614203929901,-0.8497337102890015,0.4209490120410919
1733512581397278000,8.08227783203125,0.2177872657775879,-0.7883923053741455,0.47018951177597046
1733512581407295700,8.092295654296874,0.2253209799528122,-0.842583179473877,0.4907418191432953
1733512581417314800,8.102314697265625,0.21758928894996643,-1.0369572639465332,0.4430083930492401
1733512581427332900,8.112332763671875,0.18873471021652222,-1.33720862865448,0.33793073892593384
1733512581437350700,8.1223505859375,0.1294519454240799,-1.7340956926345825,0.20826327800750732
1733512581447369700,8.13236962890625,0.04851018264889717,-2.2000796794891357,0.10360714793205261
1733512581457388000,8.142387939453124,-0.0749712735414505,-2.5244622230529785,0.013610146939754486
1733512581467405800,8.15240576171875,-0.18181279301643372,-2.7118358612060547,-0.05437486618757248
1733512581477425000,8.1624248046875,-0.2512555420398712,-2.8201732635498047,-0.09595293551683426
1733512581487442700,8.172442626953124,-0.29651421308517456,-2.9296302795410156,-0.1661454439163208
1733512581497461800,8.182461669921874,-0.3372962772846222,-3.0914552211761475,-0.28230294585227966
1733512581507479800,8.192479736328124,-0.40334847569465637,-3.233825922012329,-0.404631108045578
1733512581517497900,8.202497802734374,-0.4819338321685791,-3.291857957839966,-0.4877054989337921
1733512581527517000,8.212516845703124,-0.5296206474304199,-3.1859982013702393,-0.49270716309547424
1733512581537534700,8.22253466796875,-0.5276651382446289,-2.92240047454834,-0.46208107471466064
1733512581547553800,8.2325537109375,-0.47488999366760254,-2.566437005996704,-0.4238806962966919
1733512581557571800,8.24257177734375,-0.3750443458557129,-2.140806198120117,-0.3989838659763336
1733512581567589600,8.252589599609376,-0.2728927433490753,-1.6186875104904175,-0.38841092586517334
1733512581577608700,8.262608642578124,-0.21901193261146545,-1.0677870512008667,-0.40458428859710693
1733512581587626800,8.272626708984374,-0.188132181763649,-0.5368683338165283,-0.48655498027801514
1733512581597645800,8.282645751953124,-0.18347325921058655,-0.02437117137014866,-0.605950653553009
1733512581607663900,8.292663818359374,-0.22850672900676727,0.2757513225078583,-0.7392474412918091
1733512581617681700,8.302681640625,-0.3319833278656006,0.1456013023853302,-0.8269980549812317
1733512581627700700,8.31270068359375,-0.38249102234840393,-0.3117866516113281,-0.848206102848053
1733512581637719000,8.322718994140626,-0.33508357405662537,-0.9021636843681335,-0.7857680320739746
1733512581647737900,8.33273779296875,-0.21441161632537842,-1.3630688190460205,-0.6709122061729431
1733512581657757000,8.3427568359375,-0.03373425453901291,-1.5598021745681763,-0.4615989029407501
1733512581667774700,8.352774658203124,0.14911718666553497,-1.4832286834716797,-0.3262808322906494
1733512581677793800,8.362793701171874,0.2756977677345276,-1.044615626335144,-0.6202477812767029
1733512581687811600,8.3728115234375,0.40161579847335815,-0.7294307351112366,-0.9720703959465027
1733512581697830700,8.38283056640625,0.38735777139663696,-1.3489229679107666,-0.9701936841011047
1733512581707848700,8.3928486328125,0.13589446246623993,-2.3589670658111572,-0.6980921626091003
1733512581717866800,8.40286669921875,-0.11355771124362946,-2.9678115844726562,-0.5449526309967041
1733512581727885800,8.4128857421875,-0.18901142477989197,-3.0700385570526123,-0.6325721740722656
1733512581737903900,8.42290380859375,-0.0721772164106369,-2.758850336074829,-0.863937497138977
1733512581747922700,8.432922607421874,0.1399412602186203,-2.164818525314331,-1.091146469116211
1733512581757940700,8.442940673828126,0.3544628620147705,-1.4051650762557983,-1.21586012840271
1733512581767958500,8.45295849609375,0.514693558216095,-0.569557785987854,-1.2285356521606445
1733512581777977600,8.4629775390625,0.5732458233833313,0.17470945417881012,-1.152143120765686
1733512581787996000,8.472995849609376,0.5452077388763428,0.614319920539856,-1.0492255687713623
1733512581798014700,8.4830146484375,0.4486747980117798,0.5821028351783752,-1.0002195835113525
1733512581808032800,8.49303271484375,0.35296496748924255,0.25622251629829407,-1.008994698524475
1733512581818050600,8.503050537109376,0.2770395576953888,-0.26493972539901733,-1.1241271495819092
1733512581828069600,8.513069580078126,0.22109636664390564,-1.1878254413604736,-1.3786120414733887
1733512581838087700,8.523087646484376,0.03409106656908989,-2.3817572593688965,-1.6434237957000732
1733512581848106500,8.5331064453125,-0.23804408311843872,-3.0007474422454834,-1.713737964630127
1733512581858124800,8.543124755859376,-0.4239892065525055,-2.939995765686035,-1.5375107526779175
1733512581868142800,8.553142822265626,-0.533198356628418,-2.549567937850952,-1.1870851516723633
1733512581878161700,8.56316162109375,-0.6195438504219055,-2.1130340099334717,-0.8162545561790466
1733512581888179700,8.5731796875,-0.6585854291915894,-1.7032182216644287,-0.5662248730659485
1733512581898198800,8.58319873046875,-0.6114304065704346,-1.4027334451675415,-0.4942814111709595
1733512581908216800,8.593216796875,-0.5087717175483704,-1.2774176597595215,-0.5687538981437683
1733512581918235000,8.60323486328125,-0.4009394943714142,-1.35074782371521,-0.7054129838943481
1733512581928253700,8.613253662109376,-0.3055186867713928,-1.5737731456756592,-0.796001672744751
1733512581938271700,8.623271728515626,-0.2381543070077896,-1.870192527770996,-0.8237603306770325
1733512581948290800,8.633290771484376,-0.18878628313541412,-2.198918342590332,-0.8100525736808777
1733512581958308600,8.64330859375,-0.14692193269729614,-2.456031322479248,-0.787537157535553
1733512581968327000,8.653326904296875,-0.08515733480453491,-2.5611677169799805,-0.7774249911308289
1733512581978345700,8.663345703125,-0.02363751083612442,-2.537592649459839,-0.7801308035850525
1733512581988363800,8.67336376953125,0.004931116476655006,-2.410165786743164,-0.7693761587142944
1733512581998382800,8.6833828125,0.027798881754279137,-2.228879451751709,-0.7626716494560242
1733512582008400600,8.693400634765625,0.07030516862869263,-2.0249557495117188,-0.7768267393112183
1733512582018418700,8.703418701171875,0.09955040365457535,-1.818459391593933,-0.8453927636146545
1733512582028437500,8.7134375,0.10617251694202423,-1.6534465551376343,-0.9668694734573364
1733512582038455800,8.723455810546875,0.08386001735925674,-1.5860315561294556,-1.136894702911377
1733512582048475000,8.733474853515625,0.034003280103206635,-1.6321011781692505,-1.2994128465652466
1733512582058492700,8.74349267578125,-0.045855067670345306,-1.726157546043396,-1.3815008401870728
1733512582068510700,8.7535107421875,-0.13369014859199524,-1.7733620405197144,-1.3722784519195557
1733512582078529800,8.76352978515625,-0.18897949159145355,-1.7099766731262207,-1.2890435457229614
1733512582088547600,8.773547607421875,-0.22984734177589417,-1.5393458604812622,-1.1707627773284912
1733512582098566700,8.783566650390625,-0.28899773955345154,-1.310271978378296,-1.0529117584228516
1733512582108584700,8.793584716796875,-0.3241908550262451,-1.1020103693008423,-0.940800666809082
1733512582118602800,8.803602783203125,-0.30060216784477234,-1.0031805038452148,-0.8323740363121033
1733512582128621800,8.813621826171875,-0.22740256786346436,-0.988793134689331,-0.7512974739074707
1733512582138639600,8.8236396484375,-0.14685764908790588,-1.0194188356399536,-0.7163403034210205
1733512582148658700,8.83365869140625,-0.08872053772211075,-1.0448840856552124,-0.7142951488494873
1733512582158676700,8.8436767578125,-0.07627824693918228,-1.067129135131836,-0.7302999496459961
1733512582168694800,8.85369482421875,-0.10205541551113129,-1.1038110256195068,-0.7635921835899353
1733512582178713900,8.8637138671875,-0.1500847339630127,-1.160576581954956,-0.8385215401649475
1733512582188731600,8.873731689453125,-0.19709156453609467,-1.2558777332305908,-0.9620135426521301
1733512582198750700,8.883750732421875,-0.21607378125190735,-1.4548743963241577,-1.1256215572357178
1733512582208768500,8.8937685546875,-0.21126432716846466,-1.7554752826690674,-1.26463782787323
1733512582218786800,8.903786865234375,-0.1951221078634262,-2.1175668239593506,-1.2959816455841064
1733512582228806000,8.913805908203125,-0.1701558530330658,-2.5300607681274414,-1.167180061340332
1733512582238823700,8.92382373046875,-0.15609808266162872,-3.008054256439209,-0.8784118890762329
1733512582248842800,8.9338427734375,-0.19845253229141235,-3.3189046382904053,-0.4659669101238251
1733512582258860800,8.94386083984375,-0.26552265882492065,-3.2343757152557373,0.0016980356303974986
1733512582268878600,8.953878662109375,-0.3325572609901428,-2.722949266433716,0.4909086525440216
1733512582278897700,8.963897705078125,-0.34482964873313904,-1.9587016105651855,1.0035008192062378
1733512582288915700,8.973915771484375,-0.27338406443595886,-1.2449157238006592,1.4925992488861084
1733512582298934800,8.983934814453125,-0.13844141364097595,-0.7575348019599915,1.8909181356430054
1733512582308952800,8.993952880859375,0.032990481704473495,-0.6217972040176392,2.2103359699249268
1733512582318970600,9.003970703125,0.2239372581243515,-0.8389447331428528,2.486457109451294
1733512582328989700,9.01398974609375,0.41782769560813904,-1.296102523803711,2.7199881076812744
1733512582339007700,9.0240078125,0.5860971808433533,-1.898328185081482,2.8901617527008057
1733512582349026600,9.034026611328125,0.678533673286438,-2.4847967624664307,2.958352565765381
1733512582359044900,9.044044921875,0.7027133107185364,-2.830044746398926,2.88305401802063
1733512582369062700,9.054062744140625,0.7279896140098572,-2.994152069091797,2.7188990116119385
1733512582379081700,9.064081787109375,0.7288141250610352,-3.053325653076172,2.5069804191589355
1733512582389099800,9.074099853515625,0.7304218411445618,-3.0500943660736084,2.245701551437378
1733512582399118600,9.08411865234375,0.6854021549224854,-2.8955347537994385,1.8570386171340942
1733512582409137000,9.094136962890625,0.6745509505271912,-2.8727869987487793,1.4139834642410278
1733512582419154700,9.10415478515625,0.6755900979042053,-2.924245595932007,1.025075912475586
1733512582429173800,9.114173828125,0.6517048478126526,-2.8600902557373047,0.6865916848182678
1733512582439191800,9.12419189453125,0.6286736130714417,-2.5855929851531982,0.3934597373008728
1733512582449210600,9.134210693359375,0.611977756023407,-2.142061233520508,0.16555622220039368
1733512582459228700,9.144228759765625,0.5428810119628906,-1.459279179573059,-0.00965022575110197
1733512582469246700,9.154246826171875,0.4149245619773865,-0.8256233930587769,0.009421403519809246
1733512582479265800,9.164265869140625,0.2617139518260956,-0.7470257878303528,0.5028473734855652
1733512582489283800,9.174283935546875,0.2045997530221939,-0.6527549028396606,1.4148781299591064
1733512582499302700,9.184302734375,0.2404927760362625,0.28890877962112427,1.9944120645523071
1733512582509320700,9.19432080078125,0.22900252044200897,1.1737715005874634,2.236222982406616
1733512582519338500,9.20433837890625,0.12024036049842834,1.4965753555297852,2.180799722671509
1733512582529357600,9.214357666015625,-0.000008015544153749943,1.417493462562561,1.9558353424072266
1733512582539375900,9.2243759765625,-0.08099634200334549,1.2077244520187378,1.6911544799804688
1733512582549394700,9.234394775390625,-0.1326446235179901,0.9931117296218872,1.4586349725723267
1733512582559412700,9.244412841796875,-0.15992391109466553,0.8406364321708679,1.3073184490203857
1733512582569430800,9.2544306640625,-0.18584991991519928,0.729625940322876,1.2056809663772583
1733512582579449600,9.26444970703125,-0.19477789103984833,0.6141294240951538,1.0638505220413208
1733512582589467600,9.274467529296874,-0.16913436353206635,0.5115468502044678,0.8564245700836182
1733512582599486700,9.28448681640625,-0.13704326748847961,0.42356663942337036,0.6575455665588379
1733512582609504800,9.2945048828125,-0.06855655461549759,0.3669998347759247,0.46309638023376465
1733512582619522800,9.304522705078124,-0.032058991491794586,0.34152111411094666,0.3083994686603546
1733512582629541600,9.314541748046874,-0.03899562731385231,0.19816000759601593,0.20263361930847168
1733512582639559700,9.3245595703125,-0.08316495269536972,-0.017730742692947388,0.12550847232341766
1733512582649578800,9.334578857421874,-0.1619609296321869,-0.06889365613460541,0.03887461498379707
1733512582659596800,9.3445966796875,-0.2692551612854004,-0.08128827065229416,-0.05307581275701523
1733512582669614800,9.35461474609375,-0.33658018708229065,-0.13607686758041382,-0.12816806137561798
1733512582679634000,9.364634033203124,-0.36286747455596924,-0.12154532223939896,-0.18024910986423492
1733512582689651700,9.374651611328124,-0.3474007248878479,-0.031065059825778008,-0.2095319628715515
1733512582699670800,9.3846708984375,-0.30371686816215515,0.06814274936914444,-0.22720550000667572
1733512582709688800,9.394688720703124,-0.24824322760105133,0.14154726266860962,-0.2656235992908478
1733512582719707000,9.404706787109374,-0.2024959772825241,0.17153525352478027,-0.32745981216430664
1733512582729726000,9.414725830078124,-0.17941775918006897,0.14703179895877838,-0.36501654982566833
1733512582739743700,9.42474365234375,-0.19986310601234436,0.03227992355823517,-0.31247478723526
1733512582749762800,9.4347626953125,-0.2619466483592987,-0.03480503335595131,-0.17536795139312744
1733512582759780900,9.44478076171875,-0.33279526233673096,0.11732032150030136,-0.03211357817053795
1733512582769798700,9.454798583984376,-0.36647915840148926,0.480106383562088,0.08428157866001129
1733512582779817700,9.464817626953124,-0.3607131540775299,0.9764280319213867,0.19559051096439362
1733512582789835800,9.474835693359376,-0.3398754298686981,1.401974081993103,0.44614070653915405
1733512582799854800,9.484854736328124,-0.284110426902771,1.7094080448150635,0.6927095055580139
1733512582809873000,9.494872802734376,-0.23079076409339905,1.9806972742080688,0.39942675828933716
1733512582819890700,9.504890625,-0.1741969883441925,2.0670158863067627,-0.14150598645210266
1733512582829909800,9.51490966796875,-0.1381732076406479,1.6789759397506714,-0.34409114718437195
1733512582839927800,9.524927734375,-0.04837808012962341,0.7135978937149048,-0.11333145946264267
1733512582849946600,9.534946533203126,-0.010679768398404121,-0.33572718501091003,0.1858406811952591
1733512582859965000,9.54496484375,-0.1336837261915207,-1.0426392555236816,0.20497389137744904
1733512582869982700,9.554982666015626,-0.164062038064003,-1.103241205215454,-0.22749365866184235
1733512582880001800,9.565001708984376,-0.045725803822278976,-0.2119685262441635,-0.5198519825935364
1733512582890019800,9.575019775390626,-0.09099261462688446,0.41640031337738037,-0.5887991189956665
1733512582900038700,9.58503857421875,-0.2416423112154007,0.3045957386493683,-0.5824389457702637
1733512582910056700,9.595056640625,-0.3315475285053253,-0.19549521803855896,-0.6582511067390442
1733512582920074800,9.60507470703125,-0.3163539469242096,-0.9134610891342163,-0.840430498123169
1733512582930093800,9.61509375,-0.177373468875885,-1.7170823812484741,-1.0940091609954834
1733512582940112000,9.62511181640625,0.05785954371094704,-2.329742908477783,-1.3462605476379395
1733512582950130700,9.635130615234376,0.29462844133377075,-2.6366279125213623,-1.5456860065460205
1733512582960148700,9.645148681640626,0.47470739483833313,-2.4874837398529053,-1.7284033298492432
1733512582970167000,9.6551669921875,0.6270878314971924,-1.9608927965164185,-1.8761016130447388
1733512582980185900,9.665185791015626,0.774154782295227,-1.408376693725586,-1.929357886314392
1733512582990204000,9.675203857421875,0.8518756031990051,-0.91632080078125,-1.8669792413711548
1733512583000223000,9.685222900390626,0.8771353960037231,-0.48963817954063416,-1.725902795791626
1733512583010240800,9.69524072265625,0.8351429104804993,-0.18151596188545227,-1.581946611404419
1733512583020258800,9.7052587890625,0.7456820011138916,0.12191928178071976,-1.528132677078247
1733512583030277600,9.715277587890625,0.5982304811477661,0.3797599673271179,-1.7491285800933838
1733512583040296000,9.7252958984375,0.4579985439777374,0.326852023601532,-2.115673780441284
1733512583050315000,9.73531494140625,0.13708771765232086,-0.26285555958747864,-2.2357258796691895
1733512583060332800,9.745332763671875,-0.2179529219865799,-1.073250651359558,-1.912575125694275
1733512583070350800,9.755350830078125,-0.3847138583660126,-1.295059323310852,-1.4809268712997437
1733512583080369700,9.76536962890625,-0.36844247579574585,-0.9171051383018494,-1.0859297513961792
1733512583090387700,9.7753876953125,-0.33817604184150696,-0.35005423426628113,-0.7551444172859192
1733512583100406800,9.78540673828125,-0.3486795723438263,0.201351135969162,-0.5189867615699768
1733512583110424800,9.7954248046875,-0.41208386421203613,0.6541498303413391,-0.3987029194831848
1733512583120443000,9.80544287109375,-0.43894052505493164,0.8763328194618225,-0.3810512125492096
1733512583130461700,9.815461669921875,-0.41890454292297363,0.8793434500694275,-0.44998833537101746
1733512583140479700,9.825479736328125,-0.41765207052230835,0.712156355381012,-0.5531889796257019
1733512583150498800,9.835498779296875,-0.4344156086444855,0.40801191329956055,-0.6634188294410706
1733512583160516900,9.845516845703125,-0.4451289772987366,0.05258164927363396,-0.7694723010063171
1733512583170535000,9.855534912109375,-0.44231072068214417,-0.3134574294090271,-0.8752416968345642
1733512583180554000,9.865553955078125,-0.41157063841819763,-0.6452447175979614,-0.978970468044281
1733512583190571800,9.87557177734375,-0.37019482254981995,-0.9145154356956482,-1.0705667734146118
1733512583200590800,9.8855908203125,-0.3235817849636078,-1.1262879371643066,-1.1381583213806152
1733512583210608600,9.895608642578125,-0.2743791937828064,-1.2856236696243286,-1.1778454780578613
1733512583220627000,9.905626953125,-0.2116526961326599,-1.4054768085479736,-1.1891117095947266
1733512583230646000,9.91564599609375,-0.1456490308046341,-1.4494441747665405,-1.185325264930725
1733512583240663800,9.925663818359375,-0.07721378654241562,-1.3860281705856323,-1.1768057346343994
1733512583250683000,9.935682861328125,0.008247616700828075,-1.1924411058425903,-1.1703083515167236
1733512583260700700,9.94570068359375,0.09061626344919205,-0.8752657771110535,-1.1617615222930908
1733512583270718700,9.95571875,0.15193068981170654,-0.4756207764148712,-1.142380952835083
1733512583280737800,9.96573779296875,0.19180485606193542,-0.044771112501621246,-1.1065443754196167
1733512583290755800,9.975755859375,0.20513297617435455,0.3818250596523285,-1.0628348588943481
1733512583300775000,9.98577490234375,0.19920557737350464,0.7884482145309448,-1.0581165552139282
1733512583310793000,9.99579296875,0.18593092262744904,1.1567323207855225,-1.1435056924819946
1733512583320810800,10.005810791015625,0.1919424831867218,1.4053298234939575,-1.3349825143814087
1733512583330829800,10.015829833984375,0.23632588982582092,1.4269884824752808,-1.5741993188858032
1733512583340847600,10.02584765625,0.3359571397304535,1.143417239189148,-1.749878168106079
1733512583350866700,10.03586669921875,0.4431167542934418,0.5558269023895264,-1.755886197090149
1733512583360885000,10.045885009765625,0.4835464656352997,-0.15956741571426392,-1.522613763809204
1733512583370902800,10.05590283203125,0.418743759393692,-0.7449593544006348,-1.0647984743118286
1733512583380921900,10.065921875,0.2749008536338806,-1.0370748043060303,-0.5445340871810913
1733512583390939600,10.075939697265625,0.10820604115724564,-0.9881519675254822,-0.1617956906557083
1733512583400958700,10.085958740234375,0.004665798973292112,-0.6659382581710815,-0.008926788344979286
1733512583410976800,10.095976806640625,-0.04898970574140549,-0.26161667704582214,0.01766902394592762
1733512583420994800,10.105994873046875,-0.05617890879511833,0.012279318645596504,0.06978388875722885
1733512583431014000,10.116013916015625,-0.043263811618089676,0.10472211241722107,0.22139015793800354
1733512583441031700,10.12603173828125,-0.005049845669418573,0.1589728444814682,0.37871161103248596
1733512583451050800,10.13605078125,0.12068328261375427,0.24776943027973175,0.3792933225631714
1733512583461068800,10.14606884765625,0.26289743185043335,0.2722654342651367,0.1477932631969452
1733512583471087600,10.156087646484375,0.3519922196865082,-0.19085654616355896,0.1328219771385193
1733512583481106000,10.16610595703125,0.535832405090332,-1.0809038877487183,1.328081488609314
1733512583491124000,10.1761240234375,0.7937926054000854,-0.5811072587966919,2.708932399749756
1733512583501142800,10.186142822265625,0.7352456450462341,0.7007856369018555,3.724106550216675
1733512583511160800,10.196160888671875,0.6026788353919983,1.8496559858322144,4.228671550750732
1733512583521178600,10.2061787109375,0.5950925946235657,2.34960675239563,4.322092056274414
1733512583531197700,10.21619775390625,0.6599041819572449,2.147681951522827,4.074941635131836
1733512583541216000,10.226216064453125,0.755691409111023,1.239974021911621,3.5919981002807617
1733512583551234800,10.23623486328125,0.8450504541397095,-0.011910929344594479,3.0379786491394043
1733512583561252900,10.2462529296875,0.8271042108535767,-1.1813279390335083,2.53285813331604
1733512583571272000,10.25627197265625,0.6807488203048706,-1.995896816253662,2.208733081817627
1733512583581289700,10.266289794921875,0.38093385100364685,-1.986429214477539,1.9507766962051392
1733512583591307800,10.276307861328124,-0.04774847254157066,-1.366950511932373,1.5630784034729004
1733512583601326600,10.28632666015625,-0.5051530599594116,-0.5899153351783752,1.0892623662948608
1733512583611345000,10.296344970703124,-0.8732477426528931,0.01921839267015457,0.7556842565536499
1733512583621364000,10.306364013671875,-0.9565860033035278,0.030063850805163383,0.7473583817481995
1733512583631381800,10.3163818359375,-0.9290319085121155,-0.5253913998603821,0.8570156693458557
1733512583641399800,10.32639990234375,-0.977343738079071,-0.9467378258705139,1.059616208076477
1733512583651419000,10.3364189453125,-0.9827856421470642,-0.3145999610424042,1.4464867115020752
1733512583661436400,10.3464365234375,-0.9352580904960632,1.4428175687789917,1.960994005203247
1733512583671455500,10.35645556640625,-0.8209474086761475,3.536672830581665,2.553269147872925
1733512583681473300,10.366473388671874,-0.7774790525436401,4.886128902435303,3.0728344917297363
1733512583691491300,10.3764912109375,-0.7421345710754395,5.145438194274902,3.2807822227478027
1733512583701510400,10.386510498046874,-0.6718803644180298,4.624841213226318,3.0917367935180664
1733512583711528200,10.396528076171874,-0.6170815229415894,3.7687854766845703,2.6101250648498535
1733512583721547300,10.40654736328125,-0.5964228510856628,2.9518344402313232,2.102933883666992
1733512583731565300,10.4165654296875,-0.6496490836143494,2.4574077129364014,1.7086918354034424
1733512583741583400,10.426583251953126,-0.7403233051300049,2.356559991836548,1.4807460308074951
1733512583751602400,10.4366025390625,-0.814237654209137,2.4768965244293213,1.3914555311203003
1733512583761620200,10.4466201171875,-0.8223560452461243,2.6371047496795654,1.3431806564331055
1733512583771639300,10.456639404296874,-0.7476372718811035,2.7469518184661865,1.290049433708191
1733512583781657300,10.4666572265625,-0.6899470686912537,2.836695909500122,1.277691125869751
1733512583791675400,10.47667529296875,-0.6780635118484497,2.81531023979187,1.2857930660247803
1733512583801694500,10.486694580078124,-0.7060719728469849,2.656871795654297,1.2663556337356567
1733512583811712300,10.496712158203126,-0.755020022392273,2.452066421508789,1.1938759088516235
1733512583821731300,10.5067314453125,-0.7880882024765015,2.2209086418151855,1.0810587406158447
1733512583831749400,10.516749267578126,-0.7976006865501404,1.9227584600448608,0.9383074641227722
1733512583841767400,10.526767333984376,-0.7793891429901123,1.578899621963501,0.7786389589309692
1733512583851786500,10.536786376953126,-0.7230560183525085,1.1952404975891113,0.6085389852523804
1733512583861804300,10.54680419921875,-0.6351706385612488,0.828830361366272,0.43188777565956116
1733512583871823400,10.5568232421875,-0.5298312306404114,0.5556443929672241,0.25489890575408936
1733512583881841400,10.56684130859375,-0.41509610414505005,0.46168485283851624,0.09107298403978348
1733512583891859200,10.576859130859376,-0.3289608359336853,0.5506768822669983,-0.053869012743234634
1733512583901878300,10.586878173828126,-0.2686050832271576,0.6642428636550903,-0.18201765418052673
1733512583911896600,10.596896484375,-0.22914329171180725,0.6886057257652283,-0.31153902411460876
1733512583921915400,10.606915283203126,-0.2086196392774582,0.6012500524520874,-0.47167062759399414
1733512583931933400,10.616933349609376,-0.21405473351478577,0.4139750301837921,-0.6544265747070312
1733512583941951200,10.626951171875,-0.26130959391593933,0.17073549330234528,-0.8447864055633545
1733512583951970300,10.63697021484375,-0.3455391228199005,-0.15587902069091797,-0.9900020956993103
1733512583961988400,10.64698828125,-0.4742342531681061,-0.45277222990989685,-1.0372034311294556
1733512583972007200,10.657007080078126,-0.6352823376655579,-0.6513786911964417,-0.9542357921600342
1733512583982025500,10.667025390625,-0.7572354078292847,-0.7261275053024292,-0.73592209815979
1733512583992043300,10.677043212890625,-0.828603982925415,-0.6469428539276123,-0.4923447370529175
1733512584002062300,10.687062255859376,-0.8987114429473877,-0.3989112675189972,-0.26671987771987915
1733512584012080400,10.697080322265625,-0.9486476182937622,-0.12196872383356094,-0.07232633233070374
1733512584022099200,10.70709912109375,-0.9569833278656006,-0.02633780613541603,0.09648293256759644
1733512584032117200,10.7171171875,-0.8827627897262573,-0.2162071317434311,0.29742053151130676
1733512584042135300,10.72713525390625,-0.7411484122276306,-0.3046205937862396,0.14341126382350922
1733512584052154400,10.737154296875,-0.5740940570831299,-0.08783410489559174,-0.5104884505271912
1733512584062172400,10.74717236328125,-0.297548770904541,-0.04422297701239586,-0.9976990818977356
1733512584072191200,10.757191162109375,0.17130108177661896,-0.02429649420082569,-1.1119493246078491
1733512584082209300,10.767209228515625,0.5425409078598022,0.04568525776267052,-0.9237903356552124
1733512584092227600,10.7772275390625,0.6162902116775513,0.6626940965652466,-0.7841669321060181
1733512584102246400,10.787246337890625,0.580589771270752,1.3030098676681519,-1.0244760513305664
1733512584112264400,10.797264404296875,0.3348177671432495,0.707826554775238,-0.8291375041007996
1733512584122283500,10.807283447265625,-0.13328364491462708,-0.5467782616615295,-0.3374186158180237
1733512584132301300,10.81730126953125,-0.7579020857810974,-1.6875110864639282,0.03790298476815224
1733512584142319400,10.8273193359375,-1.1986709833145142,-2.294734477996826,0.012368865311145782
1733512584152338200,10.837338134765625,-1.0485230684280396,-2.5200955867767334,-0.4944438636302948
1733512584162356500,10.8473564453125,-0.44383350014686584,-2.616506338119507,-1.2830010652542114
1733512584172375600,10.85737548828125,0.3843615651130676,-2.8176848888397217,-1.99236261844635
1733512584182393300,10.867393310546875,1.1869155168533325,-3.099905490875244,-2.477552652359009
1733512584192412400,10.877412353515625,1.7559599876403809,-3.1138110160827637,-2.7265243530273438
1733512584202430200,10.88743017578125,1.963545322418213,-3.0061285495758057,-2.648895502090454
1733512584212448300,10.8974482421875,1.8366329669952393,-2.450577735900879,-2.277263879776001
1733512584222467300,10.90746728515625,1.3625894784927368,-1.3251153230667114,-1.724651575088501
1733512584232485400,10.9174853515625,0.8093708753585815,-0.03863565996289253,-1.3456312417984009
1733512584242504400,10.92750439453125,0.48038583993911743,1.204482913017273,-1.1224652528762817
1733512584252522500,10.9375224609375,0.29687198996543884,2.3417348861694336,-1.050434947013855
1733512584262540300,10.947540283203125,0.19622981548309326,3.163069248199463,-1.111478567123413
1733512584272559400,10.957559326171875,-0.021309111267328262,3.526834487915039,-1.2996819019317627
1733512584282577200,10.9675771484375,-0.39504730701446533,3.01383900642395,-1.7214808464050293
1733512584292596200,10.97759619140625,-0.44596055150032043,0.949218213558197,-2.4263150691986084
1733512584302614500,10.987614501953125,-0.37425440549850464,-1.1716548204421997,-2.614284038543701
1733512584312632300,10.99763232421875,-0.38927963376045227,-2.0357253551483154,-2.298919200897217
1733512584322651400,11.0076513671875,-0.45987364649772644,-1.9181534051895142,-1.800220012664795
1733512584332669200,11.017669189453125,-0.5326635241508484,-1.4883958101272583,-1.3312513828277588
1733512584342688300,11.027688232421875,-0.5591891407966614,-1.0380302667617798,-1.0263967514038086
1733512584352706600,11.03770654296875,-0.6031031608581543,-0.68348228931427,-0.9121500849723816
1733512584362724400,11.047724365234375,-0.6434346437454224,-0.4709116816520691,-0.9376810193061829
1733512584372743400,11.057743408203125,-0.6182529926300049,-0.4541163444519043,-1.0407500267028809
1733512584382761200,11.06776123046875,-0.5514489412307739,-0.6277880072593689,-1.1347532272338867
1733512584392780300,11.0777802734375,-0.47430405020713806,-0.8894321918487549,-1.1826508045196533
1733512584402798300,11.08779833984375,-0.41687166690826416,-1.159316897392273,-1.16191565990448
1733512584412816400,11.09781640625,-0.39550158381462097,-1.3873865604400635,-1.0476127862930298
1733512584422835500,11.10783544921875,-0.3565507233142853,-1.567194938659668,-0.878459632396698
1733512584432853500,11.117853515625,-0.267130583524704,-1.6036372184753418,-0.7025936245918274
1733512584442872300,11.127872314453125,-0.2090614289045334,-1.4212133884429932,-0.5247469544410706
1733512584452890400,11.137890380859375,-0.1824258267879486,-1.1038024425506592,-0.3212272524833679
1733512584462908200,11.147908203125,-0.12147192656993866,-0.7845357656478882,-0.07999330013990402
1733512584472927200,11.15792724609375,-0.03165898472070694,-0.4715898036956787,0.18316566944122314
1733512584482945500,11.167945556640625,0.07740944623947144,-0.1126023381948471,0.3944592773914337
1733512584492964400,11.17796435546875,0.1921582967042923,0.2857728600502014,0.42645329236984253
1733512584502982400,11.187982421875,0.2660370469093323,0.6782093644142151,0.19756871461868286
1733512584513000200,11.198000244140625,0.2778666913509369,1.0116887092590332,-0.2580795884132385
1733512584523019300,11.208019287109375,0.2401086390018463,1.219643473625183,-0.810135543346405
1733512584533037300,11.218037353515625,0.19648809731006622,1.2412444353103638,-1.2913036346435547
1733512584543056100,11.22805615234375,0.17902600765228271,1.0679889917373657,-1.6174359321594238
1733512584553074400,11.238074462890625,0.1500258892774582,0.7125016450881958,-1.8239619731903076
1733512584563092200,11.24809228515625,0.12253008037805557,0.1687408685684204,-1.9906421899795532
1733512584573111300,11.258111328125,0.14023134112358093,-0.5265886783599854,-2.171990394592285
1733512584583129300,11.26812939453125,0.20764420926570892,-1.3249074220657349,-2.4126076698303223
1733512584593148200,11.278148193359375,0.19543015956878662,-2.1173524856567383,-2.6835381984710693
1733512584603166500,11.28816650390625,-0.024437226355075836,-2.712197780609131,-2.8479154109954834
1733512584613185300,11.298185302734375,-0.3218751847743988,-3.0595614910125732,-2.87113618850708
1733512584623203300,11.308203369140625,-0.5640840530395508,-3.2493369579315186,-2.7872836589813232
1733512584633221400,11.318221435546874,-0.617961049079895,-3.4100050926208496,-2.3805289268493652
1733512584643240400,11.328240478515625,-0.3909340500831604,-3.5148508548736572,-0.8474393486976624
1733512584653258200,11.33825830078125,-0.10798155516386032,-2.5511069297790527,1.6273080110549927
1733512584663277800,11.34827783203125,0.12905575335025787,-0.5339699387550354,3.5293567180633545
1733512584673295600,11.358295654296874,0.47340041399002075,1.660194993019104,4.4995927810668945
1733512584683314000,11.36831396484375,0.8143165111541748,3.0783498287200928,4.702030658721924
1733512584693333000,11.3783330078125,1.0771793127059937,3.1169795989990234,4.470237731933594
1733512584703350800,11.388350830078124,1.1667789220809937,2.0012636184692383,4.1668782234191895
1733512584713369900,11.398369873046875,1.1675429344177246,0.5342668294906616,3.959880828857422
1733512584723387600,11.4083876953125,1.1660408973693848,-0.6480919718742371,3.863232135772705
1733512584733406000,11.418406005859374,1.0097534656524658,-1.3609275817871094,3.848851442337036
1733512584743424800,11.4284248046875,0.6562071442604065,-1.6850370168685913,3.8549492359161377
1733512584753442800,11.43844287109375,0.2276250272989273,-1.80392324924469,3.806417226791382
1733512584763462000,11.4484619140625,-0.2651873230934143,-1.8690601587295532,3.621985673904419
1733512584773479700,11.458479736328124,-0.6963497400283813,-1.8274586200714111,3.2107818126678467
1733512584783497700,11.468497802734374,-0.83100426197052,-1.8251138925552368,2.729785680770874
1733512584793516800,11.478516845703124,-0.7810512185096741,-1.72721529006958,2.1553969383239746
1733512584803534800,11.488534912109374,-0.6751357316970825,-1.5859553813934326,1.6129647493362427
1733512584813554000,11.498553955078124,-0.6025339961051941,-1.4297114610671997,1.376924991607666
1733512584823572000,11.508572021484374,-0.5129522085189819,-0.9110936522483826,1.3446311950683594
1733512584833589800,11.51858984375,-0.4653337895870209,0.15340907871723175,1.257761836051941
1733512584843608800,11.52860888671875,-0.5679498910903931,1.2839800119400024,1.242383360862732
1733512584853626600,11.538626708984374,-0.5940002799034119,1.9722741842269897,0.9878154993057251
1733512584863645700,11.548645751953124,-0.6874950528144836,1.06600022315979,1.4588357210159302
1733512584873664000,11.5586640625,-0.6013333797454834,1.0128774642944336,2.155611515045166
1733512584883681800,11.568681884765626,-0.3865896463394165,2.158668279647827,2.5314741134643555
1733512584893700900,11.578700927734374,-0.1953863650560379,3.1953012943267822,2.679489850997925
1733512584903718700,11.58871875,-0.06446617096662521,3.440922737121582,2.614046812057495
1733512584913737700,11.59873779296875,0.05596906319260597,2.979992389678955,2.389126777648926
1733512584923755800,11.608755859375,0.10582982748746872,2.367371082305908,2.087674856185913
1733512584933774600,11.618774658203124,0.06732841581106186,2.0214743614196777,1.7551250457763672
1733512584943793000,11.62879296875,-0.0006027012132108212,1.901105523109436,1.4271129369735718
1733512584953810700,11.638810791015626,-0.09016600996255875,1.9496064186096191,1.1474204063415527
1733512584963829800,11.648829833984376,-0.19125187397003174,2.0841476917266846,0.9404726624488831
1733512584973847800,11.658847900390626,-0.2940865755081177,2.220487594604492,0.7891592979431152
1733512584983866600,11.66886669921875,-0.37785574793815613,2.2542998790740967,0.6372091770172119
1733512584993885000,11.678885009765626,-0.44830289483070374,2.0914766788482666,0.41610288619995117
1733512585003903000,11.688903076171876,-0.5090072154998779,1.7148041725158691,0.15292076766490936
1733512585013921800,11.698921875,-0.5708361268043518,1.2599724531173706,-0.10083582997322083
1733512585023939800,11.70893994140625,-0.6382753252983093,0.8455905914306641,-0.2780662775039673
1733512585033959000,11.718958984375,-0.6839138865470886,0.4246537387371063,-0.3741174638271332
1733512585043976700,11.728976806640626,-0.6983444690704346,-0.0034970687702298164,-0.4092507064342499
1733512585053995000,11.7389951171875,-0.7093111276626587,-0.399932324886322,-0.43848133087158203
1733512585064013800,11.749013916015626,-0.7280203700065613,-0.7020077705383301,-0.48065251111984253
1733512585074031900,11.759031982421876,-0.7350701093673706,-0.8682658672332764,-0.5399098992347717
1733512585084051000,11.769051025390626,-0.7312750816345215,-0.81568443775177,-0.6176247000694275
1733512585094068700,11.77906884765625,-0.6869320273399353,-0.5621424913406372,-0.7204298973083496
1733512585104086800,11.789086669921875,-0.5972442030906677,-0.348834753036499,-0.7683995366096497
1733512585114105600,11.799105712890626,-0.4507662355899811,-0.3227143883705139,-0.6543522477149963
1733512585124124000,11.8091240234375,-0.2707322835922241,0.214264377951622,-0.40277889370918274
1733512585134143000,11.81914306640625,-0.11659278720617294,1.2238024473190308,-0.15711264312267303
1733512585144160800,11.829160888671876,-0.046440597623586655,1.8794071674346924,0.0018607499077916145
1733512585154178800,11.8391787109375,-0.08175031840801239,2.0301146507263184,0.11702463775873184
1733512585164198000,11.849197998046876,-0.15860515832901,2.0372354984283447,0.2751101553440094
1733512585174215700,11.859215576171875,-0.26058486104011536,2.009526252746582,0.47169214487075806
1733512585184234800,11.86923486328125,-0.38728341460227966,1.8725939989089966,0.6342949271202087
1733512585194252800,11.879252685546875,-0.4775870442390442,1.621777057647705,0.8818492293357849
1733512585204270800,11.889270751953125,-0.5515326857566833,1.3814566135406494,0.7811939716339111
1733512585214290000,11.8992900390625,-0.5815313458442688,1.1613528728485107,0.3366486132144928
1733512585224307700,11.9093076171875,-0.5421344041824341,0.605807363986969,-0.12749402225017548
1733512585234326800,11.919326904296875,-0.5356717109680176,-0.6254793405532837,-0.8519132733345032
1733512585244344800,11.9293447265625,-0.5568036437034607,-2.2971785068511963,-1.8946037292480469
1733512585254363000,11.93936279296875,-0.7066314816474915,-3.7220895290374756,-2.4361062049865723
1733512585264382000,11.9493818359375,-1.0261350870132446,-4.756134986877441,-1.4421371221542358
1733512585274399700,11.959399658203125,-0.6581606268882751,-2.5391452312469482,-1.3595516681671143
1733512585284418800,11.969418701171875,0.3279295563697815,0.5316079258918762,-1.7040244340896606
1733512585294436600,11.9794365234375,0.6566762924194336,0.8759399652481079,-0.96540367603302
1733512585304455700,11.98945556640625,0.289591521024704,-0.10174347460269928,-0.17096544802188873
1733512585314474000,11.999473876953125,-0.30628737807273865,-0.996823251247406,0.1941857635974884
1733512585324491800,12.00949169921875,-0.5812842845916748,-1.6483150720596313,0.1477506309747696
1733512585334510800,12.0195107421875,-0.3550810217857361,-2.24839448928833,-0.21803252398967743
1733512585344529000,12.02952880859375,0.11050983518362045,-2.467744827270508,-0.7569209933280945
1733512585354547700,12.039547607421875,0.6194977760314941,-2.2927210330963135,-1.288313388824463
1733512585364565800,12.049565673828125,1.0955924987792969,-1.9882892370224,-1.667864441871643
1733512585374583800,12.059583740234375,1.4065722227096558,-1.534359335899353,-1.892019510269165
1733512585384603000,12.069602783203125,1.5412589311599731,-0.6914209127426147,-2.0291125774383545
1733512585394621000,12.079620849609375,1.472723364830017,0.5822780132293701,-2.0778656005859375
1733512585404639700,12.0896396484375,1.2504022121429443,1.7391695976257324,-1.986924409866333
1733512585414657800,12.09965771484375,1.017006278038025,2.3621461391448975,-1.8048083782196045
1733512585424675600,12.109675537109375,0.8049753904342651,2.5085389614105225,-1.6388933658599854
1733512585434694700,12.119694580078125,0.5789612531661987,2.340228319168091,-1.4411555528640747
1733512585444713000,12.129712890625,0.09182333946228027,2.1331875324249268,-1.4802782535552979
1733512585454731800,12.139731689453125,-0.29700562357902527,1.800301432609558,-1.6481614112854004
1733512585464749800,12.149749755859375,-0.3344408869743347,0.9112618565559387,-2.07253360748291
1733512585474768000,12.159767822265625,-0.13952869176864624,-0.8343321681022644,-2.656954288482666
1733512585484786700,12.16978662109375,-0.20459531247615814,-2.172696590423584,-2.8248586654663086
1733512585494804700,12.1798046875,-0.44112929701805115,-2.5861287117004395,-2.6199686527252197
1733512585504823800,12.18982373046875,-0.6287950277328491,-2.4016380310058594,-2.232952356338501
1733512585514841900,12.199841796875,-0.6940502524375916,-1.9832072257995605,-1.8078688383102417
1733512585524860000,12.20985986328125,-0.655968427658081,-1.5400639772415161,-1.4638563394546509
1733512585534878700,12.219878662109375,-0.6255662441253662,-1.185294270515442,-1.2537436485290527
1733512585544896800,12.229896728515625,-0.6512191295623779,-0.9831129908561707,-1.1791303157806396
1733512585554915800,12.239915771484375,-0.6806837916374207,-0.9409637451171875,-1.198587417602539
1733512585564934000,12.249933837890625,-0.6533243060112,-1.0078189373016357,-1.1985282897949219
1733512585574952000,12.259951904296875,-0.5601491332054138,-1.1224840879440308,-1.1075583696365356
1733512585584970800,12.269970703125,-0.44989877939224243,-1.2205147743225098,-0.9382175207138062
1733512585594988800,12.27998876953125,-0.35463467240333557,-1.2479137182235718,-0.7411559820175171
1733512585605008000,12.2900078125,-0.27291107177734375,-1.164570927619934,-0.5549150109291077
1733512585615025700,12.300025634765625,-0.19003596901893616,-0.9959357380867004,-0.3949489891529083
1733512585625044700,12.310044677734375,-0.09322341531515121,-0.8070704936981201,-0.2605866491794586
1733512585635062800,12.320062744140625,0.004826910328119993,-0.5576725006103516,-0.1611667275428772
1733512585645080800,12.330080810546875,0.09226887673139572,-0.2273520827293396,-0.11831992119550705
1733512585655100000,12.340099853515625,0.18427564203739166,0.15067510306835175,-0.16123566031455994
1733512585665117400,12.350117431640625,0.2698608338832855,0.505889892578125,-0.325748473405838
1733512585675136500,12.360136474609375,0.3103376626968384,0.7767201662063599,-0.5979231595993042
1733512585685154600,12.370154541015625,0.2754949927330017,0.9052442908287048,-0.9394932985305786
1733512585695172600,12.380172607421875,0.20813579857349396,0.8903113603591919,-1.288511037826538
1733512585705191700,12.390191650390625,0.19288787245750427,0.7485401034355164,-1.588343858718872
1733512585715209500,12.40020947265625,0.24844422936439514,0.5055050849914551,-1.8260465860366821
1733512585725228500,12.410228515625,0.35961443185806274,0.1980053335428238,-2.030200242996216
1733512585735246600,12.42024658203125,0.49555426836013794,-0.1511533558368683,-2.2192277908325195
1733512585745264600,12.4302646484375,0.596339762210846,-0.5129563212394714,-2.3499772548675537
1733512585755283700,12.44028369140625,0.567130982875824,-0.8532249331474304,-2.3582451343536377
1733512585765301500,12.450301513671874,0.3529137670993805,-1.1360191106796265,-2.216768264770508
1733512585775320600,12.460320556640625,0.06719318777322769,-1.2896597385406494,-1.9912784099578857
