time,seconds_elapsed,z,y,x
1733511862850709200,0.029709228515625,0.06488192975521087,0.0059440030962228775,-0.029952362932264803
1733511862860728300,0.039728271484375,0.09451602051854133,-0.047230537730455394,-0.09872793912515043
1733511862870747100,0.0497470703125,0.1141150394797325,-0.06507599102258682,-0.13350100021213293
1733511862880766200,0.05976611328125,0.09670154786407947,-0.07204583003520965,-0.16949088974297047
1733511862890785300,0.069785400390625,0.027904490491747855,-0.09055997636914252,-0.1841311172530055
1733511862900804400,0.079804443359375,-0.033509909283369776,-0.10786357786953449,-0.1827545682027936
1733511862910822100,0.089822265625,-0.09841346634849905,-0.07215338206291198,-0.12888225437030196
1733511862920841200,0.09984130859375,-0.11604147749766706,-0.04735387184917927,-0.08550766141563654
1733511862930860300,0.1098603515625,-0.10951105281561613,-0.045987844192981714,-0.0575007334627211
1733511862940879000,0.119879150390625,-0.09978300113603472,-0.020427286478877066,-0.019194822074472904
1733511862950898200,0.129898193359375,-0.07166574467644095,-0.010003507620096205,0.003679419165104627
1733511862960917200,0.139917236328125,-0.04498056684657931,-0.0014607202023267745,-0.011030804841220378
1733511862970936000,0.14993603515625,0.025189678575098514,-0.017720365607738493,-0.07167407411336899
1733511862980955100,0.159955078125,0.1024386302113533,-0.007386603119969367,-0.1233826340407133
1733511862990974200,0.16997412109375,0.1279530106961727,-0.022388941940665243,-0.11950783843398094
1733511863000992000,0.179991943359375,0.13644728279709814,-0.014402034839987754,-0.10016615523472427
1733511863011011000,0.190010986328125,0.08355389699935913,-0.03467734562754631,-0.08441635904759168
1733511863021030100,0.200030029296875,0.06948474737554788,-0.035980829441547395,-0.04710910330787301
1733511863031049200,0.21004931640625,0.07809417028874159,-0.049208559805154796,0.004035831387341022
1733511863041068000,0.220068115234375,0.08625818752199411,-0.039435353809595106,0.026757804674655196
1733511863051087000,0.230087158203125,0.08023848884105682,-0.019023849421739576,0.043639819762110704
1733511863061106200,0.240106201171875,0.08689502412080764,-0.045965632361173625,0.03219078950881958
1733511863071125200,0.250125244140625,0.0750111095815897,-0.030262451794743538,0.01428454594016075
1733511863081143000,0.26014306640625,0.05764028806388378,-0.018730419433116912,0.01604571039378643
1733511863091162000,0.270162109375,0.0372439812451601,0.004067103308439255,0.007689385458827018
1733511863101181200,0.28018115234375,-0.005153729501366615,0.017449147450923918,-0.001872954265028238
1733511863111200000,0.290199951171875,-0.016110007801651952,0.009372808501124381,-0.0016058277614414691
1733511863121219000,0.300218994140625,-0.0015424071364104747,0.025628946775197982,0.014638473944365977
1733511863131238100,0.310238037109375,-0.039567748017609115,-0.0013233575582504273,0.0006076105043292046
1733511863141257200,0.32025732421875,-0.0406599271684885,-0.008021393892168998,0.026502076347917316
1733511863151276000,0.330276123046875,0.0006337678588926791,-0.019219079732894898,0.039193946269154546
1733511863161294300,0.34029443359375,0.04073313853517174,-0.03862696003615856,0.002660159119963646
1733511863171313400,0.3503134765625,0.09718202485740184,-0.06574877571761607,-0.026931407675892114
1733511863181332200,0.360332275390625,0.1305291447944939,-0.049335401055216783,-0.03435615084916353
1733511863191351300,0.370351318359375,0.12829495600163937,0.004883680388331413,-0.00033858430460095406
1733511863201370000,0.3803701171875,0.09712254975512623,0.043024318212270735,0.021442162609845397
1733511863211389200,0.39038916015625,0.06500643291771412,0.02562427060008049,0.06289996215775609
1733511863221408300,0.400408203125,0.06339461380690335,-0.006399345648288726,0.06859042888432741
1733511863231427000,0.410427001953125,0.09388181426823139,-0.05629588771760463,0.08278320488780737
1733511863241445000,0.420445068359375,0.08959113133698701,-0.0675999565422535,0.03879968625456094
1733511863251464200,0.430464111328125,0.11336305206865072,-0.06784545573592185,0.00991495255380869
1733511863261483300,0.440483154296875,0.1238882454752922,-0.03086392481923103,-0.02612418294623494
1733511863271502300,0.45050244140625,0.11305354772806167,-0.006416881304979324,-0.04636193820238113
1733511863281521200,0.460521240234375,0.09289704101458192,0.022320552879571912,0.002093172886967659
1733511863291540200,0.470540283203125,0.05312909424975514,0.025241993284225463,0.03170870508030057
1733511863301559300,0.480559326171875,0.01734364124983549,0.010254852032661438,0.060831339190155265
1733511863311578400,0.490578369140625,0.011998188568651676,0.004003390422463417,0.06194631469473243
1733511863321597200,0.50059716796875,-0.0010977321088314056,-0.03257891204357147,0.06574483019486069
1733511863331615200,0.510615234375,-0.0036667058140039442,-0.07994272076487541,0.019109189617633818
1733511863341634300,0.52063427734375,0.01664776794016361,-0.1029138465076685,-0.029791765543073414
1733511863351653000,0.530653076171875,0.009344751450419426,-0.0838034878462553,-0.05314034629613161
1733511863361672200,0.540672119140625,0.0087228201597929,-0.012930793243646621,-0.0354293330386281
1733511863371691300,0.550691162109375,-0.07246025605499744,0.01423486157953739,-0.0010036240845918655
1733511863381710300,0.56071044921875,-0.12186404617130756,0.02265606844425201,0.04359568835943937
1733511863391729200,0.570729248046875,-0.14444909520596266,0.00455225647687912,0.04286284404024482
1733511863401748200,0.580748291015625,-0.15970876978859305,-0.009537059152126312,0.03053264703825116
1733511863411766300,0.590766357421875,-0.16905410576090216,-0.04368190533816814,0.03763327282369137
1733511863421785000,0.60078515625,-0.15159487530738114,-0.09617197103202342,0.026127397816628217
1733511863431804200,0.61080419921875,-0.13094751633703708,-0.1284510233461857,-0.013463000424206256
1733511863441823200,0.6208232421875,-0.09047039838954805,-0.11366378858089446,-0.011082827289402485
1733511863451842000,0.630842041015625,-0.08597498666644096,-0.07920096248686313,-0.03008957944586873
1733511863461861000,0.640861083984375,-0.06585983487665653,-0.032467268362641334,-0.06272606689557433
1733511863471880200,0.650880126953125,-0.059164428891241544,-0.0035778584867715833,-0.07468582314997911
1733511863481899300,0.660899169921875,-0.0737602327376604,0.0013005612045526504,-0.0801930422641337
1733511863491917000,0.6709169921875,-0.08175225440487265,0.031087212181091308,-0.051760728505998846
1733511863501936000,0.68093603515625,-0.08821019837260245,0.015767477974295615,-0.020715455770492552
1733511863511955200,0.690955078125,-0.03164630736857652,-0.014869067829847335,-0.007197218027710914
1733511863521974000,0.70097412109375,0.04078691454902291,-0.02566635617613792,-0.032480273974686856
1733511863531993000,0.7109931640625,0.08407529052495956,-0.03271978181898594,-0.07161167640164494
1733511863542012200,0.72101220703125,0.13274492114782332,-0.06036942076683044,-0.10760185819342732
1733511863552031200,0.73103125,0.17408143240362406,-0.04285480686426162,-0.09981675727516412
1733511863562050000,0.741050048828125,0.2049792594924569,-0.041405777099728584,-0.07206044308245181
1733511863572069000,0.751069091796875,0.1954199885085225,-0.01397474933862686,-0.025683453441411257
1733511863582087200,0.761087158203125,0.16150632072985172,0.029629999110102653,0.04087678478956222
1733511863592106000,0.77110595703125,0.12593114947974682,0.005673369461297989,0.07520254050046205
1733511863602125000,0.781125,0.10531813117042184,-0.02317687744796276,0.05812617188468575
1733511863612144000,0.79114404296875,0.09329349298626184,-0.05675298383533954,0.05629822580516338
1733511863622163000,0.801162841796875,0.07315700614750385,-0.03218202168047428,0.04797141922563314
1733511863632182000,0.81118212890625,0.07744768907874822,-0.007356207981705666,0.04956584881022572
1733511863642201000,0.821201171875,0.10631693294942378,0.010629530563950537,0.07541662164255976
1733511863652220200,0.83122021484375,0.1292389588534832,-0.013214870882034302,0.06434621544331312
1733511863662238200,0.84123828125,0.13331892164349554,-0.031468904975056645,0.045130935102701185
1733511863672257300,0.85125732421875,0.11922156883850693,-0.018129530930519104,0.014245382973551749
1733511863682276400,0.8612763671875,0.08942015868425368,-0.00802782363295555,-0.01147927926108241
1733511863692295400,0.87129541015625,0.05970365033447742,0.01934709002673626,-0.00046250294521450996
1733511863702314500,0.881314453125,0.022770634734630583,0.027080899149179456,-0.015816870073974133
1733511863712333300,0.891333251953125,0.0201567989744246,0.009875497326254845,-0.019158873978257177
1733511863722352400,0.901352294921875,0.01798120850101113,-0.05567220286130905,-0.00906111220344901
1733511863732371500,0.911371337890625,-0.0009819967746734618,-0.0699959117680788,-0.021673925539106128
1733511863742389200,0.92138916015625,-0.018033669340610504,-0.03178337775170803,-0.05047375743538141
1733511863752408300,0.931408203125,0.006127689100056886,0.01362929690182209,-0.06098521457761526
1733511863762427400,0.941427490234375,0.001835398733615875,0.04440671248137951,-0.0764659845650196
1733511863772446500,0.951446533203125,-0.0019300912797451017,0.04098550586104393,-0.07723521537184715
1733511863782465300,0.96146533203125,0.03531330544352531,-0.018439327532052994,-0.07163418049439788
1733511863792484400,0.971484375,0.024491467177867886,-0.05210661933422088,-0.06468041583374143
1733511863802503400,0.98150341796875,0.02847498385608196,-0.08550912272036075,-0.045063276693969964
1733511863812522500,0.9915224609375,0.036033728672564026,-0.06907119813859462,-0.035401422118395566
1733511863822540300,1.001540283203125,0.02786708109080791,-0.060765726608037945,-0.026582886499166486
1733511863832559400,1.011559326171875,0.06655395462065934,-0.02726151641309261,0.002586217100918293
1733511863842578400,1.021578369140625,0.08189341644123196,0.01154313827753067,0.01718742777481675
1733511863852597200,1.03159716796875,0.09422259052991866,0.04876958386600017,0.04400310011655092
1733511863862616300,1.0416162109375,0.12544774987697602,0.05516308429539203,0.059843643327057355
1733511863872635400,1.051635498046875,0.15618424892425536,0.007298340314626693,0.0668291183002293
1733511863882654200,1.061654296875,0.18482129147425294,0.011727262672781943,0.09598404724448918
1733511863892673300,1.07167333984375,0.21368074460327624,0.0013438158243894577,0.10172478285357356
1733511863902691300,1.08169140625,0.2318047225758433,0.005148468804359436,0.13046265542954205
1733511863912710100,1.091710205078125,0.24484394463002682,0.020129764837026595,0.1840790948048234
1733511863922729200,1.101729248046875,0.26428222007155416,-0.0023135376393795012,0.20585998784974216
1733511863932748300,1.111748291015625,0.3294716083407402,-0.0032569559693336487,0.2480472707159817
1733511863942767400,1.121767333984375,0.3997925142794847,0.041483518511056895,0.353789764778316
1733511863952786200,1.1317861328125,0.45393210074603557,0.14296996256411074,0.442296461879462
1733511863962805200,1.14180517578125,0.4400362618625164,0.2957026097297668,0.5490666915543377
1733511863972824300,1.15182421875,0.3801110777318477,0.43591129088699815,0.6609107173621654
1733511863982842000,1.161842041015625,0.21379355732798574,0.5740069254130125,0.7518319282591343
1733511863992861200,1.171861083984375,0.07282090606093407,0.5342606059581041,0.6571557487428188
1733511864002880300,1.18188037109375,0.05679989171698689,0.32199148171842096,0.48244200978502627
1733511864012899300,1.1918994140625,0.04166355125308036,0.0962035352140665,0.485336123791337
1733511864022918100,1.201918212890625,-0.03571121871992945,-0.0789016872793436,0.615890256896615
1733511864032937200,1.211937255859375,-0.1341954122170806,-0.1603127270311117,0.7048842991232872
1733511864042956300,1.221956298828125,-0.19822130966484547,-0.17129589333832262,0.647771395934373
1733511864052975400,1.231975341796875,-0.21817337984740734,-0.04541384369730949,0.5083360372371971
1733511864062993400,1.241993408203125,-0.294435950794816,0.16379764653742312,0.4274504826642573
1733511864073012200,1.25201220703125,-0.4535515769958496,0.35844402032494543,0.36401495232507586
1733511864083031300,1.26203125,-0.5848579897731542,0.41417876702845097,0.24814517813250422
1733511864093050400,1.27205029296875,-0.5412041414856911,0.2927636336684227,0.10874474461823701
1733511864103069200,1.282069091796875,-0.28520401206910606,0.056201779693365095,0.08261427806168795
1733511864113088300,1.292088134765625,-0.07993512198030948,-0.18997078319191932,0.21285335386842488
1733511864123107000,1.302107177734375,0.09904168124943971,-0.43022447742223735,0.4373192579887807
1733511864133125400,1.31212548828125,0.2354825343057513,-0.5829021795302629,0.7318800042070448
1733511864143144400,1.32214453125,0.3074488693639636,-0.6879816796392202,0.8762642174832522
1733511864153163300,1.332163330078125,0.3679483462512493,-0.5955465570479631,1.0983623695589602
1733511864163182300,1.342182373046875,0.28702903553918,-0.3538414949655533,1.2595077480219303
1733511864173201400,1.352201416015625,0.13964929370880125,-0.20912205838561057,1.2232491245523094
1733511864183220500,1.362220458984375,0.10974544609338044,-0.2193991222500801,1.130046963111311
1733511864193239300,1.3722392578125,0.1639636507540941,-0.34358488936722276,1.0292807961568236
1733511864203258400,1.38225830078125,0.2702563260450959,-0.44250411328077316,0.952739992789924
1733511864213276400,1.3922763671875,0.29553105255514384,-0.4201023118585348,0.8429286418534815
1733511864223295200,1.402295166015625,0.2760112363100052,-0.34270869105458257,0.7306941554233432
1733511864233314300,1.412314208984375,0.2811919999487698,-0.23853636891841887,0.7546282809793948
1733511864243333400,1.42233349609375,0.24205942847803233,-0.13002163366377353,0.8952965424723923
1733511864253352400,1.4323525390625,0.06212006382644176,-0.008980009791254996,1.0255999156869948
1733511864263371300,1.442371337890625,-0.3459475268453359,0.0644236645936966,1.0431151141114532
1733511864273390300,1.452390380859375,-0.7800093904733657,0.21576398061811922,0.9441000286079942
1733511864283408400,1.462408447265625,-0.8321618947759271,0.4129121080935001,0.7581523634523153
1733511864293427200,1.47242724609375,-0.5229506919145583,0.5375894581198692,0.5486579646229743
1733511864303446300,1.4824462890625,-0.16311726305782795,0.5746142436563968,0.509582968558371
1733511864313465300,1.49246533203125,0.016440262669324874,0.5241343487411737,0.7047609650045633
1733511864323484200,1.502484130859375,0.07093523844480513,0.34437282487452026,0.9467536118566989
1733511864333503200,1.512503173828125,0.019271394442021847,0.029472178199887275,1.1829901794001458
1733511864343522300,1.522522216796875,-0.003808160111308098,-0.3238222042769193,1.2640797321125865
1733511864353541400,1.532541259765625,-0.009865852715075016,-0.5492120913743972,1.1740700831025839
1733511864363559200,1.54255908203125,0.09768822081387042,-0.6625462096095085,0.976850936217606
1733511864373578200,1.552578125,0.38392449854016303,-0.6632149026513099,0.8580307877868414
1733511864383597300,1.562597412109375,0.7022247245252132,-0.7506675606548786,0.7686071219712496
1733511864393616100,1.5726162109375,0.9469618477798998,-0.8339864798545837,0.8031400906920433
1733511864403635200,1.58263525390625,1.0541919500514865,-0.8849263934969902,0.8766557010188698
1733511864413654300,1.592654296875,1.0699477375879882,-0.97082889944911,0.7580974183946847
1733511864423673300,1.60267333984375,1.0298282009065152,-0.9662444942682981,0.5518439011827111
1733511864433692200,1.612692138671875,0.9757195941001177,-0.8320324231773615,0.16561521735340357
1733511864443710200,1.622710205078125,1.006650154414773,-0.6421294445246458,-0.28168460577130316
1733511864453729300,1.632729248046875,1.0591194695815442,-0.5348562337636947,-0.7771203910335898
1733511864463748000,1.642748046875,1.2393091557323932,-0.451920760923624,-1.114102521134913
1733511864473767200,1.65276708984375,1.2842742327488958,-0.40236674868166444,-1.2959399744927882
1733511864483786200,1.6627861328125,1.1674410203516483,-0.39989246752262114,-1.31862439224869
1733511864493805300,1.672805419921875,0.9381769221693277,-0.4155623303413391,-1.3534785557478666
1733511864503824100,1.68282421875,0.6572624239876866,-0.4208206892609596,-1.4529463534548879
1733511864513842400,1.692842529296875,0.4332356419369578,-0.3584054418802261,-1.5755165020689368
1733511864523861500,1.702861572265625,0.25360095932036636,-0.19264555535912511,-1.7912854511231182
1733511864533880300,1.71288037109375,0.0762964732170105,-0.07734042931199073,-2.0441557580813763
1733511864543899400,1.7228994140625,-0.0316191271007061,-0.04142097466886043,-2.268240700060129
1733511864553918500,1.73291845703125,-0.08613017722815275,-0.07323357851505279,-2.3596289439469573
1733511864563937300,1.742937255859375,-0.22517829017341134,-0.09511457093358039,-2.3920988426581022
1733511864573956400,1.752956298828125,-0.3786374980479479,-0.11803367422819137,-2.369416762989759
1733511864583975400,1.762975341796875,-0.5347928131386638,0.02672083366513252,-2.2821827161729336
1733511864593993200,1.7729931640625,-0.8502885030969977,0.0699345369696617,-2.241246894672513
1733511864604012300,1.78301220703125,-1.1981371873885391,0.01812836188673973,-2.116028277376294
1733511864614031400,1.79303125,-1.4955454319924115,0.03723462889492511,-1.8184578279480337
1733511864624050400,1.803050537109375,-1.2407616926282643,0.08429390171170234,-1.3472311857908963
1733511864634069200,1.8130693359375,-0.4996075179889798,-0.10981880359053611,-0.6724594085976481
1733511864644088300,1.82308837890625,0.010691489884257315,-0.39396249295175073,0.13935834793820975
1733511864654107400,1.833107421875,-0.012035305708646773,-0.4429810831427574,0.9095664753653109
1733511864664125200,1.843125244140625,-0.33481063128113747,-0.08070493730902671,1.7946042202822863
1733511864674144000,1.85314404296875,-0.9916191740214824,0.42431554563939566,2.1543967326067386
1733511864684163000,1.8631630859375,-1.9062214515969156,0.9821265385329723,2.031107622068375
1733511864694182100,1.87318212890625,-2.923336885924637,1.5503642328947782,1.7433549484297632
1733511864704201000,1.883200927734375,-3.8055475907221434,1.8807032717198133,1.3754226765304802
1733511864714220000,1.893219970703125,-4.643671608772873,2.0141887821018694,1.140691837374866
1733511864724239000,1.903239013671875,-3.7338030817210672,1.6249135701835153,1.1074595759890973
1733511864734258200,1.913258056640625,-0.7139809210315347,0.505567595437169,1.0763700257204472
1733511864744276000,1.92327587890625,0.8712509193658828,-0.36231998497545714,1.2869804229676722
1733511864754295000,1.933294921875,0.8772419764742254,-0.6178139184355735,1.5990589979588985
1733511864764314000,1.943314208984375,0.9429001512989401,-0.8174784126460551,1.5444985557317732
1733511864774333000,1.9533330078125,1.2698553929045795,-1.016814405554533,1.191482990196347
1733511864784352000,1.96335205078125,1.196231646028161,-1.0617845971375703,0.8914306608244776
1733511864794371000,1.97337109375,0.6823324217058718,-0.8566577458679675,0.7291649000294506
1733511864804390100,1.98339013671875,0.20929390782117843,-0.6901075857520103,0.8181760395213961
1733511864814408000,1.993407958984375,-0.21536504442840812,-0.6700204910129308,1.2708609166853129
1733511864824427000,2.003427001953125,-0.7203966332927346,-0.7396475694686174,1.5790413151942193
1733511864834446000,2.013446044921875,-0.8076549377679825,-0.6635246992528439,1.2211340320944786
1733511864844465000,2.02346484375,-0.27657047762796283,-0.41062721202671526,0.5898347552724182
1733511864854484000,2.03348388671875,0.3720278706498444,-0.06851356425583362,0.009461217436939477
1733511864864503000,2.0435029296875,0.9016725072450935,0.11929214985668658,-0.5811503674268722
1733511864874521900,2.05352197265625,1.4048276347130537,0.04152794217467308,-1.0687265252299607
1733511864884541000,2.063541015625,1.5261340470016003,-0.0013853168785572052,-1.0581646530747413
1733511864894559200,2.073559326171875,0.835610281664133,0.12512743188142775,-0.4839416006930172
1733511864904578000,2.083578125,-0.12206862883269787,0.31870062347948547,0.3101107820495963
1733511864914597000,2.09359716796875,-0.45501098202392454,0.34020869093239303,0.9159643597088754
1733511864924616200,2.1036162109375,0.004672375725209713,0.04678922370374203,1.087611331507191
1733511864934635300,2.11363525390625,0.7124401213303208,-0.33844752647876736,0.819443063782528
1733511864944654000,2.123654052734375,1.4224828261300921,-0.5579916101574898,0.3605402619518339
1733511864954673200,2.133673095703125,2.0429285543739795,-0.5341939704626798,-0.059862274962291115
1733511864964691200,2.143691162109375,2.270023491823673,-0.3130494658499956,-0.6064849343653768
1733511864974710000,2.1537099609375,1.9674393058866262,0.02588029118776321,-1.208461451395601
1733511864984729000,2.16372900390625,1.4220400507986544,0.4533317967653274,-1.7784215856358407
1733511864994748200,2.173748046875,1.0463099646300076,0.7676070050179958,-2.074878520864248
1733511865004767200,2.183767333984375,1.0720021858997641,0.8925666791170835,-2.0740818175286053
1733511865014786000,2.1937861328125,1.3341437406808137,0.785144999796152,-1.744949378014356
1733511865024805000,2.20380517578125,1.4160434407323599,0.5231073437809944,-1.3478931568309664
1733511865034823200,2.2138232421875,1.1682060133747756,0.26991175039112564,-1.05853991612792
1733511865044842000,2.223842041015625,0.7839977294571697,0.1876934859097004,-0.8455872666034847
1733511865054861000,2.233861083984375,0.4769670855052769,0.2459463529139757,-0.6982951299913227
1733511865064880000,2.243880126953125,0.4546177449226379,0.28029169010818,-0.565185832510516
1733511865074899200,2.253899169921875,0.6758971279613674,0.13869067780971525,-0.5810322940051555
1733511865084918000,2.26391796875,0.8343396041411906,-0.027922610670328137,-0.5350828090611844
1733511865094937000,2.27393701171875,0.6906414003677666,-0.09060147742331028,-0.563719486285001
1733511865104956200,2.2839560546875,0.2804758145034313,-0.05699789850711822,-0.8187403223406523
1733511865114974000,2.293973876953125,-0.03367605963051319,0.07357493929862975,-0.8965661240167915
1733511865124993000,2.303992919921875,-0.0945056452549994,0.2733966698974371,-0.9028047261454164
1733511865135012000,2.31401220703125,0.03653612523674965,0.3967342957526445,-0.776666436721012
1733511865145031000,2.324031005859375,0.2596170047394931,0.41202246577739715,-0.5111580358553678
1733511865155050000,2.334050048828125,0.47025487451553344,0.3524854041814804,-0.2489950729601085
1733511865165069000,2.344069091796875,0.6211567991226912,0.19029343927502632,-0.002005567668750882
1733511865175088000,2.354088134765625,0.5336521917361766,-0.05804711529910564,0.1664842552728951
1733511865185106000,2.36410595703125,-0.009011062516644597,-0.36000761637985706,0.4755750466249883
1733511865195125000,2.374125,-0.9287596900045871,-0.42604631495475764,0.6428006948497146
1733511865205144000,2.38414404296875,-1.9963029967993497,-0.33434827446639537,0.6533316604100168
1733511865215163000,2.394162841796875,-2.796242830145359,-0.13269465226531027,0.6659144439335912
1733511865225182000,2.404181884765625,-3.2187118711352345,0.0572691166639328,0.8833797485768794
1733511865235201000,2.414200927734375,-3.7503690165966748,-0.04868482819199562,1.257111354404688
1733511865245220000,2.42422021484375,-4.196344605380297,-0.26021745485067366,1.4601343652628362
1733511865255239000,2.434239013671875,-4.190241027808189,-0.26125030502974983,1.2219243056893347
1733511865265257200,2.44425732421875,-3.8169302777409553,0.023458032476902008,0.6722931851852685
1733511865275276300,2.4542763671875,-3.0514117694348095,0.354850964269042,-0.1584879958219826
1733511865285295000,2.464295166015625,-2.0647300518155096,0.3223462865054607,-1.114503210890293
1733511865295314200,2.474314208984375,-0.8498066378641873,0.025890228059887884,-1.6496102045446632
1733511865305333200,2.484333251953125,0.137407579196617,-0.3905483005940914,-1.7901809970125555
1733511865315352300,2.494352294921875,0.4473422740269452,-0.7600280941963196,-1.6945574536435306
1733511865325371100,2.50437109375,0.37645620848610994,-0.8114186742156744,-1.5949087464116514
1733511865335389200,2.51438916015625,0.2533453040588647,-0.49537996342182156,-1.6915104871630668
1733511865345408300,2.524408203125,0.20004326439499853,0.06646598407626152,-1.8127219146445392
1733511865355427000,2.534427001953125,-0.018974165061116217,0.7613269018352031,-1.6245757165312766
1733511865365446100,2.544446044921875,-0.7470300078701227,1.266691668176651,-1.2743646870225667
1733511865375465200,2.55446533203125,-1.9868442635804413,1.146010694310069,-0.5152455243647098
1733511865385484000,2.564484130859375,-2.983037905910611,0.4068704898416996,0.7237791884031146
1733511865395503000,2.574503173828125,-3.1808938893944023,-0.5498305155336857,1.6764532032847403
1733511865405521200,2.584521240234375,-2.42551508230865,-1.4242717553734778,2.0599198750548062
1733511865415540000,2.5945400390625,-1.199223302124813,-1.8822230286329984,2.2005624175846576
1733511865425559000,2.60455908203125,-0.053114262006804344,-1.9258523270010948,2.192886329998821
1733511865435578000,2.614578125,0.7640636333227158,-1.8031430621773004,2.141500572285056
1733511865445597200,2.62459716796875,1.3678314907491207,-1.362716924214363,2.124258637844026
1733511865455616000,2.634615966796875,1.820354309219122,-0.5644453163415193,2.2948544200889764
1733511865465635000,2.644635009765625,1.9894564919054507,0.29696225440204144,2.6007684811010954
1733511865475654100,2.654654052734375,1.894312694877386,0.977266823542118,2.931535974471271
1733511865485672000,2.664671875,1.6328958011090755,1.427921510052681,3.333151904785633
1733511865495691000,2.67469091796875,1.4212047690182923,1.6278467010259627,3.7268063547015187
1733511865505710000,2.6847099609375,1.427565974613279,1.5419231522858141,4.069557715854049
1733511865515729200,2.694729248046875,1.6530512849092482,1.3014052541613579,4.487834565851092
1733511865525748000,2.704748046875,1.9565080158971249,0.8916776213228702,4.7304947367012495
1733511865535767000,2.71476708984375,2.140198257514834,0.43827685097455976,4.446294933238625
1733511865545786000,2.7247861328125,1.9720617049902676,0.18922317969501018,3.743168291437626
1733511865555804000,2.734803955078125,1.538512467059493,0.2699497443139553,2.562148827588558
1733511865565823000,2.744822998046875,0.8418559711206703,0.6288824249386787,1.2004457565918565
1733511865575842000,2.754842041015625,-0.15001293987818062,1.0978268013775347,-0.36708997585624453
1733511865585861000,2.764861083984375,-1.4376000235021114,1.5761656136274338,-2.201683384438604
1733511865595880000,2.7748798828125,-2.5291741942256687,1.9717723666548728,-3.7157796415135262
1733511865605899000,2.78489892578125,-2.830318118226528,2.09622935192883,-3.909368030680716
1733511865615918000,2.79491796875,-2.214796256250888,1.971234606516361,-2.878513993857801
1733511865625936100,2.80493603515625,-1.0392752436876296,1.4144997184216976,-1.6957064775481818
1733511865635955200,2.814955078125,0.015943272932618855,0.6221563315540551,-0.7266917879141866
1733511865645974300,2.824974365234375,0.5124025560237467,-0.11153262177109717,0.07106281034722924
1733511865655993000,2.8349931640625,0.4216350743837654,-0.648054158398509,0.6218044493764638
1733511865666012200,2.84501220703125,-0.005563917737454176,-0.8631096984863281,0.8343211186364292
1733511865676031000,2.855031005859375,-0.3646262160912156,-0.769503194028139,0.9544355446614324
1733511865686050000,2.865050048828125,-0.3721795540802181,-0.5253454780966044,1.0227056555502116
1733511865696069000,2.875069091796875,0.07315072253718972,-0.3210340348631143,0.9078047263897955
1733511865706087000,2.8850869140625,0.6119600778408348,-0.20081074163615703,0.6764204211831092
1733511865716106000,2.89510595703125,0.9275627353049815,-0.21121873840391633,0.309896847037971
1733511865726125000,2.905125,0.7879334614709019,-0.35330256578326225,-0.24418401941657064
1733511865736144000,2.915143798828125,0.451330539945513,-0.561618568482995,-0.8833968458421528
1733511865746163000,2.925162841796875,0.08109788214936851,-0.6542997747898102,-1.4167384372591971
1733511865756182000,2.93518212890625,-0.14030863440036773,-0.5009148011952639,-1.8033838851958512
1733511865766201000,2.945201171875,-0.2549284085318446,-0.2601613407492637,-2.2234825437925756
1733511865776219000,2.955218994140625,-0.2853945662051439,0.06021218437850475,-2.690074950277805
1733511865786238000,2.965238037109375,-0.4648234971165657,0.14976736761927603,-2.997790361623466
1733511865796257000,2.975257080078125,-0.3741834412485361,0.10638239940106868,-2.9570243437319994
1733511865806275800,2.98527587890625,-0.34322979231923817,-0.11349836888611316,-2.625144797466695
1733511865816295000,2.995294921875,-0.3462086619995534,-0.586328062325716,-2.201449429552257
1733511865826314000,3.00531396484375,-0.00801890967413783,-1.148138938510418,-1.7645751388520001
1733511865836333000,3.0153330078125,0.587512303674221,-1.5667536421597004,-1.2804204799301921
1733511865846350800,3.025350830078125,1.0283657271385191,-1.8510393703401087,-0.9807822843171655
1733511865856370000,3.035369873046875,1.275089494165778,-1.9403543150842189,-0.9162816089645027
1733511865866389000,3.045388916015625,1.3035481114089489,-1.8608184215545653,-0.9962563323028385
1733511865876407800,3.05540771484375,1.2327759545713661,-1.7878443707585334,-1.041988009777665
1733511865886427000,3.065427001953125,1.0872975163176655,-1.80689218557775,-1.0656595388747752
1733511865896446000,3.075446044921875,0.7775450461864472,-1.9141753332108258,-1.0721832415550947
1733511865906464800,3.08546484375,0.345949280411005,-1.9629121838510035,-1.149468725809455
1733511865916482800,3.09548291015625,-0.023823358657956123,-2.008738115480542,-1.2984127943471073
1733511865926502000,3.105501953125,-0.3631181496158242,-1.9897189422339199,-1.4550705060020088
1733511865936520700,3.115520751953125,-0.765592450325191,-1.8337141415297984,-1.3187694998078048
1733511865946539800,3.125539794921875,-1.1741919559165834,-1.7038801393926142,-1.2100190561011432
1733511865956558800,3.135558837890625,-1.3467261588782071,-1.7233686837166546,-1.2542762771092355
1733511865966578000,3.145577880859375,-1.1554276342138647,-1.7412205667495726,-0.9043414341934025
1733511865976596700,3.1555966796875,-0.7671309119388461,-1.69208273409307,-0.646218029012531
1733511865986615000,3.165614990234375,-0.19505290876179932,-1.338781337353587,-0.38106004901975393
1733511865996634000,3.175634033203125,0.14644114580601453,-0.7338286540567874,-0.7717069876827299
1733511866006653000,3.18565283203125,-0.24441227521449327,-0.13648527671992777,-1.0903022510915994
1733511866016672000,3.195672119140625,0.08716185836344957,-0.003663198682665825,-1.4582488437771797
1733511866026691000,3.205691162109375,1.3493880715638398,-0.052121232381463045,-1.206535597899556
1733511866036710100,3.215710205078125,1.3965280084013938,0.6512386336535215,0.10721753505095839
1733511866046729000,3.22572900390625,-0.6879317030176519,2.3425246644109485,1.6404392022259533
1733511866056747000,3.2357470703125,-3.911333193273842,4.9244806007534265,3.720736679399013
1733511866066766000,3.24576611328125,-5.5961435982763765,7.068762912711501,6.259691093882918
1733511866076785000,3.255784912109375,-3.6371170236870642,7.1716060320705175,8.645464532911777
1733511866086804000,3.265803955078125,-1.764144638480246,5.622288093358278,9.269667275601625
1733511866096823000,3.275822998046875,-0.8136091699972748,4.152514816004038,9.087109399014711
1733511866106842000,3.285842041015625,1.1744549907669424,2.6318536474555727,8.181116252091526
1733511866116861000,3.29586083984375,3.649736559024453,0.8252128062903881,6.274876972576975
1733511866126879000,3.30587890625,6.360912164998054,-1.352084471040964,3.5156226876109837
1733511866136898000,3.31589794921875,8.539177995100617,-3.5011031638711687,0.29153453026488424
1733511866146916900,3.325916748046875,9.237782775563002,-5.045376678675413,-2.0566485982991756
1733511866156936000,3.33593603515625,8.441863868296146,-5.4716433583825825,-3.2364111939549445
1733511866166955000,3.345955078125,6.292426073271036,-4.177914630198479,-3.0961013905107975
1733511866176973800,3.355973876953125,3.3849604179561137,-1.4264602053284645,-2.4170389303863047
1733511866186993000,3.365992919921875,1.6022157084241508,1.450799112293124,-2.0245522090755403
1733511866197011000,3.376010986328125,1.037328347403556,3.6459973724961277,-2.064112796700001
1733511866207029800,3.38602978515625,0.5389470102086663,4.651015541794896,-2.7977409597486256
1733511866217048800,3.396048828125,0.16950842539966104,4.133237284082174,-4.164174858659505
1733511866227068000,3.40606787109375,0.2573353235431015,2.3514988289833068,-5.741171662414073
1733511866237087000,3.4160869140625,0.3871289936698973,0.7271656890362501,-6.293416837874054
1733511866247105800,3.426105712890625,0.08643807413354515,-0.14547814599275588,-4.934639006674289
1733511866257124900,3.436124755859375,-0.47890287587344643,-0.7793670009166002,-3.188326669743657
1733511866267143000,3.446142822265625,-0.49605552459582686,-1.1593740337520837,-1.9775572336666285
1733511866277161700,3.45616162109375,-0.13558905853256584,-1.045332059508562,-1.0622878704845904
1733511866287180800,3.466180908203125,0.06803440243676305,-0.6034300037741661,-0.6545989038668573
1733511866297199900,3.476199951171875,-0.008653846576809883,-0.17756722869277,-0.4661975619487464
1733511866307219000,3.486218994140625,-0.1298169048719108,0.013573767322301864,-0.28407237769067284
1733511866317237800,3.49623779296875,-0.22622677631303667,0.13469663973748683,-0.24933760278746483
1733511866327256800,3.5062568359375,-0.4272176968216896,0.1968728176653385,-0.1774935789346695
1733511866337276000,3.51627587890625,-0.5808376482158899,0.28182372198104855,0.07535992301926016
1733511866347294000,3.5262939453125,-0.6783214324988425,0.08717676367163657,0.48488005058690903
1733511866357313000,3.53631298828125,-0.6046959320567548,-0.19105857842862606,0.9322627296894788
1733511866367332000,3.54633203125,-0.5922754994880408,-0.27388942185044285,1.2892797859512268
1733511866377351000,3.556350830078125,-0.8133014192223549,-0.46854105633497234,1.30954209112674
1733511866387370000,3.566369873046875,-1.0632236169647424,-0.5877385136455298,1.2355706998564302
1733511866397389000,3.57638916015625,-1.4098334801763295,-0.48064065945148465,1.2634898033954203
1733511866407407900,3.586407958984375,-1.6040560755938291,-0.36896073816418645,1.2978808794274925
1733511866417426000,3.596426025390625,-1.5469038633078336,-0.3086719814181328,1.189669657164067
1733511866427445000,3.606445068359375,-1.3665209926724433,-0.4390934280544519,0.8798582964524626
1733511866437464000,3.616464111328125,-1.071294110695645,-0.4560124141514301,0.5188078930214047
1733511866447483000,3.62648291015625,-0.8216881392955779,-0.4656622860282659,0.08101488004103302
1733511866457502000,3.636501953125,-0.744884812534973,-0.5129629663854837,-0.40543198147118087
1733511866467521000,3.64652099609375,-0.8676151932120323,-0.40812779642641545,-0.7625396386258304
1733511866477540000,3.6565400390625,-1.0724445228397845,-0.2975666500359773,-1.0194526451036334
1733511866487558000,3.666557861328125,-1.5163549957871436,-0.07950432934761047,-1.0694057396657763
1733511866497577000,3.676576904296875,-2.150345557519793,0.3998644104719162,-0.9380809144489467
1733511866507596000,3.686595947265625,-2.9556401958972214,0.8688836057126521,-0.6718688953585922
1733511866517614800,3.69661474609375,-3.8465626149386165,1.1308674857139587,-0.1655230090253055
1733511866527634000,3.706634033203125,-4.679695108312368,1.0006944608807564,0.6674784053146838
1733511866537653000,3.716653076171875,-5.291704139861464,0.6032786126047373,1.4832770481802522
1733511866547672000,3.726672119140625,-5.947457036069035,0.273669057098031,1.956281075273454
1733511866557689900,3.73668994140625,-7.222021629577875,0.13807225365042686,2.0591516671612857
1733511866567709000,3.746708984375,-8.58660200957656,0.1166506954371929,2.1855011881835757
1733511866577728000,3.75672802734375,-7.793738398227095,0.07175123100280761,2.129765710827708
1733511866587746800,3.766746826171875,-4.961183899250626,0.16910452077388763,1.0848286419861017
1733511866597766000,3.776765869140625,-1.921387164285779,0.36358898199796674,-0.20354177403524518
1733511866607785000,3.786784912109375,0.5183861604779958,0.4543517874628305,-1.1262355881296098
1733511866617803800,3.7968037109375,2.1302333283394574,0.5984089607417583,-1.5051808369524775
1733511866627821800,3.80682177734375,2.9207956770092247,0.5303840567857027,-1.2570208996422587
1733511866637841000,3.8168408203125,3.3265766180485485,-0.2784463545024395,-1.2894959129199386
1733511866647859700,3.826859619140625,3.6626246821701525,-1.1984475685119629,-1.9183055648833511
1733511866657878800,3.836878662109375,3.9991199055373667,-0.7904471978574991,-2.7720021228581664
1733511866667897900,3.84689794921875,4.099818998605013,0.4130202446430921,-3.6941578845530745
1733511866677917200,3.856917236328125,3.824785667416453,1.8035463822811841,-4.666376777055859
1733511866687936300,3.866936279296875,3.2909774814009665,2.8758704936116932,-5.416403117197752
1733511866697954300,3.876954345703125,2.5957798790335653,2.882878911069035,-5.849006598711013
1733511866707973000,3.88697314453125,2.194647640582919,1.875873367345333,-5.793821887105703
1733511866717992200,3.8969921875,2.3254484419256447,1.196876958194375,-4.55184497346878
1733511866728011300,3.90701123046875,1.7737930490523575,1.2569734072387218,-2.6248756251364944
1733511866738030000,3.917030029296875,-0.48836160909235476,1.778434152856469,-0.6766980690807104
1733511866748049200,3.927049072265625,-4.455580647978186,2.3671540787547825,0.24386384755149482
1733511866758068200,3.937068115234375,-7.567388726186752,2.0983418140381573,-0.15581234687194226
1733511866768086300,3.947086181640625,-6.120756085923314,1.2903461000084877,-0.1479389831483364
1733511866778105300,3.957105224609375,-2.3342308833181855,0.5048796131730079,0.2858934556379914
1733511866788124400,3.96712451171875,-0.5729512788802384,-0.008629296657443046,0.3309305749773979
1733511866798143500,3.9771435546875,-1.2530822450190782,-0.12179741067588329,-0.13047814525961876
1733511866808162300,3.987162353515625,-2.7176708132117984,0.0385772756755352,-0.6699563397355377
1733511866818181400,3.997181396484375,-3.8027205506026744,0.16528350118100643,-0.6065832071080803
1733511866828200400,4.007200439453125,-4.119186546897888,0.1258709437251091,0.10058847230002284
1733511866838218200,4.01721826171875,-3.596132979130745,-0.041871056523919106,1.0068236112855373
1733511866848237300,4.0272373046875,-2.740799175342917,-0.18032324940264224,1.8624626816302536
1733511866858256400,4.03725634765625,-1.8067793728530406,-0.3305138108700514,2.5009347726911306
1733511866868275500,4.047275390625,-0.9097060299664735,-0.5596253488391637,2.9341178076580166
1733511866878294300,4.057294189453125,-0.3939741833895445,-0.602743775075674,3.1103438508749006
1733511866888313300,4.067313232421875,-0.3312836261987686,-0.45080900028944015,2.9254093082845207
1733511866898332400,4.07733251953125,-0.4680107488505542,-0.24033669633865354,2.386972147294134
1733511866908350200,4.08735009765625,-0.46649917524382467,0.00495440753698349,1.6891159932419657
1733511866918369300,4.097369384765625,-0.26334625439569354,0.3298053703397512,1.1244513350613414
1733511866928388400,4.107388427734375,0.12271028773710131,0.5263227986961603,0.751185154788196
1733511866938407200,4.1174072265625,0.4108703731328249,0.4794616787999868,0.436683736564219
1733511866948426200,4.12742626953125,0.420595209942013,0.21277298210859297,-0.09989625225216149
1733511866958445300,4.1374453125,0.2267144136995077,-0.114755675470829,-0.7136360531166196
1733511866968463000,4.147463134765625,0.10221884998083114,-0.29615970584750173,-1.249867374625802
1733511866978482200,4.157482177734375,0.12470189994573593,-0.4858633625358343,-1.6016206651404499
1733511866988501200,4.167501220703125,0.3680611589759588,-0.8028940069764852,-1.7586412187583744
1733511866998520300,4.177520263671875,0.8453852412253617,-1.2230524329364298,-1.6339192989379168
1733511867008539100,4.1875390625,1.3783651597231625,-1.7068518486797808,-1.3123761455088854
1733511867018558200,4.19755810546875,1.907871264630556,-2.317563241633773,-0.8429055532388389
1733511867028577300,4.207577392578125,2.2588144078060983,-2.9052608387470245,-0.0696529435493052
1733511867038595000,4.217594970703125,2.1987065605849025,-3.459989063194394,0.6891613909430802
1733511867048614100,4.2276142578125,1.7598557091146707,-3.867405496481061,1.0449231864467263
1733511867058633200,4.23763330078125,1.0079670822322369,-3.9776819807112216,1.0343836722537874
1733511867068652300,4.24765234375,0.24533640432208775,-3.8167017296820878,0.8423413434848189
1733511867078671000,4.257671142578125,-0.002028290957212448,-3.6857524597793816,0.3327094212181866
1733511867088690200,4.267690185546875,-0.05042816472798586,-3.803659292757511,0.323521613895148
1733511867098709200,4.277709228515625,-0.7468785436354577,-4.1467350635588165,0.5669105374112725
1733511867108727300,4.287727294921875,-1.7551285344623029,-4.448308611148596,0.9433696685068309
1733511867118746400,4.297746337890625,-1.8867219474874435,-4.697888936650752,1.2638592212297022
1733511867128765400,4.307765380859375,-0.9181498870544135,-4.819301147401332,1.2086530284449457
1733511867138784500,4.317784423828125,0.6332081791833043,-4.367839236161113,0.5578329124644399
1733511867148803300,4.32780322265625,2.510944710052013,-3.0255373234659433,-0.7355579620674252
1733511867158822400,4.337822509765625,-0.9156959180310368,1.017796986851096,-0.8052244957506656
1733511867168841500,4.347841552734375,-9.70455682222545,9.656624273705482,0.16647534131407737
1733511867178859300,4.357859375,-3.0797263020321726,14.98004515582323,1.4144880279839038
1733511867188878300,4.36787841796875,7.8618240924596785,12.44561318719983,2.9156711736023424
1733511867198897400,4.3778974609375,9.4689524151057,10.280152478134632,3.3762209389224647
1733511867208916200,4.387916259765625,8.851786731445788,7.600055316513776,1.2909881973043082
1733511867218935300,4.397935302734375,7.5862956712305545,1.4102233562767506,-0.2988001373536885
1733511867228954400,4.407954345703125,7.08420656555891,-3.413388055539131,0.46586423834115265
1733511867238973400,4.417973388671875,6.996421314600109,-5.485166856822371,1.5238624488078056
1733511867248991200,4.4279912109375,6.859311768501996,-5.515175041595101,1.7339784866668282
1733511867259010300,4.43801025390625,6.413983829972148,-3.8343841013669966,1.5432275128826498
1733511867269029400,4.448029296875,6.173332660856842,-1.341633219653368,0.8604014624409377
1733511867279048200,4.458048095703125,6.314511648350954,1.3220797933995723,-0.11056216930374503
1733511867289067300,4.4680673828125,6.508653579747676,3.6739164760351177,-1.376136816149205
1733511867299086300,4.47808642578125,5.776919852143526,5.106440511447191,-2.2462457258731123
1733511867309104000,4.488104248046875,4.435156284108758,5.743507411885261,-3.2030943230256437
1733511867319123200,4.498123291015625,3.416639166289568,5.554926037225127,-4.780696399196982
1733511867329142300,4.508142333984375,2.928770309150219,4.3724955375343555,-5.538192929089069
1733511867339161300,4.518161376953125,2.5016560727030037,2.5792688892155886,-4.733973226466775
1733511867349180200,4.52818017578125,2.063131384447217,0.7066641682773828,-3.6313954311698673
1733511867359199200,4.53819921875,1.3960270731419324,-0.9258756590008735,-2.616881119251251
1733511867369218300,4.54821826171875,0.4995651401519775,-2.2253110743939875,-1.623635951463133
1733511867379236000,4.558236083984375,-0.7694710453242063,-2.62372820866704,-0.05689487652406096
1733511867389255200,4.568255126953125,-2.208695455157757,-1.9685954901844263,1.7482501731254159
1733511867399274200,4.578274169921875,-3.467334749782085,-1.204074176222086,3.01353241289556
1733511867409293300,4.588293212890625,-4.228616058909893,-0.8451818276077508,3.414290557336807
1733511867419312000,4.59831201171875,-4.033091148722171,-0.8513309978872537,3.1811434802412983
1733511867429331200,4.608331298828125,-3.2922739509522914,-1.1437240446776151,2.8972838685184716
1733511867439350300,4.618350341796875,-2.5689140839397906,-1.3571370782554149,2.7220424524247644
1733511867449368300,4.628368408203125,-2.041545575582981,-1.373604813453555,2.6647306656628844
1733511867459387400,4.638387451171875,-1.7061445771932602,-1.2326859382003545,2.7970301811307667
1733511867469406500,4.648406494140625,-1.600579923915863,-0.9188415225803852,3.2334868309408424
1733511867479425300,4.65842529296875,-1.666856522899866,-0.5209662400990724,3.709591600528359
1733511867489444400,4.6684443359375,-1.9116040214180945,0.04148819468617439,3.4953818636149165
1733511867499463400,4.67846337890625,-2.347395777578652,0.30100831492245195,2.5936235777825116
1733511867509482500,4.688482421875,-2.8519349067509174,0.4465753082424402,1.5872556013099848
1733511867519500300,4.698500244140625,-3.265224615985155,0.8632856395751237,0.4986259596057236
1733511867529519400,4.708519287109375,-3.6426211740612984,1.2351795085817574,-0.7046706563726067
1733511867539538400,4.718538330078125,-4.060431575590372,1.3676286616533995,-1.7751184524372219
1733511867549557200,4.72855712890625,-4.618246660137176,1.269060150873661,-2.4370498911492526
1733511867559576300,4.738576416015625,-5.2826645088374615,0.9666191727995872,-2.5504244875252247
1733511867569595400,4.748595458984375,-5.995838497400284,0.5981728138983249,-2.3782241926930845
1733511867579613200,4.75861328125,-6.702559364300966,0.147085581189394,-2.2584495200164616
1733511867589632300,4.76863232421875,-7.280522918385267,-0.028691256955265997,-2.1364771911650893
1733511867599651300,4.7786513671875,-7.452526083210111,0.1561041694253683,-1.821280776414275
1733511867609670400,4.78867041015625,-6.979174996244907,0.8820230732709169,-1.6707053072825073
1733511867619689200,4.798689208984375,-5.9649020918667315,1.9718395866721867,-1.673098924420774
1733511867629708300,4.808708251953125,-4.764376840297878,3.0622762777984143,-1.9462275910317897
1733511867639727400,4.818727294921875,-3.5941993807196617,4.3544191980957985,-2.5134061317294836
1733511867649745200,4.8287451171875,-2.4226924261033536,5.445746116060018,-2.879007914854586
1733511867659764200,4.83876416015625,-1.1836040735147892,5.9039025565028185,-2.9930934359788894
1733511867669783300,4.848783203125,0.17446692458987234,5.679116480517387,-2.8676392563611266
1733511867679801900,4.8588017578125,1.726574932412058,4.606741515782475,-2.3660873263061046
1733511867689820700,4.868820556640625,3.37070042193532,2.733162396854162,-1.1802400039091705
1733511867699839700,4.87883984375,4.934502228552103,1.061171433675289,0.38786943677365776
1733511867709858800,4.88885888671875,5.864332762658596,-0.123217214345932,1.5999688062801956
1733511867719876900,4.898876953125,5.3881321314811705,-0.8757505688726901,2.2125402940176424
1733511867729896000,4.90889599609375,4.164070813763141,-1.0034715243786574,3.1764860098242758
1733511867739915000,4.9189150390625,2.3307272591114043,-0.4780950666218996,4.486936155706644
1733511867749934000,4.92893408203125,-0.6422093778930604,0.1451584125190973,4.381605895707011
1733511867759953000,4.938952880859375,-3.8242531679749487,0.5182376919180155,2.489271515165269
1733511867769972000,4.948971923828125,-6.572790828615426,0.26706629783213137,-0.14641557297334074
1733511867779990800,4.95899072265625,-7.143542551624774,-0.29381518854796884,-2.569454182165861
1733511867790008800,4.9690087890625,-4.142227230745553,-0.33931203435361385,-3.200156223747134
1733511867800028000,4.97902783203125,-1.0533224737405775,-0.04540858300030231,-2.6304747603178025
1733511867810047000,4.989046875,1.0552116484880447,0.16444588131308555,-2.0630989434823395
1733511867820065800,4.999065673828125,2.546397131705284,0.2494587449491024,-1.8905729238271711
1733511867830084900,5.0090849609375,3.447139518493414,0.1987684221535921,-1.9134838438153265
1733511867840104000,5.01910400390625,3.566366786420345,0.0758043057858944,-1.8476736932992934
1733511867850121700,5.029121826171875,3.327012086856365,0.08846329635083675,-1.9879061937235294
1733511867860140800,5.039140869140625,3.0209710384637116,0.09403788161277771,-2.2979433260150253
1733511867870160000,5.049159912109375,2.541378426760435,0.14980711510777472,-2.456270870578289
1733511867880179000,5.059178955078125,2.116028277376294,0.40018239037990566,-2.571652568992972
1733511867890197800,5.06919775390625,1.8987188208818435,0.7173731938183308,-3.0419881075292823
1733511867900216800,5.079216796875,1.4723995342046021,0.9511328498542309,-3.602046294827759
1733511867910236000,5.08923583984375,0.9189578424364327,0.9535352348208427,-4.125174389135838
1733511867920253700,5.099253662109375,0.37566633675005284,0.9951870956361293,-4.36634256786257
1733511867930272800,5.109272705078125,0.10434888427946716,1.1655705503046512,-4.080116519269347
1733511867940291800,5.119291748046875,0.287343362185359,1.293786595851183,-3.20953575424999
1733511867950311000,5.129310791015625,0.8565303200960159,1.279832304778695,-2.088645326540619
1733511867960329700,5.139329833984375,1.4362714052468537,1.1644038446128369,-1.0727525658756494
1733511867970348800,5.149348876953125,1.9485855523347853,1.0738000291019678,-0.4057384170718491
1733511867980368000,5.159367919921875,2.151069780141115,1.0783698212355375,-0.10165098696500062
1733511867990385700,5.1693857421875,1.970418029436469,1.0279776046037674,0.033018618635088204
1733511868000404700,5.17940478515625,1.6463462343126534,0.9395593164384365,-0.07220730420723558
1733511868010423800,5.189423828125,1.3670803801208733,0.8536258308261633,-0.15972747448906302
1733511868020442600,5.199442626953125,1.2025287003457545,0.6562269434601068,0.11770970297083258
1733511868030461700,5.209461669921875,0.9676401864103973,0.3822270469725132,0.5766308441758156
1733511868040480800,5.219480712890625,0.7124341299809515,0.23086042746305466,0.872946763498336
1733511868050498800,5.229498779296875,0.5179917543329298,0.1929343091726303,1.010624611003697
1733511868060518000,5.239517822265625,0.558516072423011,0.16677227843403816,0.9795194247744977
1733511868070537000,5.249536865234375,0.8032657628983259,0.06888648922145366,0.8520030519299209
1733511868080556000,5.25955615234375,1.046276062360406,-0.21253975787460802,0.7529810982942581
1733511868090574800,5.269574951171875,1.2729533589199185,-0.6280044730603694,0.6618745939582585
1733511868100594000,5.279593994140625,1.5140795982010662,-0.9815373404681682,0.5796246191643178
1733511868110613000,5.289613037109375,1.7431281539365648,-1.2036533204615116,0.5009390588536858
1733511868120630800,5.299630859375,1.9605596293754874,-1.2144786658585072,0.43237727154195305
1733511868130649900,5.30964990234375,2.003336840958893,-1.1722580652445553,0.36945509755238887
1733511868140669000,5.3196689453125,1.9598092493996022,-1.0675877304583787,0.16006912753358482
1733511868150688000,5.32968798828125,1.9014228191435336,-1.0021709631741047,-0.04728299857005477
1733511868160706800,5.339706787109375,1.9164456162303685,-0.988067034497857,-0.15385390628054738
1733511868170726000,5.349725830078125,2.004912711973488,-0.928873671773076,-0.22048048774600026
1733511868180744000,5.359743896484375,2.1838871771156785,-0.7866507281839847,-0.13624503822326658
1733511868190762800,5.3697626953125,2.4133035432502625,-0.6492547663599252,-0.004966097974777222
1733511868200781800,5.37978173828125,2.5617726877525446,-0.6562976706087589,0.08156140800788998
1733511868210801000,5.38980078125,2.5363486158996817,-0.8260083405822515,0.12684154232293365
1733511868220820000,5.399820068359375,2.274920031693578,-1.2109089906781911,0.12176117031872272
1733511868230838800,5.4098388671875,1.9396929285660385,-1.682394283771515,0.04247779024541378
1733511868240857900,5.41985791015625,1.672205190451443,-2.0523633221954105,0.04383943398743868
1733511868250876000,5.4298759765625,1.3599667487233877,-2.2731576981961727,0.06886208543255924
1733511868260894700,5.439894775390625,0.8959352787673472,-2.322499528992176,0.033225393253564835
1733511868270913800,5.449913818359375,0.23548896404653785,-2.192329426768422,-0.14441650811061263
1733511868280932900,5.459932861328125,-0.5541628456495702,-1.8755010269016026,-0.41314255584850906
1733511868290951700,5.46995166015625,-1.3262661391735076,-1.43445061956048,-0.7567446886114776
1733511868300970800,5.479970703125,-1.8417104009807108,-0.9774597157657146,-0.8858977227471768
1733511868310988800,5.48998876953125,-2.22151197437197,-0.5683937617063523,-0.5787096962764859
1733511868321007600,5.500007568359375,-2.6496844877004624,-0.30018881523311136,0.14963117401897907
1733511868331026700,5.510026611328125,-2.984137976107001,-0.2292021388620138,1.0592255603045224
1733511868341045800,5.520045654296875,-3.0853827203586697,-0.3892530000865459,1.7005528946660458
1733511868351064800,5.53006494140625,-3.038063043040037,-0.6517027440339327,1.708291526094079
1733511868361083600,5.540083740234375,-3.1279812143743038,-0.6208318049520254,1.2071138361789286
1733511868371102700,5.550102783203125,-3.9814901408225296,-0.21082535517215728,0.7399724175088107
1733511868381121000,5.56012109375,-7.429742004472017,0.428013231113553,0.7887665512941777
1733511868391139800,5.570139892578125,-8.45107008805871,0.04134790943264961,0.007047872684895992
1733511868401159000,5.580158935546875,-2.866926431916654,-0.829399736586213,-0.9697757371343672
1733511868411178000,5.590177978515625,3.2980867288842797,0.05087152458131313,-0.6658546035051346
1733511868421197000,5.600197021484375,6.952011094987392,1.3369587981015443,0.7625938530310988
1733511868431215900,5.6102158203125,8.118641383478044,1.7125649656295776,2.0962936493366957
1733511868441235000,5.62023486328125,7.208246786725521,0.756940649574995,2.798016269558668
1733511868451253000,5.6302529296875,5.296164626401662,0.012709259447455405,3.7310119896978136
1733511868461271800,5.640271728515625,2.6620228680089113,1.6364076086223125,5.806945572572946
1733511868471291000,5.650290771484375,1.015240288105607,3.5485792007952925,6.5349979813158505
1733511868481310000,5.66031005859375,2.823299763897061,2.5053286237359047,4.97572388125658
1733511868491329000,5.6703291015625,4.782595510816574,0.09227963976860046,3.4757273150742054
1733511868501347800,5.680347900390625,5.989266133272648,-1.7233517325818537,2.7323171782016753
1733511868511366000,5.690365966796875,6.2926423463702195,-2.5019851585268973,2.773954133708775
1733511868521385000,5.700385009765625,6.673026980346441,-2.069399212670326,2.6945634938687086
1733511868531403800,5.71040380859375,6.784239284121989,-1.1288333495378493,2.4063221599303186
1733511868541422800,5.7204228515625,6.427306252881884,-0.16400222919881344,1.7993693888574838
1733511868551442000,5.73044189453125,5.645511148035526,0.8320394374400377,0.6596084025919438
1733511868561460700,5.740460693359375,5.222400886532664,1.520160817810893,-0.5506729577071965
1733511868571479800,5.750479736328125,4.6620238425433635,2.0528297706633807,-1.309142862676084
1733511868581497900,5.760497802734375,3.6220477571099994,2.3895173017323015,-1.7426435852900146
1733511868591516700,5.7705166015625,3.0096108555376526,2.8938766904234883,-3.0216297946333883
1733511868601535700,5.78053564453125,2.503186935532093,3.1561452325850725,-4.782768529295921
1733511868611554800,5.790554931640625,1.8772528390049934,3.42040173369348,-7.2474360568195575
1733511868621574000,5.800573974609375,1.3258575583726167,3.399499230918288,-9.147750622460245
1733511868631592700,5.8105927734375,0.4746475565165281,2.4923078141212462,-8.619958920255304
1733511868641610800,5.82061083984375,-0.08293371927440166,1.143255842643976,-6.502596179404854
1733511868651629800,5.8306298828125,-0.3785445590674877,0.45465866145491596,-4.534503378045558
1733511868661648600,5.840648681640625,-0.9637357263177633,0.03419803767800331,-3.3927094246476885
1733511868671667700,5.850667724609375,-1.5140964032053947,-0.16104747104644773,-2.537317753192782
1733511868681687000,5.86068701171875,-1.9076561605751514,-0.2561544431954622,-1.817498919788003
1733511868691706000,5.8707060546875,-2.139303354501724,-0.25856618051230906,-1.0249620561748742
1733511868701725200,5.88072509765625,-2.1972329809010027,-0.21334990521371364,-0.05299670004174113
1733511868711743200,5.8907431640625,-2.22254628585577,-0.2664367677569389,0.8368611585080623
1733511868721762300,5.90076220703125,-2.22000946085453,-0.42761926335990424,1.251061991237849
1733511868731781000,5.910781005859375,-2.243169387167692,-0.671219345408678,1.3859750502049921
1733511868741800200,5.92080029296875,-2.1936241427540777,-0.9094768973857164,1.4733552274942396
1733511868751819000,5.930819091796875,-2.0840053917802868,-1.179612519660592,1.6872149819262325
1733511868761838000,5.940838134765625,-1.8837116597555577,-1.2892173882395028,1.9408276316843927
1733511868771856100,5.950856201171875,-1.7592083511218428,-1.2147025377422571,2.134000279657543
1733511868781875200,5.960875244140625,-1.6847370475053787,-0.8713748380064964,2.3098099971584976
1733511868791894300,5.970894287109375,-1.6439081935107707,-0.27357553359568115,2.4898794179305432
1733511868801913300,5.980913330078125,-1.746705866292864,0.18645780663490294,2.370222818675637
1733511868811932200,5.99093212890625,-1.9101944468811154,0.3241600579291582,1.9176786651566624
1733511868821951200,6.000951171875,-2.0608630011238156,0.44927813746035095,1.500468713738769
1733511868831969300,6.01096923828125,-2.265466413041204,0.6261755040675401,1.0337959354937076
1733511868841988000,6.020988037109375,-2.5816145755589006,0.8642898481816053,0.1926236357882619
1733511868852007200,6.031007080078125,-2.999182985025644,1.0469967778503895,-0.8001663355782628
1733511868862026200,6.041026123046875,-3.4189433515787124,1.1757359704881907,-1.7591876005947589
1733511868872045300,6.05104541015625,-3.7320807879731057,1.3117097905546427,-2.6849755813121794
1733511868882064100,6.061064208984375,-4.00835622817725,1.474173558139801,-3.7194732353344557
1733511868892083200,6.071083251953125,-4.2874478948459025,1.636777610978484,-4.657197737561166
1733511868902101200,6.081101318359375,-4.780126782615483,1.7506816380560397,-5.179366046926379
1733511868912120000,6.0911201171875,-5.96731032205224,1.7222089922875166,-4.838198447833955
1733511868922139100,6.10113916015625,-8.429221828866005,1.2917436918467282,-3.2875048368543385
1733511868932158200,6.111158203125,-11.948064647567271,0.2604009947240353,-0.8415718204170465
1733511868942177000,6.121177001953125,-14.53059692249298,-1.0806675767838954,1.6826592183180153
1733511868952196000,6.131196044921875,-11.922323472589254,-1.2986509870171545,2.4295244640804827
1733511868962215200,6.141215087890625,-7.953480631893873,-0.12172376091778278,2.5861130560219285
1733511868972233000,6.15123291015625,-5.270791700214147,1.7929653670340775,2.236378996375203
1733511868982252000,6.161251953125,-3.0809435688674447,4.254354895800351,1.3264743750967085
1733511868992271000,6.17127099609375,-1.2219184604704378,6.9225342406123875,0.5548968590125442
1733511869002290200,6.181290283203125,0.345695597910881,8.995981851890683,-0.025307167474925518
1733511869012309000,6.19130908203125,1.684282435605675,9.619909869292378,-0.7828554275542497
1733511869022328000,6.201328125,2.3564225491210817,8.300390281769634,-2.007000039641559
1733511869032346400,6.211346435546875,2.2298362967334686,5.934641393637657,-2.6278423659875987
1733511869042365200,6.221365234375,1.8154279587328432,3.6780560600578784,-2.537398124952614
1733511869052384300,6.23138427734375,1.4666121829748153,1.744375231388211,-2.328621957395226
1733511869062403300,6.2414033203125,1.0988837630845605,0.20852701510190963,-1.422944744553417
1733511869072422100,6.251422119140625,0.5170796809893101,-0.803416569545865,0.10849646894559263
1733511869082441200,6.261441162109375,-0.18674553753510117,-0.7499427535116672,1.5205141612932085
1733511869092459300,6.271459228515625,-0.4195417553663254,0.1257920332700014,1.2598726358115673
1733511869102478300,6.281478271484375,0.0604582680940628,0.6368284155070781,-0.23029081088155506
1733511869112497200,6.2914970703125,0.8168938907563685,0.7045429383397102,-1.3384851308859884
1733511869122516200,6.30151611328125,1.7829332178413866,0.7713426844149828,-1.8760669902212916
1733511869132535300,6.311535400390625,2.695039879208803,1.0943255152583122,-1.925634738727659
1733511869142554400,6.321554443359375,3.254278859078884,1.5773650525450706,-1.93107839108631
1733511869152573200,6.3315732421875,3.242216080841422,1.6858628366649149,-1.9027569903567432
1733511869162591200,6.34159130859375,2.6693805372953414,1.318637543991208,-1.7908786238878964
1733511869172610300,6.3516103515625,2.278836328354478,0.8430266954004764,-2.11535037811473
1733511869182629000,6.361629150390625,2.120230405241251,0.2613344761818647,-2.4323284155853093
1733511869192648200,6.371648193359375,1.8277479266017673,-0.16877601947188375,-2.457305474323034
1733511869202667300,6.381667236328125,1.5004542468219995,-0.26915421002209183,-2.45667886685729
1733511869212686000,6.39168603515625,1.333003922995925,-0.1343757372200489,-2.3770929967060686
1733511869222704000,6.4017041015625,1.4008791893482206,0.07957038032114505,-2.1470957619436084
1733511869232723200,6.41172314453125,1.688602490761876,0.3095025870233774,-1.8077375503607094
1733511869242742000,6.421741943359375,2.143583954430371,0.4847942719995975,-1.6165931933447717
1733511869252761000,6.431760986328125,2.4718203218877313,0.5882558155179023,-1.5986749670773743
1733511869262780200,6.4417802734375,2.615394680085778,0.7018237425088882,-1.5129410956904292
1733511869272799200,6.45179931640625,2.7076462628036735,0.7404045253157615,-1.4951841974645852
1733511869282818000,6.461818115234375,2.6346242812126874,0.4185954144269228,-1.4740440865412354
1733511869292836000,6.471836181640625,2.4720213974177834,-0.038272155249118804,-1.3660145044550298
1733511869302855200,6.481855224609375,2.4348931515067815,-0.4122416614860296,-1.2666560123413801
1733511869312874000,6.4918740234375,2.5416046367317437,-0.5786719946146011,-1.2232374341145158
1733511869322893000,6.50189306640625,2.7656279116511344,-0.6317524274170399,-1.1660936973959206
1733511869332912000,6.511912109375,2.9864336858287452,-0.6106313134551048,-1.0508208661831915
1733511869342931200,6.52193115234375,3.145653356926143,-0.5592284584760665,-0.9846978503257036
1733511869352949200,6.53194921875,3.141834090898931,-0.4564449603497982,-1.0130644053712488
1733511869362968300,6.54196826171875,2.8930542681246996,-0.4338829999297857,-0.9580873451672494
1733511869372987400,6.5519873046875,2.598383924052119,-0.5167816478908062,-0.6808730166777968
1733511869383006200,6.562006103515625,2.286319962108135,-0.7036503734141588,-0.24742080938071012
1733511869393025300,6.572025390625,2.025594703865796,-0.9288584742039442,0.22619784247949717
1733511869403044000,6.582044189453125,1.844837154699117,-1.0648054062634706,0.6301711495749652
1733511869413062100,6.592062255859375,1.7418959817931055,-1.181822596925497,0.988185546310991
1733511869423081200,6.602081298828125,1.6447773775607346,-1.2598884179025889,1.1453699121885001
1733511869433100300,6.612100341796875,1.519524565733969,-1.2831997353851794,1.0965364693060518
1733511869443119400,6.622119384765625,1.3555439638450741,-1.2804407920658587,0.9253139334648847
1733511869453138200,6.63213818359375,1.1682967603981493,-1.1463695907503366,0.7781855360470712
1733511869463157200,6.6421572265625,0.8941878505781292,-0.8964385521143674,0.6480066659949719
1733511869473175300,6.65217529296875,0.5795750809341669,-0.7606488564431667,0.6430377915412188
1733511869483194000,6.662194091796875,0.3506125960469246,-0.7442389889121055,0.614832856798172
1733511869493213200,6.672213134765625,0.2532888246312737,-0.7957897279292344,0.5552234606184066
1733511869503232300,6.682232177734375,0.2903694320082664,-0.9127513890117406,0.18758052705451844
1733511869513251000,6.6922509765625,0.3425827265873551,-1.0309171651870013,-0.4737859712511301
1733511869523270100,6.702270263671875,0.2249018113195896,-0.9625111529588699,-1.1466199122495948
1733511869533289200,6.712289306640625,-0.005285246926546096,-0.631599282681942,-1.5427191249690948
1733511869543307000,6.72230712890625,-0.15971885279119014,-0.2056348007917404,-1.4311809502400457
1733511869553326000,6.732326171875,-0.13205050914287567,0.03277940305173397,-0.887522839730978
1733511869563345200,6.74234521484375,-0.20178718545287846,0.076086629858613,0.048692719237506385
1733511869573364200,6.7523642578125,-0.3708075350746512,-0.5412164164453744,0.6577344254136085
1733511869583383000,6.762383056640625,-0.12638736881464718,-1.6256646808117627,0.5502231681130826
1733511869593402000,6.772402099609375,0.41185792286545037,-2.4987965916186567,0.14663126155063508
1733511869603420200,6.782420166015625,1.0013371426984667,-2.9105536844581366,-0.33052111739367246
1733511869613439000,6.79243896484375,0.9836581320144235,-2.8069226295918224,-0.6765867176607251
1733511869623458000,6.8024580078125,-0.8904657613150775,-2.2450462869554757,-0.6099447924956679
1733511869633477000,6.81247705078125,-1.394498548400402,-2.2405916456341743,-0.4518643545612693
1733511869643496200,6.82249609375,-0.021808219443261622,-2.666013106688857,-0.6145189685434103
1733511869653515000,6.832514892578125,1.30041273599267,-3.1723195377945896,-0.9405106258139013
1733511869663534000,6.8425341796875,3.2011563407003876,-3.2449680098980664,-0.9617186874069273
1733511869673552400,6.852552490234375,5.2007718230485915,-2.4754104553341865,-0.44473932498693464
1733511869683571000,6.862571044921875,6.421268726283311,-0.36402035915255543,0.7805079876452684
1733511869693590000,6.872590087890625,5.957120936471224,2.7883681512475014,2.4254861484751102
1733511869703608800,6.88260888671875,2.38629848581627,8.051601983428,4.953257197904587
1733511869713628000,6.8926279296875,-12.066613870102167,15.453519576907157,11.247102490323782
1733511869723647000,6.90264697265625,-14.950917261016368,13.064957383942604,12.606612727451324
1733511869733664800,6.912664794921875,-2.0647234759442505,4.084255518770218,5.604388864052296
1733511869743683800,6.922683837890625,3.3274750281929966,-2.643258254045248,1.0598483683779836
1733511869753703000,6.932702880859375,4.443814222338795,-5.524627929595113,0.06332286374494434
1733511869763722000,6.942721923828125,6.134053958913683,-6.242543559727072,0.4764570901565253
1733511869773740800,6.95274072265625,7.860579645356536,-5.947942773759364,0.8027766642071307
1733511869783760000,6.962759765625,8.972652998751402,-4.575367303353548,0.11622414058819412
1733511869793778000,6.97277783203125,9.285648104065656,-2.5331109491527077,-1.793703033658862
1733511869803796700,6.982796630859375,9.306858065354824,-0.016247370445728302,-4.642161788731813
1733511869813815800,6.99281591796875,7.85708420445621,2.648086989375949,-6.09571575269103
1733511869823835000,7.0028349609375,4.696795880717039,4.8556660077244045,-5.6107969775289295
1733511869833853700,7.012853759765625,2.5654279953896997,6.049641399258375,-6.752192871519923
1733511869843872800,7.022872802734375,2.476985157305002,6.566689004608988,-8.9531849126935
1733511869853891800,7.032891845703125,1.9770020840018987,5.4260956591725344,-8.690355229517817
1733511869863909600,7.04290966796875,0.8320394374400377,3.2688141649097204,-6.2306175596117965
1733511869873928700,7.0529287109375,0.14615852947235106,1.74928229265213,-4.6069572043597695
1733511869883947800,7.06294775390625,-0.30717381528224796,0.8847650654554367,-3.9505876375585793
1733511869893966800,7.072966796875,-0.6412292808145285,0.22344284468293188,-3.267279794949293
1733511869903985700,7.082985595703125,-0.715990799549222,-0.5337544100016355,-2.53720961664319
1733511869914004700,7.093004638671875,-0.6761860279053449,-1.2869132029503583,-1.4591023918665944
1733511869924023000,7.10302294921875,-0.7355278591901063,-1.6999328630715607,0.08583470141291617
1733511869934041900,7.113041748046875,-1.044742861443758,-1.444245452865958,1.877536624382436
1733511869944061000,7.12306103515625,-1.5121230573058126,-0.9235422476172447,3.073978698290884
1733511869954079700,7.133079833984375,-1.9143173720300197,-0.7323007138371467,3.044545390796661
1733511869964098800,7.143098876953125,-2.168362275725603,-1.04005791849792,2.8100463145703074
1733511869974117600,7.15311767578125,-2.102782426834106,-1.4177093281179665,2.8809929511919616
1733511869984136000,7.163135986328125,-1.8384113594353197,-1.4648083484232426,2.939923863588273
1733511869994155000,7.173155029296875,-1.5642203242897987,-1.106105384901166,2.6700457232058046
1733511870004173800,7.183173828125,-1.3804466421723365,-0.5934481234639882,2.0962863428130745
1733511870014193000,7.19319287109375,-1.3136544948816298,-0.17586100929677487,1.4964596242278814
1733511870024212000,7.2032119140625,-1.3407692963004112,0.10802665947675705,1.2705432290382683
1733511870034231000,7.21323095703125,-1.471028830373287,0.4605255076617002,1.112993536979705
1733511870044248800,7.223248779296875,-1.7085903629101813,0.5941887126982212,1.2240480198450385
1733511870054268000,7.233267822265625,-2.1184512667395174,0.5431278030246496,1.3962575208969414
1733511870064287000,7.243286865234375,-2.6273148349821565,0.6318506270945072,1.2218087164856493
1733511870074305800,7.253305908203125,-3.0817665756881234,0.8343670036047697,0.7114864738672971
1733511870084324900,7.263324951171875,-3.429352517390251,0.943420668041706,-0.19605024923607706
1733511870094344000,7.273343994140625,-3.7743817603468894,0.7754688244342803,-1.238040012579411
1733511870104362800,7.28336279296875,-4.174471796268224,0.4176747924506664,-2.103440160090476
1733511870114380800,7.293380859375,-4.587656291562318,0.14881751954853534,-2.8915666599154473
1733511870124399900,7.30339990234375,-5.016980605274439,0.2220832467675209,-3.5738299619078635
1733511870134418700,7.313418701171875,-5.301440520977974,0.593029021269083,-4.071806371563673
1733511870144437800,7.323437744140625,-5.327846881866455,1.1971382394790648,-4.370467831099033
1733511870154456800,7.333456787109375,-5.114437939941883,1.830919542375207,-4.509242095538974
1733511870164476000,7.343475830078125,-4.823100539684296,2.3233447476446627,-4.415189016357064
1733511870174493700,7.35349365234375,-4.469471810686588,2.2771862230598927,-3.9650785197257994
1733511870184512800,7.3635126953125,-4.0816146488726135,1.8973013552993534,-3.2131115669101473
1733511870194531800,7.37353173828125,-3.5710680959790944,2.165111749497056,-2.445176352851093
1733511870204550700,7.383550537109375,-3.017721389017999,3.6395711388409135,-1.604665293533355
1733511870214569700,7.39356982421875,-2.4628069943487643,5.420757805275917,-0.5539223148919642
1733511870224588800,7.4035888671875,-2.0755480906888844,6.111199153026938,0.4519694223709404
1733511870234606800,7.41360693359375,-2.0883537962481378,5.276746809226275,1.3420054139666258
1733511870244626000,7.4236259765625,-2.885094833552837,3.9941999847918748,2.0302271859720347
1733511870254645000,7.43364501953125,-4.538581002748012,3.0163474703162905,2.928269666151702
1733511870264663800,7.443663818359375,-7.085630460882187,2.1136919433832166,4.157600156444311
1733511870274683000,7.453682861328125,-8.785136038452386,1.3088082238942385,4.840275254108011
1733511870284702000,7.463701904296875,-6.494127041745186,0.9479448674678802,3.3482015898793933
1733511870294720000,7.473719970703125,-3.295581175804138,1.358876615399122,1.5290120866559445
1733511870304738800,7.48373876953125,-1.017866618021205,1.6224287676304578,0.08822071976661681
1733511870314758000,7.4937578125,0.9139840726118534,1.4695377150326967,-1.252051879058033
1733511870324777000,7.50377685546875,2.5626199522316453,1.3956523946106434,-2.229541113179177
1733511870334796000,7.513796142578125,3.869027544724941,1.3740461274802684,-2.9295138209939
1733511870344814800,7.52381494140625,4.806883564376831,1.1787976961463689,-3.2383564828038214
1733511870354834000,7.533833984375,5.218626044169068,0.7523276028215885,-3.0947528985112904
1733511870364852000,7.54385205078125,5.555672471678257,0.7283288875967264,-3.5855958030253645
1733511870374870800,7.553870849609375,6.075342242226005,1.11624333255589,-4.141445724979043
1733511870384889900,7.563889892578125,6.403531994062662,1.7499422178655861,-3.8814907204568385
1733511870394909000,7.573908935546875,6.022245442810655,2.0079817441552876,-3.92063381332159
1733511870404927700,7.583927734375,4.979784554824232,1.5462340012222529,-4.075781997196376
1733511870414945800,7.59394580078125,3.663465224647522,0.6836731687903403,-4.126716357880831
1733511870424964900,7.60396484375,2.413308511686325,-0.1710404572725296,-3.8285035188958045
1733511870434983700,7.613983642578125,1.4475994394689797,-0.7147457679241895,-3.2522131587207315
1733511870445002800,7.624002685546875,0.8544475955378263,-0.8934458000391721,-2.768372241923213
1733511870455021800,7.634021728515625,0.8386911504141986,-0.7279115389674902,-2.6253900043994185
1733511870465041000,7.644041015625,1.5115543175071477,-0.40680210078060625,-2.6863445315778254
1733511870475059700,7.654059814453125,2.366234041300416,-0.22453297800719738,-2.3723859880588947
1733511870485077800,7.664077880859375,3.109104079946875,-0.26503099261224267,-1.9453519772410393
1733511870495096800,7.674096923828125,3.6840503320366143,-0.3346685924619436,-1.6576869818858802
1733511870505115600,7.68411572265625,4.13902638887763,-0.4219891485184431,-1.3645536381222307
1733511870515134700,7.694134765625,4.388614313164353,-0.4938046769291162,-0.8282409219399094
1733511870525153800,7.70415380859375,4.484337371385097,-0.5161959569573402,-0.3543989827178418
1733511870535172900,7.7141728515625,4.299709702786803,-0.46243747876286506,0.004474368935078382
1733511870545191000,7.72419091796875,3.85248732881248,-0.31028584635555745,0.30072321437075733
1733511870555210000,7.7342099609375,3.2217034541666507,-0.18903671721220017,0.5339253826543688
1733511870565229000,7.74422900390625,2.4312385745219887,-0.14082359818518161,0.677739394827187
1733511870575248000,7.754247802734375,1.4362760814219713,-0.04464578193426132,0.8028427151806652
1733511870585267000,7.764266845703125,0.39285073231756684,0.18753391143381595,0.7532349269248545
1733511870595286000,7.7742861328125,-0.49257835000455374,0.5869049854308367,0.4679251163937151
1733511870605303800,7.7843037109375,-1.245703679075092,0.9599433482974767,0.11434753306135535
1733511870615323000,7.794322998046875,-1.806174392697215,1.2081599842309951,0.014049129749089478
1733511870625342000,7.804342041015625,-1.9360551565855741,1.2562369096577166,0.23593436972647905
1733511870635361000,7.814361083984375,-1.7713748819947241,1.1479805330783128,0.66812444813326
1733511870645379800,7.8243798828125,-1.247974108225107,0.9123720343053341,1.1438234133988618
1733511870655399000,7.83439892578125,-0.3076668960288167,0.4457464562028646,1.5269091230273246
1733511870665417000,7.8444169921875,0.6641761488988995,-0.09081541243493556,1.7791488769970834
1733511870675435800,7.854435791015625,1.4601573077470063,-0.5560837307095527,1.6906740363389252
1733511870685454800,7.864454833984375,1.8937123908966778,-0.8502285896033048,1.2954742566771804
1733511870695474000,7.874473876953125,2.0697823667690156,-0.9099404232442379,0.8965737228013575
1733511870705493000,7.884492919921875,2.0449892862960697,-0.788578481376171,0.5493719581112265
1733511870715512000,7.894511962890625,1.9581506685376167,-0.526561868149042,0.23820056109279392
1733511870725529900,7.90452978515625,1.70463417263031,-0.21350889516770838,0.02020721398741007
1733511870735549000,7.914548828125,1.2985365668572484,-0.01964110453724861,-0.17997692018300293
1733511870745568000,7.924568115234375,1.0285868225432933,0.040970308291912075,-0.37651042289137837
1733511870755586800,7.9345869140625,1.0209272477008402,-0.047371992027759546,-0.7077002333268523
1733511870765606000,7.94460595703125,1.2286067060627042,-0.3399585155636072,-1.2730734781682491
1733511870775625000,7.954625,1.514998320481181,-0.6759054573982953,-1.7235870026424527
1733511870785644000,7.96464404296875,1.7234022937253117,-0.9856196413457393,-1.87957163734138
1733511870795661800,7.974661865234375,1.8254013634756205,-1.2301771702498197,-1.7919471299022436
1733511870805681000,7.984680908203125,1.9665397266983984,-1.3872241734832524,-1.5825633518405258
1733511870815700000,7.994699951171875,2.1095032595217225,-1.4969073679953813,-1.3337966808088122
1733511870825718800,8.00471875,2.1768673614814875,-1.588539357510209,-0.9818499135486781
1733511870835737900,8.01473779296875,2.060760271401703,-1.6717419568538665,-0.6024772330939769
1733511870845757000,8.0247568359375,1.6716808743163942,-1.7615052298873661,-0.139331752192229
1733511870855775000,8.03477490234375,1.2488128971368073,-1.7826579080313443,0.36980727199092506
1733511870865794000,8.0447939453125,0.8013014770880341,-1.8561679654002188,0.856430220722407
1733511870875813000,8.054813232421875,0.3255477128952741,-1.9934289026677607,1.2947059026531875
1733511870885832200,8.064832275390625,-0.08850275157839059,-2.104983736270666,1.544526174391061
1733511870895851000,8.07485107421875,-0.2921082384996116,-2.1637170802682637,1.5186001443654298
1733511870905870000,8.0848701171875,-0.27991452735885974,-2.2113141132235525,1.2236390006527305
1733511870915888000,8.09488818359375,-0.5684411079794168,-2.06916891104579,1.04029567277655
1733511870925907000,8.104906982421875,-1.9652508559316395,-1.56759360011518,1.1984935996107757
1733511870935926000,8.114926025390625,-4.734162611559033,-0.8503729665100574,1.406046655113995
1733511870945945000,8.124945068359375,-5.827718311488628,-0.19040683652162552,1.41495184610337
1733511870955964000,8.1349638671875,-3.137799720816314,0.12738193280994892,1.70647585497424
1733511870965983000,8.14498291015625,-0.040409167277812956,0.5505564917206764,2.4025550624817607
1733511870976001000,8.1550009765625,1.4413584992527961,1.8098720781713724,3.383383670158684
1733511870986019800,8.165019775390626,2.418295652449131,3.2307471768438814,4.122247688034177
1733511870996039000,8.175038818359376,2.872449286991358,3.9425025307804344,4.340467537371814
1733511871006058000,8.18505810546875,2.401450316110253,4.204455431121588,4.578498002594709
1733511871016077000,8.1950771484375,2.180087784832716,3.561335221993923,4.647905300819874
1733511871026095900,8.205095947265624,2.924520250490308,1.2972206619530915,3.0901433588892218
1733511871036114000,8.215114013671876,3.9347885954022406,-1.2611363721370696,1.62620097964555
1733511871046133000,8.225133056640624,5.171585476052761,-3.11006503393352,0.8604514390625059
1733511871056151800,8.23515185546875,6.175735045823455,-3.8244939909934996,0.44850861439257855
1733511871066171000,8.2451708984375,6.557250729656219,-3.455160912385583,0.39843452379927036
1733511871076190000,8.25518994140625,6.759122963044047,-2.3992899232059717,0.30981472171247004
1733511871086209000,8.265208984375,6.8451979029536245,-1.184123859605193,0.10458981689587235
1733511871096226800,8.275226806640624,6.541047198352217,-0.06156184542179107,-0.0428067299388349
1733511871106246000,8.285245849609375,5.8053445671170945,0.9587573533833026,-0.40211920366138215
1733511871116265000,8.295264892578125,4.846192076936364,1.8522183509916066,-0.9374816333815454
1733511871126283800,8.30528369140625,3.9098113905340433,2.6978333093196154,-1.7700319429531692
1733511871136302800,8.315302734375,3.204208714008331,3.502677281320095,-2.7098563400685785
1733511871146322000,8.325322021484375,2.706364406299591,4.019550114625692,-3.760372816477716
1733511871156340000,8.335340087890625,2.0339502981483935,3.962582026734948,-4.450606951218843
1733511871166359000,8.345359130859375,1.085387006521225,3.3959675496608015,-4.7376183049708604
1733511871176378000,8.355378173828125,-0.6862304520577192,2.544452427378297,-5.896007419338822
1733511871186397200,8.365397216796875,-2.297767823317647,1.3996949479997158,-6.728616181099414
1733511871196416000,8.375416015625,-2.012979406312108,0.5050538006961346,-4.875726214456558
1733511871206435000,8.38543505859375,-1.3785393472462892,0.28568039740920065,-2.9849609829276798
1733511871216453000,8.395453125,-1.3566881654441356,0.30829204218983647,-1.524680487192422
1733511871226472000,8.405471923828125,-1.4400409869134425,0.5730448023825884,-0.3065016516417265
1733511871236491000,8.415490966796876,-1.3729694381594657,0.7487456526815891,0.6572640314228833
1733511871246510000,8.425510009765626,-1.2306652460277079,0.524057191851735,1.228345278647542
1733511871256529000,8.43552880859375,-0.9942249726057052,0.019253566524386406,1.2905984673343598
1733511871266548000,8.4455478515625,-0.7905985890269279,-0.6636702452033758,1.1416120209597052
1733511871276567000,8.455567138671874,-0.6311667364835739,-1.1749299148023127,1.135692275521904
1733511871286584800,8.465584716796876,-0.4609375590613112,-1.366845986843109,1.209631518088281
1733511871296604000,8.47560400390625,-0.3358125018000602,-1.3796575376212596,1.3032988128229974
1733511871306623000,8.485623046875,-0.37398879545927044,-1.2280272987395524,1.2111850311405956
1733511871316642000,8.49564208984375,-0.5431927214870229,-1.0285796621501446,0.9206696147903799
1733511871326660900,8.505660888671875,-0.6571604249179362,-0.8066501446396112,0.6587497399359941
1733511871336680000,8.515679931640625,-0.7507306159537285,-0.5914928977429866,0.5344723490126431
1733511871346698000,8.525697998046875,-0.851377175116539,-0.4262333619594574,0.4715435991518199
1733511871356716800,8.535716796875,-0.9740811792433262,-0.2724012291193008,0.3887402282588184
1733511871366736000,8.54573583984375,-1.159106980313733,-0.17741174587011335,0.3873445361167192
1733511871376755000,8.5557548828125,-1.3029168277680874,-0.0788362208276987,0.5164494933269917
1733511871386774000,8.56577392578125,-1.3671208582617342,0.0342202495098114,0.6836557792641222
1733511871396791800,8.575791748046875,-1.3896109224893152,0.09597732524275779,0.8063383022114634
1733511871406811000,8.585810791015625,-1.3395266027629376,0.21837971607446668,0.8154419383823871
1733511871416830000,8.595829833984375,-1.24541390234828,0.4380746064007282,0.6765401020400226
1733511871426848800,8.605848876953125,-1.138073471570015,0.6975467958420515,0.3657096274137497
1733511871436867800,8.615867919921875,-1.1387936025381087,0.8747311626970767,-0.05959785187244415
1733511871446887000,8.625886962890625,-1.3712274167977272,0.9551847555935382,-0.6367578344888984
1733511871456905000,8.635905029296875,-1.762690055757761,1.0031155505478382,-1.3185491350553928
1733511871466924000,8.645924072265625,-2.2633085043549537,1.1446569416135548,-2.1167887403547763
1733511871476943000,8.655943115234376,-2.9013816592261192,1.4468161801367998,-2.9136434671670197
1733511871486962200,8.665962158203126,-3.6154666251540184,1.6843156072229146,-3.5278999853819606
1733511871496981000,8.67598095703125,-4.375739341761172,1.6976842073619365,-3.970906787487864
1733511871507000000,8.686,-5.014122293233871,1.4789765745073555,-4.169280072844028
1733511871517019100,8.69601904296875,-5.439053340423107,1.0511112274318932,-3.9753991304710503
1733511871527037000,8.706036865234376,-5.655693519353866,0.45618367906510826,-3.525218783473968
1733511871537056000,8.716055908203124,-5.94950110911727,-0.22442834858894348,-2.755503407999873
1733511871547075000,8.726074951171874,-6.440920352214574,-0.3832341781884432,-1.44640043894276
1733511871557094000,8.736093994140624,-6.90410368090868,0.27960779949724673,0.035410920599102974
1733511871567113000,8.746113037109374,-7.028973923158645,1.490274213591218,1.2580597411707042
1733511871577132000,8.756132080078125,-6.778170193341374,2.806401236066222,1.8747637986682355
1733511871587149800,8.76614990234375,-6.208631353253126,4.073850444611907,1.8411464834876357
1733511871597169000,8.7761689453125,-5.496195031315088,5.0553123817563055,1.7320066020719707
1733511871607188000,8.78618798828125,-4.620273489789665,5.1275423361867665,1.94359242022261
1733511871617207000,8.79620703125,-3.664486968910694,4.487579714307189,2.392056318690628
1733511871627225900,8.806225830078125,-2.857903167505562,3.7820945266813037,2.7439655304193495
1733511871637245000,8.816244873046875,-2.4295392232581974,3.3676661688059566,2.8617262329250575
1733511871647263000,8.826262939453125,-2.441787733326107,2.8600404717952013,2.9076532868415117
1733511871657281800,8.83628173828125,-2.7278464625284076,2.242962466418743,2.7603067166283726
1733511871667300900,8.84630078125,-2.936400950159132,1.735710863417387,2.5184938102573153
1733511871677320000,8.85631982421875,-2.7945488857090472,1.2626777563601732,2.339536734641343
1733511871687339300,8.86633935546875,-2.396927870249748,0.9453425760149955,2.3635884952276944
1733511871697358300,8.8763583984375,-1.7393140024758875,0.8739882353752851,2.1255296806931496
1733511871707376400,8.88637646484375,-0.7787235153812915,1.0518307738780974,1.7572333977870642
1733511871717395200,8.896395263671875,0.5506570294857025,1.1011766963273286,0.820330294945836
1733511871727414300,8.906414306640626,1.8858429726958275,0.9991291112601757,-0.2527414198815822
1733511871737433300,8.916433349609376,3.0168998435020447,0.9759270993709563,-0.9711756670601666
1733511871747452400,8.926452392578126,3.823338391217589,1.1871943530917166,-1.3267654669977724
1733511871757471200,8.93647119140625,4.953960962259769,1.48898358925879,-1.5012451049387454
1733511871767489500,8.946489501953126,6.153705000323057,1.8452064264029264,-1.0469305807463825
1733511871777508600,8.956508544921874,6.631597822371125,2.6430074941545723,-1.0092620904788374
1733511871787527400,8.96652734375,6.305804610282182,3.2007927680850026,-1.3143226034015416
1733511871797546500,8.97654638671875,5.298455367687344,3.2904484890908,-1.8483866638742386
1733511871807565600,8.986565673828125,3.7999990166842936,3.0813930662006137,-3.3707185421139
1733511871817584600,8.996584716796875,0.747373195284605,2.2638217145740986,-4.218657559475303
1733511871827602400,9.0066025390625,-3.653409110057354,1.2052239307790993,-3.334357773444056
1733511871837621500,9.01662158203125,-4.6816269531577825,0.9962707992196083,-1.4091982510127126
1733511871847640600,9.026640625,-2.3496844730377195,1.1593278565227985,-0.6969032372415065
1733511871857659400,9.036659423828125,0.11608648568317294,1.1311574085712433,-0.75841393699795
1733511871867678500,9.046678466796875,2.532872464221716,0.8831897789627313,-0.7590706473410129
1733511871877697500,9.056697509765625,4.5057314570695155,0.2772539298474789,-0.6922207785136997
1733511871887715300,9.06671533203125,5.368801992589235,-0.4818669863760471,-0.45090909966304893
1733511871897734400,9.076734375,5.5166538819760085,-1.1727093161433935,-0.2871672749660909
1733511871907753500,9.08675341796875,5.2150762427330015,-1.7392922290354966,-0.4443361510135233
1733511871917772500,9.0967724609375,4.675124731656909,-2.1579507718265054,-0.8192359238378704
1733511871927791400,9.106791259765625,4.369843561720848,-2.521081488662958,-0.9950444722950458
1733511871937810400,9.116810546875,4.179059124058485,-2.8748364743888377,-1.127478135536611
1733511871947828500,9.126828369140625,3.9739442554876208,-3.2906600860148667,-1.0916839147083461
1733511871957847300,9.136847412109375,3.7219974931150674,-3.619112872701883,-0.9801197287552058
1733511871967866400,9.146866455078126,3.2912267799869177,-3.6250136211782693,-0.8430215808339416
1733511871977885400,9.156885498046876,2.7662594875529405,-3.4003660768806934,-0.6617500907957553
1733511871987904300,9.166904296875,2.1408973456948996,-3.0283833605468273,-0.3272105315409601
1733511871997923300,9.17692333984375,1.4374407412871717,-2.609485163781047,0.048519262366741894
1733511872007941400,9.18694140625,0.6923655938118696,-2.3057903862535953,0.3440995608910918
1733511872017960200,9.196960205078126,0.0838446966394782,-2.144562297943234,0.5437988341540098
1733511872027979300,9.206979248046874,-0.4732596092894673,-2.0760206766366958,0.7384336636342108
1733511872037998300,9.216998291015624,-0.9198346252709627,-2.052012024539709,0.8248445574998855
1733511872048017400,9.227017333984374,-1.1424272828653455,-2.029712514448166,0.6674731446176767
1733511872058036200,9.2370361328125,-1.2391299997732041,-2.0126205098718404,0.15080577075630425
1733511872068054500,9.247054443359374,-1.3496630891129373,-1.9874685329586266,-0.28591040677279234
1733511872078073600,9.257073486328125,-1.714093490371108,-1.8205173908263443,-0.44156303303837774
1733511872088092400,9.267092529296875,-2.512505968019366,-1.3256062139600515,-0.24386384755149482
1733511872098111500,9.277111572265625,-3.8765439117044207,-0.6433417429238557,0.09796601484194398
1733511872108130600,9.287130615234375,-5.625394827201962,-0.12119184599816799,0.28258798435181376
1733511872118149600,9.297149658203125,-6.794897456258535,0.1578688410103321,0.3709196171469986
1733511872128167400,9.30716748046875,-6.547661063534021,0.2634446002036333,0.4311442226156592
1733511872138186500,9.3171865234375,-6.014139877766371,0.11334054797589778,0.5225258906312287
1733511872148205600,9.32720556640625,-5.366090395542979,-0.3298240750402212,0.35368951927423475
1733511872158224400,9.337224365234375,-3.068168258446455,-1.2316864057689905,-0.433239879720658
1733511872168243500,9.347243408203125,-2.0217571715295315,-1.5333511387735603,-1.4085371567554772
1733511872178262500,9.357262451171875,-0.5558060828119517,-0.8638608091145753,-2.103912453777343
1733511872188280300,9.3672802734375,3.1313661806374786,0.21142098297774792,-2.2617824638314543
1733511872198299400,9.37729931640625,5.142264689022302,2.514188806539774,-0.38691140539646146
1733511872208318500,9.387318359375,5.713564693564177,5.107943901747465,3.382357834242284
1733511872218337500,9.397337646484376,5.134001887589693,5.972948620200157,6.69861734867692
1733511872228356400,9.4073564453125,4.893248719404638,5.001565593999624,8.23224847343564
1733511872238374400,9.41737451171875,5.395181465470791,2.2358412362366913,7.94414172566235
1733511872248393500,9.4273935546875,6.243202315896749,-0.9014473201870917,6.163685127067565
1733511872258412300,9.437412353515626,7.510389658635854,-3.1397569923639295,4.133258911392092
1733511872268431400,9.447431396484374,8.657015269973874,-3.647650984922051,3.2645898252129553
1733511872278450400,9.457450439453124,9.255325446516276,-2.883464602002501,2.850383585655689
1733511872288469200,9.46746923828125,8.842311631613969,-2.062452754533291,1.9046885429412126
1733511872298487600,9.477487548828124,8.153124083316326,-1.5145260267943144,0.6697961807377636
1733511872308506400,9.48750634765625,7.5717761474907395,-0.6080167470425367,-0.4563303940594196
1733511872318525400,9.497525390625,6.916211467331648,0.9998469041407108,-1.5539638648219405
1733511872328544300,9.507544189453125,5.690433408823609,2.7272482043743134,-3.371299849133193
1733511872338563300,9.517563232421875,2.6606507028728723,3.9638083536595103,-6.322419060474634
1733511872348582400,9.52758251953125,-0.10420037918686866,4.603518462082743,-8.47242325721085
1733511872358600400,9.537600341796875,0.6567109275847673,4.537003378167748,-7.1215949237108225
1733511872368619500,9.54761962890625,1.707476118057966,3.693946287629008,-4.8152118322610855
1733511872378638600,9.557638671875,0.3262321880280971,2.5705548368841407,-3.834213420975208
1733511872388657400,9.567657470703125,-2.4373563267499208,1.4435346742480992,-2.695561857256293
1733511872398676500,9.577676513671875,-3.627186289042234,0.5944581772893667,-1.6597173186697065
1733511872408695600,9.587695556640625,-2.4477689996927974,0.14204349536895752,-1.2772031253188847
1733511872418713300,9.59771337890625,-1.0504541517626493,-0.056955812931060786,-0.38683439463749525
1733511872428732400,9.607732421875,0.022422296220995484,-0.08049041777551173,1.1546405754894018
1733511872438751500,9.61775146484375,0.3093313586423173,-0.150069565436244,2.0215769926570353
1733511872448770600,9.6277705078125,-0.09188625653684139,-0.4095955308914184,1.6136184153176842
1733511872458789400,9.637789306640625,-0.48538873076140876,-0.6238309867680072,1.0232416621230542
1733511872468808400,9.647808349609376,-0.6248445477247238,-0.6948147405296564,0.4206945786632597
1733511872478826500,9.657826416015626,-0.6669798081427812,-0.6522761600077152,0.022234482031315565
1733511872488845300,9.66784521484375,-0.5617652834773064,-0.6056278060793876,-0.041914895665645595
1733511872498864400,9.677864501953126,-0.45935237222909925,-0.564554037413001,-0.12783932118862867
1733511872508883500,9.687883544921876,-0.43006782555580136,-0.6133569390267133,-0.30190146436989307
1733511872518902500,9.697902587890624,-0.5059457810997963,-0.744047850254178,-0.5327187833435834
1733511872528921300,9.70792138671875,-0.5731692690124734,-0.9180506644636393,-0.9341251625604927
1733511872538939400,9.717939453125,-0.6288415084064006,-1.0637778167814016,-1.449838012176007
1733511872548958500,9.72795849609375,-0.6428104125261307,-1.1619038444906473,-1.8959256830319762
1733511872558977300,9.737977294921874,-0.5433212067048996,-1.208269874346256,-2.048421306571364
1733511872568996400,9.747996337890624,-0.3526853837329894,-0.9390069432526826,-1.7513780958876013
1733511872579015400,9.758015380859375,-0.21912673504948615,-0.440064903435111,-1.1927481878265738
1733511872589034200,9.7680341796875,-0.23762093457393346,0.03463233744204044,-0.5782509927235543
1733511872599052500,9.778052490234375,-0.4002094245173037,0.2661854233443737,0.005483253716677427
1733511872609071600,9.788071533203125,-0.6299240429461002,0.3395306455403566,0.6928383258901536
1733511872619090400,9.79809033203125,-0.8686755159199238,0.5603495714604855,1.2488527907557785
1733511872629109500,9.808109619140625,-1.0719254674017429,0.9675234281629324,1.4573387431949376
1733511872639128300,9.81812841796875,-1.1876701539099215,1.3961217656880616,1.144910331852734
1733511872649147400,9.8281474609375,-1.2908673474036156,1.6772124972194433,0.3848180863790214
1733511872659165400,9.83816552734375,-1.4703145446240902,1.7825567857444284,-0.48589463445693254
1733511872669184500,9.8481845703125,-1.6262302057400344,1.9144225859701631,-1.356700440403819
1733511872679203600,9.85820361328125,-1.8411016214326024,2.108485606911778,-2.1989935608327387
1733511872689222000,9.868221923828125,-2.2291725721277293,2.1629735684245825,-2.9512478061571716
1733511872699240700,9.87824072265625,-2.7619106446936725,2.2124346416860816,-3.638537119618058
1733511872709259800,9.888259765625,-3.296538038137555,2.2674521800309417,-4.226068712514639
1733511872719277800,9.89827783203125,-3.8083155941307543,2.355104744520783,-4.5909261070132255
1733511872729296600,9.908296630859375,-4.2752644128382205,2.4979835216701027,-4.784680500397086
1733511872739315700,9.918315673828126,-4.792037877422571,2.678787832587957,-4.7579371626392
1733511872749334800,9.928334716796876,-5.334983894139528,2.9864591125309468,-4.304879214379191
1733511872759353900,9.938353759765626,-5.753197615772486,3.1037475213497876,-2.8317808842554686
1733511872769372700,9.94837255859375,-6.170035372877121,2.6689684493631125,0.04788870937824249
1733511872779390700,9.958390625,-7.933708594453335,3.67161872048676,4.500567790696024
1733511872789409800,9.968409912109376,-12.284620661211013,5.830020158690214,9.252025235927105
1733511872799428600,9.9784287109375,-20.507206987810132,5.626733966851234,9.309057036703825
1733511872809447700,9.98844775390625,-24.695135647022724,4.299231563881039,6.05185089200139
1733511872819466800,9.998466796875,-15.593286944037676,3.363472808769345,3.8307869536578654
1733511872829485800,10.00848583984375,-9.08797039975822,3.307106778424978,3.792174606668949
1733511872839504000,10.01850390625,-5.001023157685995,3.954806716558337,3.233306798198819
1733511872849523000,10.02852294921875,-2.1483444468304516,4.149014698928594,1.74592056113407
1733511872859542000,10.0385419921875,-0.12747034174576402,3.861767198333144,-0.01327872989848256
1733511872869560800,10.048560791015625,1.605981929089874,3.1198353173196316,-1.676610147412121
1733511872879580000,10.058579833984375,3.1824504711866375,2.2979233061403033,-2.7638705465897915
1733511872889598700,10.0685986328125,4.595608127349615,2.0442840606361625,-3.0346453435510394
1733511872899616800,10.07861669921875,5.776960768675804,2.337317158895731,-2.4023992873981594
1733511872909635800,10.0886357421875,6.622047319215536,2.77035435565114,-1.2100478438042104
1733511872919655000,10.098655029296875,6.913678733983636,3.3223148689508437,-0.5368842324599623
1733511872929674000,10.108674072265625,6.754388920259475,3.676414138069749,-0.4018102838426828
1733511872939692800,10.11869287109375,6.2083057745605705,4.220478345161676,-0.22421631327345967
1733511872949710800,10.1287109375,5.96697480648756,4.58498619557023,0.2237602400690317
1733511872959730000,10.13872998046875,5.470803400427103,4.022261127150059,1.0146224484682083
1733511872969748700,10.148748779296875,4.792682020545006,3.005818477517366,0.20188816160932183
1733511872979767800,10.158767822265625,3.7632939646214245,2.0633429813712834,-1.1598540723539887
1733511872989787000,10.168786865234376,1.8791215554863214,1.3706816194832325,-2.4082906835243105
1733511872999805700,10.1788056640625,-2.422632220348716,1.0136386981278658,-3.821317114523053
1733511873009823700,10.18882373046875,-6.491070576784014,1.1398936727344988,-3.116165981157124
1733511873019842800,10.1988427734375,-1.9544693496763705,1.3466981018275022,-1.1286794741503894
1733511873029861600,10.208861572265626,1.8237420519612728,1.0398539203584194,-0.6953415408827364
1733511873039880700,10.218880615234376,3.862951439681649,0.7050894663065671,-0.7368659759260714
1733511873049899800,10.228899658203124,5.422603140881657,0.15201017811000347,-1.0337097185149788
1733511873059918800,10.2389189453125,6.656699530401825,-0.6430366224974393,-1.189515051124245
1733511873069936600,10.2489365234375,7.487194076487421,-1.4528759185671805,-1.2350687416836619
1733511873079955700,10.258955810546874,7.477020472997427,-2.2448212460279464,-1.1520473441258072
1733511873089974800,10.268974853515624,6.834124720275402,-2.8616210189849136,-0.9106428724251687
1733511873099993600,10.27899365234375,6.168447811424731,-3.1604028900295495,-0.591584521549195
1733511873110012700,10.2890126953125,5.773844682481885,-3.2053304115146397,-0.3998068350657821
1733511873120031700,10.29903173828125,5.840512911131977,-3.238924053558707,-0.42850218367427584
1733511873130049800,10.3090498046875,6.166664435139298,-3.39902869079709,-0.575744124469161
1733511873140068900,10.31906884765625,6.043823652890325,-3.6336762355834242,-0.8627972715362906
1733511873150088000,10.329087890625,5.392504355216026,-3.821163969787955,-1.2096648358359932
1733511873160107000,10.33910693359375,4.5600335406214,-3.9256162779092785,-1.445117413394898
1733511873170125800,10.349125732421875,3.6195956877827644,-3.9901176839143035,-1.5317206149622797
1733511873180145000,10.359144775390625,2.653972540283203,-3.976183266586065,-1.3275886199489235
1733511873190163000,10.369162841796875,1.792694148877263,-3.8872085135817525,-0.7565235932067036
1733511873200181800,10.379181640625,1.1155161873251198,-3.882223126384616,0.2952721093580127
1733511873210200800,10.389200927734375,0.5730921486556529,-3.826102595233917,1.2806046043254435
1733511873220220000,10.399219970703125,-0.007104863569140434,-3.5462557262837886,1.6319443456031382
1733511873230239000,10.409239013671876,-0.7840472676873207,-2.953229627624154,1.2725722506478427
1733511873240257800,10.4192578125,-1.7350518149867653,-2.0155565633237362,0.7341280753947794
1733511873250275800,10.42927587890625,-3.124552701230347,-0.9206465261757373,0.17508403357490895
1733511873260295000,10.439294921875,-4.897994452627003,0.36925709076225754,-0.17413389324322343
1733511873270313700,10.449313720703126,-6.530737985783815,1.7561673759907483,0.23045696122869846
1733511873280332800,10.459332763671876,-7.498679347097873,2.69405671339035,1.4788764751337469
1733511873290351900,10.469351806640624,-7.493200038903951,2.4884143138140438,2.8224972153425214
1733511873300370700,10.47937060546875,-6.491098049312829,1.314867962324619,3.5294285101234912
1733511873310388700,10.489388671875,-5.031316004619002,-0.17268822447955606,3.1006366958528755
1733511873320407800,10.49940771484375,-3.703993342129886,-1.134151329690218,2.161243968153
1733511873330426600,10.509426513671874,-4.790219137562811,-0.9934072264820337,1.7867386014737188
1733511873340445700,10.51944580078125,-4.607954983225465,-1.1309031415492297,1.1460130323976279
1733511873350464800,10.52946484375,-1.416664202979207,-1.6843161917448042,-0.5382083206705749
1733511873360482800,10.53948291015625,3.340495837807655,-1.2657131785333156,-1.5382082234159111
1733511873370501600,10.549501708984375,8.168382442724704,0.20636603767573833,-1.5054956019900738
1733511873380520700,10.559520751953125,8.77138282290995,2.314282320266962,-0.63552390877977
1733511873390539800,10.569539794921875,3.13650149769932,4.6387610403776165,1.1527891024038195
1733511873400558600,10.57955859375,-5.756206734460592,7.973533239841461,4.991311911010742
1733511873410577700,10.58957763671875,-5.365344545611739,9.637190674439072,8.318983338558674
1733511873420596000,10.599595947265625,3.105089291347563,5.8197419257819645,7.840431175819039
1733511873430614800,10.60961474609375,8.625333014509081,0.6149900931864977,4.8575481682091946
1733511873440633900,10.6196337890625,10.866882691520452,-3.0742846955001353,1.6175966712988912
1733511873450653000,10.62965283203125,11.635692642587422,-4.616839131426811,0.2227232982367277
1733511873460672000,10.639672119140625,11.577498812294005,-4.768710777848959,0.4724401096001267
1733511873470690800,10.64969091796875,11.238510018545389,-4.356332922762632,0.9267100639984011
1733511873480708900,10.659708984375,10.558851346093416,-3.27194778676033,0.5417747809804976
1733511873490728000,10.66972802734375,9.442093049752712,-1.6281255179673433,-0.22344605955332517
1733511873500746800,10.679746826171876,8.371528349310159,0.4622948554217815,-0.8415358723208308
1733511873510765800,10.689765869140626,7.26783587076962,2.491174426177144,-1.6898555595628917
1733511873520785000,10.699784912109376,5.734501098608971,4.029889137810469,-3.5399785457104445
1733511873530803700,10.7098037109375,3.2611431918904183,4.9779631846159695,-6.0926622103393075
1733511873540821800,10.71982177734375,0.042579058662801976,5.514831927245855,-7.619862425267696
1733511873550840800,10.7298408203125,-0.3666461776115,5.249085479840636,-5.653105256426334
1733511873560859600,10.739859619140624,0.6848053876906633,4.011639195370674,-3.5506682820290325
1733511873570878700,10.749878662109374,0.17167817065417765,2.5359832897186276,-3.3309868357062338
1733511873580897800,10.759897705078124,-1.6396581348508596,1.2012176177471876,-3.0868846493542192
1733511873590916900,10.769916748046874,-3.2306068915903565,0.03105097182393074,-1.8723641901805996
1733511873600934700,10.7799345703125,-3.217181592828035,-0.5269821393877268,-0.3626515550173819
1733511873610953700,10.78995361328125,-1.9328946467280386,-0.3190238640844822,1.2255302212268113
1733511873620972800,10.799972900390625,-0.5684936784168705,-0.0016086042404174804,2.4280463543519377
1733511873630991600,10.80999169921875,0.03365561963068321,-0.48799628291130065,2.3514804165437817
1733511873641010700,10.8200107421875,-0.07761690816581249,-1.0202572394847869,1.6051520541369915
1733511873651029000,10.830029052734375,-0.3715601070076227,-0.9979495460867881,0.8333847145691513
1733511873661047800,10.8400478515625,-0.6834545576035976,-0.7309136433929204,0.2157720177941024
1733511873671067000,10.85006689453125,-0.9066624244868755,-0.4010007210254669,-0.26884689763858916
1733511873681086000,10.8600859375,-0.9907798005878925,-0.1946598177909851,-0.7970119632005691
1733511873691104800,10.870104736328125,-0.7642752302467822,-0.12041618545055388,-1.154024489417672
1733511873701123800,10.880123779296875,-0.4903554132580757,-0.26556056944429873,-1.2635304276667534
1733511873711142000,10.890141845703125,-0.35223515574745834,-0.46303778274357316,-1.2169925483755766
1733511873721160700,10.90016064453125,-0.37280342159960417,-0.5371937368005514,-1.152547402602434
1733511873731179800,10.9101796875,-0.4694412200450897,-0.4394727827608585,-1.152292258797586
1733511873741198800,10.92019873046875,-0.5773826123911887,-0.27540041093528267,-1.2350551515497266
1733511873751217700,10.9302177734375,-0.6700362731039524,-0.19831600221097467,-1.3267188513770698
1733511873761236700,10.94023681640625,-0.7718273261267692,-0.1651888086348772,-1.2896765301838515
1733511873771254800,10.9502548828125,-0.9101030664600431,-0.22005203320086,-1.1037624019715935
1733511873781273600,10.960273681640626,-1.124434237796068,-0.19670564440488814,-0.891145925598964
1733511873791292700,10.970292724609376,-1.4236964397035539,-0.13682546845972537,-0.6129997961521149
1733511873801311700,10.980311767578126,-1.7646634016573428,-0.0719955611526966,-0.060158554495126006
1733511873811330800,10.990330810546874,-2.1900432155273855,-0.023846155011653897,0.5256172807753086
1733511873821349600,11.000349609375,-2.6801041758835313,0.1253138943642378,1.0708877949170768
1733511873831367700,11.01036767578125,-3.1770489044040437,0.3399666988700628,1.5957124640099702
1733511873841386800,11.02038671875,-3.589551262652874,0.627775925001502,1.8881730230785905
1733511873851405600,11.030405517578124,-3.8547625802680847,0.9359919793456792,1.8142264739885925
1733511873861424600,11.040424560546874,-3.902172273957729,1.404827050191164,1.3139341886058449
1733511873871443700,11.050443603515625,-3.731227678275108,1.786875233465433,0.4177490267306566
1733511873881462800,11.060462890625,-3.396614615392685,1.901452045238018,-0.6399876101903617
1733511873891480600,11.07048046875,-3.0338413336917758,1.8535779489070177,-1.630345239843428
1733511873901499600,11.080499755859375,-2.8604335627660156,1.657240553292632,-2.4308881536491214
1733511873911518700,11.090518798828125,-2.7751825064599513,1.458945593869686,-3.0514757745817302
1733511873921537500,11.10053759765625,-2.72685335983783,1.3291998545378445,-3.5444875475674866
1733511873931556600,11.110556640625,-2.7143995364561677,1.1684557503521442,-3.8381063367605206
1733511873941575700,11.12057568359375,-2.6989813103109594,0.9221902484863996,-3.775587044483423
1733511873951593700,11.13059375,-2.666434254710376,0.5639736071765422,-3.168445911231637
1733511873961612800,11.14061279296875,-2.6533856803059575,-0.06980944928526878,-1.8946739294052124
1733511873971631900,11.1506318359375,-2.6300211713314057,-0.7148357842952012,-0.13523732248544693
1733511873981651000,11.16065087890625,-2.795753877584636,-0.9741022220313549,1.8682497405990957
1733511873991669800,11.170669677734375,-3.304875073850155,-0.46299861977696416,3.9940997392877935
1733511874001688800,11.180688720703126,-4.297843032132089,0.8892863422721624,5.923993742895126
1733511874011707000,11.190706787109375,-5.924330427503586,2.514391635635495,6.3659355461180205
1733511874021725700,11.2007255859375,-8.366105155217648,3.565829610803723,4.632137530584633
1733511874031744800,11.210744873046876,-11.274549300175904,4.071484300002456,1.9333022046156227
1733511874041763800,11.220763916015626,-12.32535599170327,4.401203745624422,-0.2844135923437774
1733511874051782700,11.23078271484375,-10.383864197021722,4.672219657865166,-1.4356484510429202
1733511874061800700,11.24080078125,-7.386064190787076,4.76859621155858,-2.1119798787683246
1733511874071819800,11.25081982421875,-4.520263255769014,4.290317605063319,-2.53252934987247
1733511874081838600,11.260838623046874,-2.0911559941872953,3.4442619172304867,-2.6451015438243743
1733511874091857700,11.270857666015624,-0.08278101293072104,2.5234838736295697,-2.6818323148503898
1733511874101876700,11.280876708984374,1.552712257325649,1.5905401759386062,-2.6698309114113448
1733511874111895800,11.290895751953125,2.6238883676648137,0.8394032442063093,-2.3951949089772997
1733511874121913600,11.30091357421875,3.0317735875070095,0.8729600613713264,-1.9154731179364024
1733511874131932700,11.3109326171875,2.999098813873529,1.618151820963621,-1.5704082191444932
1733511874141951700,11.32095166015625,2.8370927269279953,2.503852121442556,-1.4555885385267435
1733511874151970600,11.330970458984375,2.716260361891985,3.265058027246594,-1.384898507014662
1733511874161989600,11.34098974609375,2.8024890310585495,3.8855017096638678,-1.383808227559924
1733511874172008700,11.3510087890625,3.0142215642035004,4.574828958693146,-1.0950729726247488
1733511874182026800,11.36102685546875,3.276371448421478,5.444190703311563,-0.608680179387331
1733511874192045600,11.371045654296875,3.227049491369724,6.1213563899040215,-0.15702128427028655
1733511874202064600,11.381064697265625,2.974444265088439,6.0374745761245485,-0.15624167819991708
1733511874212083700,11.391083740234375,3.251647926053405,5.359290067878365,-0.9045891253441571
1733511874222102500,11.4011025390625,3.422814055532217,4.1551065860629075,-0.7040544241704046
1733511874232121600,11.41112158203125,3.1493285383075476,3.1193636081546545,-0.8438834583602846
1733511874242140000,11.421139892578125,2.3524570064909756,2.258333638551831,-0.966601783273369
1733511874252158700,11.43115869140625,1.2853741568148136,1.2489578585654497,-0.1892003102760762
1733511874262177800,11.441177734375,1.357828129259497,0.6146861418038606,0.9877489815246313
1733511874272196900,11.45119677734375,2.3308368569657207,-0.09596680384874344,1.4932248800903558
1733511874282215700,11.461215576171876,3.7893501968979835,-0.5654957021772861,1.1289023961860687
1733511874292234800,11.47123486328125,5.269553098329902,-0.9528647882133722,0.4999290050283074
1733511874302252800,11.481252685546876,6.17348580559194,-1.3695704433709381,0.13827873600795865
1733511874312271600,11.491271728515626,6.1094765670180315,-1.8675035984069108,0.002220014137029648
1733511874322290700,11.501290771484374,5.619421598011255,-2.384846387311816,0.04422667973935604
1733511874332309800,11.511309814453124,5.101276845073699,-2.6882161706686016,0.3936674555279314
1733511874342328800,11.521328857421874,4.691559441368281,-2.809427890411019,1.0227499330833554
1733511874352346600,11.5313466796875,4.515912659344077,-3.0542969694823023,1.542153161649406
1733511874362365700,11.54136572265625,4.534605669376254,-3.44653161572814,1.8140584239453077
1733511874372384800,11.551384765625,4.485051657134294,-3.916577231407165,2.1054240273840725
1733511874382403600,11.561403564453125,3.945938934969902,-4.263732380476593,2.315050674290955
1733511874392422700,11.571422607421875,3.125329238560796,-4.379495771685242,2.243383322179317
1733511874402441700,11.581441650390625,2.3647522783100605,-4.152375115272402,1.8335966526299714
1733511874412459500,11.59145947265625,1.643338869190216,-3.702363402840495,1.335439333449304
1733511874422478600,11.601478515625,1.1689593159601093,-3.353911199697852,0.9765862939320504
1733511874432497700,11.61149755859375,0.9637149757906794,-3.0454835484296083,0.5311719922930002
1733511874442516700,11.621516845703125,0.7850885934337973,-2.7562410746246573,0.1506473653241992
1733511874452535600,11.63153564453125,0.7432926479727029,-2.522709966647625,-0.21948782344684004
1733511874462553900,11.641553955078125,0.7424883458524942,-2.4192367326915263,-0.6797098181173205
1733511874472573000,11.651572998046875,0.6732891374200582,-2.3386633128076793,-1.162065610923618
1733511874482591700,11.661591796875,0.3837859668523073,-2.321039393311739,-1.4894763412117957
1733511874492610800,11.67161083984375,-0.32183336854726075,-2.33368201726377,-1.5422316337130964
1733511874502629600,11.681629638671875,-1.265184770745039,-2.328099833217263,-1.4651790814317762
1733511874512648700,11.691648681640626,-2.1017659432679414,-2.3074048357129096,-1.3821917322739958
1733511874522667500,11.70166748046875,-2.4095251937553286,-2.279278226903081,-1.4850817595146595
1733511874532685800,11.711685791015626,-2.7285283073127267,-2.2397727304667234,-1.587510014462471
1733511874542705000,11.721704833984376,-3.1072876781746746,-2.0626222658813,-1.4102707025498151
1733511874552723700,11.7317236328125,-3.5497248636990784,-1.6097060641795395,-1.0427198311835526
1733511874562742800,11.74174267578125,-4.116463843935728,-0.9829811095356941,-0.7142147297874093
1733511874572761900,11.751761962890624,-4.57245463077724,-0.15787994692623614,-0.40327392665445805
1733511874582779600,11.761779541015626,-4.341301650108397,0.5371726940125227,-0.3860042274236679
1733511874592798700,11.771798828125,-3.4658965336725114,0.6963350819647312,-0.5637491507709026
1733511874602817800,11.78181787109375,-3.072873367397487,0.5417851562440396,-0.20154796986952422
1733511874612836600,11.791836669921874,-5.326361027222871,0.417125341874361,1.141058186469227
1733511874622855700,11.801855712890625,-8.472200554370879,0.12384966703057289,2.2313002318061885
1733511874632874800,11.811874755859375,-6.269022985851764,0.25447628085017204,1.14753322770223
1733511874642892500,11.821892578125,-0.6546969574138521,2.1810744577825067,1.3497615810513495
1733511874652911600,11.83191162109375,4.026597402788698,5.948974454894661,3.935955301094055
1733511874662930700,11.8419306640625,4.604325394551456,8.562890294599532,7.115042433327436
1733511874672949800,11.85194970703125,2.6585578222468493,8.132354267010092,9.25624899110198
1733511874682968300,11.86196826171875,2.607727798719704,7.042917692837118,11.14544361231327
1733511874692987400,11.8719873046875,6.7540346999943255,3.717290922859311,9.578110124439
1733511874703005400,11.88200537109375,11.49845157906413,-1.297426998180151,4.855640288761258
1733511874713024300,11.892024169921875,14.058111512446402,-4.918471131205559,1.2029342124067246
1733511874723043300,11.902043212890625,14.300837734270095,-6.871458133369684,-0.7002402727097272
1733511874733062100,11.912062255859375,13.878483259570597,-7.026127301555872,-1.2858829831197858
1733511874743081200,11.922081298828125,12.492324669492245,-5.676711172941327,-1.077155623140186
1733511874753099500,11.932099609375,11.06306694239974,-3.8468928698062896,-1.098124907541275
1733511874763118300,11.942118408203125,10.177332739651202,-2.1020336542934177,-1.4831665735431014
1733511874773137400,11.952137451171875,9.11883374005556,0.0032949498921632766,-2.1118125593774018
1733511874783156500,11.962156494140626,7.27356067815721,3.270863498654961,-3.8179385780006645
1733511874793175300,11.97217529296875,0.9224043296284973,8.612232125395536,-8.244568441304564
1733511874803194400,11.9821943359375,-5.106576120525598,13.001915529096125,-9.837473008286953
1733511874813212400,11.99221240234375,-1.775138618442416,11.902577154111862,-6.301997034692764
1733511874823231200,12.002231201171876,2.483268767619133,7.957191176849603,-4.986670807206631
1733511874833250300,12.012250244140626,1.4716270885273814,3.994907840800285,-5.796318964618444
1733511874843269400,12.022269287109374,-0.3356371452331543,1.0764391454339026,-5.239353190377354
1733511874853288400,12.032288330078124,-0.3764256672173738,-0.38756080921590325,-3.2166251279890536
1733511874863307300,12.042307373046874,0.3616740882873535,-0.9158967013001441,-1.3079611055456102
1733511874873325300,12.0523251953125,1.0746961011588574,-1.1214607749432324,-0.33131548264175653
1733511874883344400,12.062344482421874,1.2646470106065273,-1.2404817066431044,0.11497019500434398
1733511874893363200,12.07236328125,0.8415666327852755,-0.9731798464894295,0.5097011881105602
1733511874903382300,12.08238232421875,0.012341449048370123,-0.3666986384510994,0.9821677473261952
1733511874913401300,12.0924013671875,-0.6108516782075166,0.18838322173953057,1.3404869722276924
1733511874923420400,12.10242041015625,-0.9890583105575292,0.34220015701055523,1.38052832910642
1733511874933438200,12.112438232421875,-1.1637877585411072,0.31739889323115344,1.1221706767782569
1733511874943457300,12.122457275390625,-1.2318658539891243,0.14540098910331725,0.6817961228720844
1733511874953476400,12.132476318359375,-1.3326087861984968,-0.08659925604462623,0.0927120398364961
1733511874963495200,12.1424951171875,-1.5100719699949026,-0.2329793193131685,-0.48406654224693774
1733511874973514200,12.15251416015625,-1.7374486469954251,-0.2777630484133959,-0.919842370186001
1733511874983532500,12.162532470703125,-1.878730510342121,-0.23073358621299264,-1.2589268793940542
1733511874993551400,12.17255126953125,-1.9537001188695429,-0.17988193537592886,-1.4698822906866669
1733511875003570400,12.1825703125,-2.0009528684318063,-0.010773322948813438,-1.5183869400061667
1733511875013589500,12.192589599609375,-2.0277578732490538,0.2957733368784189,-1.4173603685498237
1733511875023608300,12.2026083984375,-1.975281836080551,0.7044745492786169,-1.1332437133260072
1733511875033627400,12.21262744140625,-1.9644401240706442,0.7726005755215882,-0.8339490704536437
1733511875043645400,12.2226455078125,-1.9847545978248118,0.4553495663285255,-0.6652535688720643
1733511875053664500,12.23266455078125,-1.977743842279911,-0.12804594967663288,-0.5048699685618281
1733511875063683300,12.242683349609376,-1.9221242463886736,-0.7061170557886361,-0.24972733275741338
1733511875073702400,12.252702392578126,-1.813697773939371,-0.978654478508234,0.24225538944154976
1733511875083721500,12.262721435546876,-1.6673827387310562,-1.0328174458503723,0.8479721889786421
1733511875093740300,12.272740234375,-1.5155949712000787,-1.0394430014699696,1.4228073819093405
1733511875103758300,12.28275830078125,-1.3560288247525691,-1.0764110883831977,1.8655492494687438
1733511875113777400,12.29277734375,-1.1486170774161815,-1.033522963771224,2.0069450945839287
1733511875123796200,12.302796142578124,-1.0131832094453275,-0.7272551208853721,1.8239317293144761
1733511875133815300,12.312815185546874,-1.026532666492462,-0.1906517511934042,1.4524559395894407
1733511875143834400,12.32283447265625,-1.1342637040235102,0.3717962538510561,0.8772852310940623
1733511875153852200,12.33285205078125,-1.3399685013115405,0.9428209485828876,0.14779562915489078
1733511875163871200,12.342871337890625,-1.57851758358106,1.5246370864421128,-0.614102642827481
1733511875173890300,12.352890380859375,-1.8439855063058435,1.985845315670967,-1.3495572906509041
1733511875183909400,12.362909423828125,-2.1892101257041094,2.0268378357946872,-2.1547408698692916
1733511875193928200,12.37292822265625,-2.7614430271819232,1.5344769279330968,-2.945796847274899
1733511875203947300,12.382947265625,-3.559637770426273,0.9774544550687074,-3.5289024404227733
1733511875213965300,12.39296533203125,-4.717132858563959,0.6332949806839228,-3.803037361466884
1733511875223984000,12.402984130859375,-6.344900356873869,0.37898996474742885,-3.515311137443781
1733511875234003200,12.413003173828125,-8.64034762828946,-0.08444704644680023,-2.3894284544050692
1733511875244022300,12.423022216796875,-11.544411366206408,-0.588430003041029,-0.00542582444101572
1733511875254041300,12.433041259765625,-13.147975858891009,-0.3725333359539509,2.5560139780953524
1733511875264060200,12.44306005859375,-12.004383331638573,0.7496142522096634,3.723845751330256
1733511875274078500,12.453078369140625,-9.547754733663798,2.4010861589729786,3.7850153825640676
1733511875284097500,12.46309765625,-7.401482709193229,4.141850798648596,3.194820707938075
1733511875294116400,12.473116455078125,-5.822821187096834,5.3537102219194175,2.0272559150762857
1733511875304135400,12.483135498046876,-4.652988303172588,5.340006690737605,0.19174173838719724
1733511875314154500,12.493154541015626,-3.7338542273864146,4.655934293496609,-1.4652451324053108
1733511875324173600,12.503173583984376,-3.162761435854435,4.081252245301008,-2.2669563593380153
1733511875334191400,12.51319140625,-2.329789686000347,4.038450045406818,-2.734725408387184
1733511875344210400,12.52321044921875,-0.8992012948259711,4.3404654915452,-3.191616358938813
1733511875354229500,12.5332294921875,0.626706761400029,4.429009451916814,-3.5773344628974795
1733511875364248300,12.543248291015624,2.088294467276335,4.314883891043067,-3.7488553971633314
1733511875374267400,12.553267333984374,3.221488350111246,4.724096560096741,-3.7166628540888427
1733511875384285400,12.563285400390624,3.9361984622001644,5.4420133592724795,-3.347318377304077
1733511875394304300,12.57330419921875,4.54660531924963,5.843294066283106,-2.638707458873093
1733511875404323300,12.5833232421875,5.13331682793498,5.838710830146074,-1.7872801610045135
