time,seconds_elapsed,z,y,x
1733768029072170200,0.046170166015625,-0.44465661513954396,-0.264002818608284,1.1407596419140695
1733768029082130400,0.05613037109375,-0.23680253086313605,-0.2006026518434286,1.0655492103680968
1733768029092091400,0.06609130859375,-0.2422995208442211,-0.34494624084830283,1.1505796096608043
1733768029102051300,0.07605126953125,-0.30338658836111426,-0.4297568599104881,1.4201079136922954
1733768029112011500,0.086011474609375,-0.4623649980485439,-0.3958323784768581,1.5281109000325201
1733768029121971500,0.095971435546875,-0.530814264896512,-0.43715632251203057,1.3029010456770658
1733768029131932200,0.10593212890625,-0.47336862262189383,-0.3669698566079139,1.0182526216641068
1733768029141892400,0.115892333984375,-0.3384983798831701,-0.35034313145577906,0.7430062322467565
1733768029151852300,0.125852294921875,-0.14026304169297218,-0.7839005526930093,0.3385907343417406
1733768029161812200,0.135812255859375,0.061180883280187844,-0.6511515398919582,0.06240357520924881
1733768029171772400,0.1457724609375,0.12032967621088027,-0.4590016590952873,0.05761106196939945
1733768029181733400,0.1557333984375,-0.04943184716701507,-0.47790568152964114,-0.11012275497317313
1733768029191693300,0.165693359375,-0.815108468644321,-0.48734103387296196,-0.40594464370105415
1733768029201653000,0.175653076171875,-1.4351067453816533,-0.39764264276921746,-0.5604632975006476
1733768029211613200,0.18561328125,-1.6628756365701556,-0.2169330243974924,-0.508139162958227
1733768029221574100,0.19557421875,-1.8178759364068506,-0.20370237142443656,-0.10113280830979347
1733768029231534000,0.2055341796875,-1.5414730704307555,-0.38456688809692857,0.4553022200554609
1733768029241494300,0.215494384765625,-0.817885239881277,-0.605168371874094,0.8990066490367055
1733768029251454200,0.2254541015625,-1.5014458882078527,-0.8542337335914373,1.1788575365748255
1733768029261414100,0.2354140625,-2.14577371955961,-0.8563993871927261,1.3971870568320155
1733768029271375000,0.245375,-1.9683193035915494,-1.2746154469132422,1.6080132887870073
1733768029281335000,0.2553349609375,-2.6742852604717013,-1.1844283955097197,1.3077213054403662
1733768029291295000,0.265294921875,-3.2242589838683604,-0.8742068465620279,0.7355425453025847
1733768029301255000,0.2752548828125,-3.952161755007505,-0.6126058283984661,0.36483196779638527
1733768029311215000,0.285215087890625,-4.8102328748047345,-0.41964229313135143,0.7665338228285312
1733768029321176000,0.295176025390625,-5.003273566961288,-0.07002455334067344,2.2911437290027736
1733768029331136000,0.305135986328125,-4.376058198451996,0.7215846740335226,4.412182820278406
1733768029341096200,0.31509619140625,-4.291579295562207,1.8689292472958563,6.91057433822751
1733768029351056100,0.32505615234375,-5.4140591844201085,2.678288650894165,8.945716476508975
1733768029361017000,0.33501708984375,-4.8862090300261976,2.603050162297487,8.854737397944927
1733768029370977300,0.344977294921875,-2.8339056213244795,2.5227076285600663,6.986804175949096
1733768029380937200,0.354937255859375,-1.5057079295665026,2.754171867135167,3.7981826149120925
1733768029390897200,0.364897216796875,0.9009864246770739,2.6879192335486413,0.22874606565758585
1733768029400857000,0.374857177734375,3.4899005095943805,1.597944314715266,-2.131472514745593
1733768029410818000,0.384818115234375,4.208936375927925,-0.8118658334612846,-3.578463466927409
1733768029420778000,0.394778076171875,3.5448230631321667,-2.772340561032295,-4.379492849075794
1733768029430738000,0.404738037109375,1.7159692211151123,-3.217381499314308,-5.812705451273918
1733768029440698000,0.414697998046875,-0.9456029805168509,-2.0575468623131514,-7.505631650453806
1733768029450659000,0.4246591796875,-2.3825778578579424,0.2729775677025318,-8.378349719762802
1733768029460619000,0.434618896484375,-1.4899334373295305,1.8995535181403158,-6.526714721617102
1733768029470579200,0.4445791015625,0.39318098718523975,2.1002152066946027,-1.9460484350726008
1733768029480539100,0.4545390625,1.0113643234550953,1.9222908351272343,1.4532450441405176
1733768029490500000,0.4645,1.043032550394535,1.6184002427667379,3.5394440004423258
1733768029500460000,0.4744599609375,1.2025380526959895,0.8075742737472057,4.5146281724914905
1733768029510420000,0.484419921875,1.0131205194726585,-0.3846230021983385,4.869253803572058
1733768029520380000,0.4943798828125,0.6298375337064266,-1.6097674389779566,5.1272074051439755
1733768029530339800,0.50433984375,0.4562029682874679,-2.292510048919916,5.17673394485712
1733768029540301000,0.514301025390625,0.3761629246279597,-2.1014865418046713,4.4900040188446635
1733768029550261000,0.524260986328125,0.13570961617231367,-1.531360257217288,3.1264541509374975
1733768029560221000,0.534220947265625,-0.198261349414289,-1.2094447633445262,1.4172522320002316
1733768029570181000,0.54418115234375,-0.34889907012730836,-1.2148603586524724,-0.3997337698295712
1733768029580141000,0.55414111328125,-0.022055179941654204,-1.4486024790316818,-2.121796923905611
1733768029590102000,0.56410205078125,0.3141241093441844,-1.8117349494338035,-3.433405007651448
1733768029600062200,0.574062255859375,0.20677724882513285,-2.1983061630904674,-4.188638268786669
1733768029610022100,0.584022216796875,-0.22217355539947747,-2.457776014444232,-4.445278741933405
1733768029619982000,0.593982177734375,-0.6503025218471884,-2.4414853893786668,-4.2224496452346445
1733768029629943000,0.603943115234375,-0.661237757359445,-2.3937901567459106,-3.6914962641283866
1733768029639903000,0.613903076171875,-0.4678104039728641,-2.580840084055066,-3.0120769533902405
1733768029649863000,0.62386279296875,-0.721570937769115,-3.0413036323964593,-2.320942070417106
1733768029659823000,0.633822998046875,-0.8335571485266089,-3.6889129696369167,-1.6344637810781597
1733768029669784000,0.6437841796875,-0.7901803636148571,-4.661752039864659,-0.807749411118403
1733768029679744000,0.653743896484375,-0.8923518673226237,-5.597483322447538,0.03303651961795986
1733768029689704200,0.6637041015625,-0.9161950997248292,-6.297766265255213,1.0016015657883137
1733768029699664100,0.6736640625,-0.6749091398373246,-6.7206900642752645,1.8682056091964243
1733768029709624000,0.6836240234375,-0.036948505429923534,-6.752763949406146,2.1230727890603243
1733768029719585300,0.693585205078125,0.8113526232421397,-6.588273644429445,1.6842513098150491
1733768029729545200,0.703545166015625,-0.3783744631975889,-5.884469541758299,1.5459993156835437
1733768029739505200,0.713505126953125,-7.638118212926387,-1.1451613840043544,3.543130872261524
1733768029749465000,0.723465087890625,-24.624090518462655,12.069619481658934,8.188841877907514
1733768029759426000,0.733426025390625,-33.32797450711727,29.505769503843783,9.889461554199457
1733768029769386000,0.743385986328125,-3.4117046324968334,32.915103315556046,-1.3064675059869886
1733768029779346000,0.753345947265625,8.168900329118967,26.211598194837567,-6.757573395514488
1733768029789306000,0.76330615234375,14.64272108041644,10.235692574161291,-6.701924573528766
1733768029799266000,0.77326611328125,14.988855069744586,-4.293942225301265,-4.377155638299882
1733768029809227000,0.78322705078125,14.28635561993122,-10.591694462031125,-3.7953362855702637
1733768029819187200,0.793187255859375,14.361492401719092,-9.45542891666591,-5.846679032546281
1733768029829147100,0.803147216796875,8.8624355512321,-14.483963766133785,-7.516153044468164
1733768029839107000,0.813107177734375,8.203646648329496,-16.672480356615782,-7.693619735395908
1733768029849068300,0.823068359375,12.746181357139347,-9.55796866916418,-7.400830967286229
1733768029859028200,0.8330283203125,9.723237557297944,-4.554803238752484,-6.42192455984354
1733768029868988200,0.84298828125,6.478979741495848,-1.9902882665544748,-5.019128138697147
1733768029878948000,0.852947998046875,4.368451230579614,0.25626082617938517,-4.444983558379113
1733768029888908000,0.862907958984375,1.45049413799718,4.24872595000267,-4.388789377470315
1733768029898869000,0.872868896484375,-1.575300375100225,5.572254773166775,-2.806328170830011
1733768029908829000,0.882828857421875,-7.862889091342687,5.395745529094338,2.4152900408923625
1733768029918789000,0.8927890625,-15.330695161271095,6.484191923186183,8.07739693441987
1733768029928749000,0.9027490234375,-5.280416437649727,3.9515626200705762,4.932834587600827
1733768029938710000,0.9127099609375,0.9476865087926387,0.2803372828155756,2.9051544557631015
1733768029948670200,0.922670166015625,1.2948710300870239,-0.865552999985218,3.164516170567274
1733768029958630100,0.932630126953125,1.2887528394676744,-0.9621645314782857,3.8997748574271798
1733768029968590000,0.942590087890625,1.0492647227823733,-0.5314847115039825,4.541853448547423
1733768029978550000,0.952550048828125,0.8717447672974318,-0.08269464982151985,4.485975493980944
1733768029988511000,0.962510986328125,0.7984890500158071,0.025073650979995726,3.9359503326579928
1733768029998471000,0.972470947265625,0.4165063331931829,0.0022872341543436047,3.027812867182493
1733768030008430800,0.982430908203125,-0.03547872513830662,0.02935118216872215,1.8806006881281732
1733768030018391000,0.99239111328125,-0.49037064735982566,0.11197335127592087,1.1016647721052168
1733768030028352000,1.00235205078125,-0.8803086705684662,0.35558804637193675,0.6607210400089621
1733768030038312000,1.01231201171875,-0.9931061977088451,0.754907682442665,0.37578126836661246
1733768030048272100,1.022272216796875,-0.90840722232759,1.12551268068254,0.10998597685098647
1733768030058232000,1.032232177734375,-0.7669155156224966,1.4530027598172426,-0.16485384105946868
1733768030068193000,1.042193115234375,-0.7068821949422359,1.7179834835469723,-0.461294811533764
1733768030078153200,1.0521533203125,-0.8580290342211723,1.9543653047800063,-0.8246330336410552
1733768030088113200,1.062113037109375,-0.973423007595539,2.0201351232856513,-1.1186375342160462
1733768030098073000,1.072072998046875,-0.9185796567738056,1.6398235545456408,-1.1695502675905822
1733768030108033300,1.082033203125,-0.7356523623526096,0.998365725672245,-0.9395496718272566
1733768030117994000,1.091993896484375,-0.543199699217081,0.4312292705506086,-0.579121784208715
1733768030127954000,1.101953857421875,-0.18284663040041924,0.04552022668123245,-0.07792641250640153
1733768030137914000,1.1119140625,0.3998047892391681,-0.16763152561187744,0.47216005054973065
1733768030147874000,1.1218740234375,1.0019102664113044,-0.22266367700397968,0.994423125526309
1733768030157835000,1.1318349609375,1.5048954441398381,-0.2603109783530235,1.4089420842945575
1733768030167795200,1.141795166015625,1.731281356537342,-0.3310971637159586,1.6552809436574578
1733768030177755100,1.151755126953125,1.6132839226663112,-0.3486281442314386,1.869183222056925
1733768030187715000,1.161715087890625,1.6059972727894782,-0.48575522598624227,2.0546545018725095
1733768030197674800,1.1716748046875,1.8428420353591441,-0.6475684207081794,2.1843321444042028
1733768030207636000,1.181635986328125,1.7777508467674255,-0.8274754905253648,2.0805616810671985
1733768030217596000,1.191595947265625,1.495930631917715,-1.1224749204218387,1.8476582034692166
1733768030227555800,1.201555908203125,1.3238918112576008,-1.2651719112634658,1.421419873073697
1733768030237516000,1.21151611328125,1.0897370184242725,-1.1760533658742904,0.9991498617872595
1733768030247476700,1.221476806640625,0.9010966070532799,-1.0405459942758082,0.7136472320977598
1733768030257436700,1.231436767578125,0.6568892067611217,-0.8580851483225822,0.4288967359498143
1733768030267396900,1.24139697265625,0.23055881416797636,-0.5014081376701593,0.08714461496770382
1733768030277356800,1.251356689453125,-0.2111678849995136,-0.1354091719210148,-0.2951128271430731
1733768030287317800,1.26131787109375,-0.6980302685100584,0.03897942673563957,-0.6515644315417856
1733768030297278000,1.27127783203125,-1.1514753894567489,0.08972411006689071,-1.091248592031002
1733768030307238000,1.28123779296875,-1.5893990430794656,-0.07153028172850609,-1.4069573402181268
1733768030317197800,1.29119775390625,-1.8742961811564862,-0.5201256976217031,-1.4821958288148045
1733768030327158000,1.301157958984375,-2.0556560801304875,-1.0261959818840025,-1.34051035310328
1733768030337119000,1.311118896484375,-2.3420237291514874,-1.3481833719491958,-1.0188257453769445
1733768030347079000,1.321078857421875,-2.823392702877521,-1.3712573735445737,-0.48017304193973537
1733768030357038800,1.331038818359375,-3.3821348391413686,-0.9374035997092723,0.11919044304788112
1733768030366998800,1.340998779296875,-3.9173543532595034,-0.05488602091968059,0.6852199598409235
1733768030376959700,1.350959716796875,-4.499183058339357,0.9547428570449352,1.3834610215574503
1733768030386920000,1.360919921875,-5.198233829003573,1.8440011422663927,2.383894931805879
1733768030396880000,1.3708798828125,-5.909430964535474,2.7203292187660932,3.3590181674480437
1733768030406839800,1.38083984375,-7.0389610641658305,3.481787638026476,4.383375827988982
1733768030416801000,1.390801025390625,-8.848644341766834,4.1229169655978675,5.453868632239103
1733768030426761000,1.400760986328125,-12.383436424750089,4.996134216600656,6.791481510335206
1733768030436721000,1.410720947265625,-15.14793387106657,6.30414807524681,7.284276717960834
1733768030446680800,1.420680908203125,-14.747559757506847,6.5833741819500915,5.881905828750133
1733768030456641000,1.43064111328125,-12.130532507783174,4.978822431793809,3.4671775133937595
1733768030466601700,1.440601806640625,-8.125008580422401,3.490632623261213,0.8654679520502686
1733768030476561700,1.450561767578125,-4.392590815579891,2.3700842869877814,-0.8813703084506094
1733768030486521900,1.46052197265625,-1.7385574850201606,2.3077169704020024,-2.4939424295857546
1733768030496481800,1.470481689453125,0.33992987399101254,3.03113821221292,-3.7135187108442187
1733768030506442800,1.48044287109375,2.1801906606853008,3.143900083518028,-4.575333985605836
1733768030516403000,1.49040283203125,3.2908594079792497,2.3469185154557226,-5.334506339755654
1733768030526363000,1.50036279296875,3.905182561689615,1.860440235891938,-5.798587494072318
1733768030536322800,1.51032275390625,4.549857599043846,2.075252030351758,-6.0430076603323215
1733768030546284000,1.520283935546875,5.042226105690002,2.870232779985666,-5.938726032602787
1733768030556244000,1.530243896484375,4.903481651866436,3.691784725680947,-5.54716183296442
1733768030566204000,1.540203857421875,4.724257595877349,4.5057109988033766,-5.346479101622104
1733768030576163800,1.550163818359375,4.290666272370517,4.657503150248528,-4.93922516542077
1733768030586124800,1.560124755859375,3.9541444532573222,3.0627304513067006,-3.7036341534286734
1733768030596084700,1.570084716796875,4.010951213106512,1.6640601701796054,-2.545542852963507
1733768030606044700,1.580044677734375,4.647915822213888,0.9749760822564363,-2.05687334696576
1733768030616004900,1.5900048828125,5.435384296521544,0.18324995050430296,-1.8517562864378094
1733768030625964800,1.59996484375,5.817582701921463,-0.6998357835620641,-1.3791628859721123
1733768030635925800,1.60992578125,6.5015896327108145,-1.3534779712259768,-1.0965345696099102
1733768030645886000,1.619885986328125,7.198348493045568,-1.9671371080696582,-0.9614431584011762
1733768030655846000,1.629845947265625,7.811624183529615,-2.4323013814479113,-1.0138424770716576
1733768030665805800,1.639805908203125,8.353384789854287,-2.4541870500415564,-1.2887141148924828
1733768030675767000,1.64976708984375,8.481142570239305,-2.6054250747352836,-1.2236216111265121
1733768030685727000,1.65972705078125,7.802256635725498,-3.328780265572667,-1.0110663634218275
1733768030695687000,1.66968701171875,7.187380524307489,-4.009215767616033,-1.3150912496864795
1733768030705646800,1.679646728515625,6.504266158443689,-4.901021983754634,-1.5536018996417522
1733768030715607800,1.68960791015625,6.279138721674681,-5.5773810301393265,-0.9135393245190382
1733768030725567700,1.699567626953125,6.166997612616419,-5.211685431250929,-0.10131605592221021
1733768030735527700,1.709527587890625,4.837648120474815,-4.508852219438553,0.2792286639865488
1733768030745488000,1.71948779296875,3.136123019775748,-4.118801931494474,0.031026166176237165
1733768030755448800,1.72944873046875,2.7083067725390193,-3.1702631897866724,0.011650982566177845
1733768030765408800,1.73940869140625,2.9024031112283466,-2.3172651354700324,0.6547697303891181
1733768030775369000,1.749368896484375,3.9070243901640174,-1.8264087869524954,1.574236691391468
1733768030785329000,1.759328857421875,4.730604626816511,-2.9318577537715433,2.028313169044256
1733768030795289900,1.769289794921875,4.889917236894369,-4.105942449921369,0.9677323947384953
1733768030805250000,1.77925,4.245709232529998,-3.0911516591489314,-0.38013069574777036
1733768030815210000,1.7892099609375,3.68730378087461,-1.3937316556811332,-1.0139800589114427
1733768030825170000,1.799169921875,3.585630874338746,1.8051590781748295,-1.5917518898159264
1733768030835129900,1.8091298828125,3.454365378093719,4.929361358532309,-2.3918644493803383
1733768030845090800,1.8190908203125,2.64825240907073,6.073446053215861,-1.9834546211421489
1733768030855050800,1.82905078125,0.6075812782347202,6.294608678007125,-0.45053398274034256
1733768030865011000,1.839010986328125,-1.6921429398477077,4.772825227430462,1.559707815301418
1733768030874971000,1.848970947265625,-2.377306639456749,4.163751080289483,2.904011423207819
1733768030884931800,1.858931884765625,-3.874553906930983,4.6817912038087846,3.7949694980844852
1733768030894892000,1.86889208984375,-5.731641033002734,5.381532879346609,3.3138536223366857
1733768030904852000,1.87885205078125,-10.244805270421505,5.980252805733681,2.1562577041730284
1733768030914812000,1.88881201171875,-18.825701177310943,5.288251369059085,-0.6576484276305884
1733768030924772900,1.89877294921875,-15.566844342792033,2.3684657458752394,-1.2956231636285782
1733768030934732800,1.90873291015625,-7.652258966481686,1.0879004506468772,-0.10918722768872975
1733768030944692700,1.918692626953125,-4.666473223167658,1.1713602396219969,-0.28904315184056756
1733768030954652700,1.928652587890625,-3.4702456687927246,0.3458399748176336,-0.2759244348093867
1733768030964614000,1.93861376953125,-1.9867456255115568,-1.0470955620497464,-0.16392050573211162
1733768030974573800,1.94857373046875,0.1775740968249738,-1.1840075397491454,-0.3642228959873318
1733768030984533800,1.95853369140625,2.57525614644289,-0.32062486954033376,-0.9389365083649754
1733768030994494000,1.968493896484375,4.1409447897195815,0.7696049008369445,-1.8953391153156756
1733768031004455000,1.978454833984375,4.036441628193855,-0.11671616188883781,-1.5302975964218377
1733768031014414800,1.988414794921875,3.7351661867678163,-0.7321943308532237,-0.9861389890447259
1733768031024375000,1.998375,3.8433413148045537,0.28144787440598007,-1.3466259133741258
1733768031034335000,2.0083349609375,1.7140332846164703,0.8617039233416318,-1.1742698434583843
1733768031044295700,2.018295654296875,-0.6862658156320453,1.0657318734586239,-0.7205776158828288
1733768031054255900,2.028255859375,-3.007788608546555,1.0329957250267268,0.10812770869843662
1733768031064215800,2.0382158203125,-4.48921812916398,0.5609960526704788,0.9075302933625876
1733768031074175700,2.04817578125,-4.545807154609263,0.39820203021764755,1.658736052547395
1733768031084135700,2.0581357421875,-4.154891482007503,0.624234306871891,2.348032760307938
1733768031094097000,2.068096923828125,-3.799385853222012,0.7965110279411077,3.079669895669818
1733768031104056800,2.078056884765625,-3.2099490112259983,1.086699842685461,3.5020454131573437
1733768031114016800,2.088016845703125,-2.378425706614554,1.3071645483404397,3.702702425536513
1733768031123978000,2.09797802734375,-1.5979618503719568,1.6356354552060364,3.9217490810871123
1733768031133938000,2.10793798828125,-0.8760898838296532,2.552294373050332,4.018672747269273
1733768031143897900,2.11789794921875,-0.18062164782732723,3.86736984064579,4.1287753362372515
1733768031153858000,2.127858154296875,0.1936903882369399,4.740781737437844,4.3715027271047235
1733768031163818000,2.13781787109375,0.7633654219254851,4.378976131725311,4.436648568493127
1733768031173778700,2.14777880859375,0.13606471322029828,3.646680094063282,3.6304961442425845
1733768031183739000,2.15773876953125,-0.9985656321585178,2.876386041918397,1.8760209591224788
1733768031193698800,2.16769873046875,-2.0906723023235796,2.656767723959684,-0.6031770519264043
1733768031203659500,2.177659423828125,-4.038663688157499,2.6747680755525827,-3.194896988044679
1733768031213620500,2.187620361328125,-6.425659654718637,2.270139227157831,-5.231760835552215
1733768031223580700,2.19758056640625,-9.032937079322338,1.7483178315341472,-6.692898386508226
1733768031233540600,2.20754052734375,-10.36251511952281,1.5227508343040943,-7.051908224022388
1733768031243500500,2.21750048828125,-9.470110352969169,1.6062708290338514,-5.9934688456594944
1733768031253461500,2.22746142578125,-5.9296612671375275,2.292892326235771,-4.774776361498237
1733768031263421400,2.23742138671875,-3.047257864625752,2.7543197511732576,-4.100813270339369
1733768031273381400,2.24738134765625,-1.5457916642822325,2.4547423458367583,-3.414162254782021
1733768031283341300,2.25734130859375,-0.7702468520022928,2.0825375111848117,-2.6920637860074637
1733768031293302500,2.267302490234375,-0.10735343639031052,1.9974767167538403,-1.966290720373392
1733768031303262500,2.277262451171875,0.6962859090607613,2.0280589020222424,-1.4423305591553448
1733768031313222400,2.287222412109375,1.0771955167591571,1.9791040247172116,-0.878321734534949
1733768031323182600,2.2971826171875,1.4641718040853737,1.795579348924756,-0.5024303203247488
1733768031333143600,2.3071435546875,2.165630220413208,1.9582038600295781,-0.5498270814675837
1733768031343103500,2.317103515625,3.0274224065601825,2.00987910220921,-0.7950672588735819
1733768031353063700,2.327063720703125,3.8508144271641966,2.0655992358654736,-1.5134901078753173
1733768031363023600,2.337023681640625,4.317136053884029,1.9184563715308904,-1.957031016857922
1733768031372984300,2.346984375,4.779206452900171,1.5773825882017611,-2.293637737775594
1733768031382944500,2.356944580078125,5.189405794903636,0.5783820717573166,-2.02678610560745
1733768031392904400,2.366904541015625,5.164983301308751,-0.6977338428467512,-1.4753803035810589
1733768031402864400,2.376864501953125,5.0573167073160405,-1.2944675638526677,-1.4709076882116496
1733768031412825600,2.38682568359375,4.750218258824944,-1.9842904874444007,-1.4778193672962485
1733768031422785500,2.39678564453125,4.336926796025038,-2.1776269476771355,-1.5775994458228348
1733768031432745500,2.406745361328125,3.961996920323372,-2.204634781590104,-1.635045088097453
1733768031442705400,2.416705322265625,3.9029678082495924,-1.9905828655868767,-1.8388412752851844
1733768031452666600,2.42666650390625,3.5193683038800954,-1.5912737509101629,-2.104221958117932
1733768031462626600,2.43662646484375,2.5164737026065587,-1.3375596866041422,-2.309115292892605
1733768031472586500,2.44658642578125,1.7012240719258784,-1.3907090929895638,-2.370763501423597
1733768031482546700,2.456546630859375,1.2916517757795751,-0.9423317037612199,-2.6366642626076935
1733768031492507400,2.46650732421875,0.8178868473164737,-0.4858645315796137,-2.8250328712999817
1733768031502467300,2.47646728515625,0.1244242520481348,-0.38364801968634127,-2.9045091435968873
1733768031512427500,2.486427490234375,-0.45826180051341653,-0.5332271712571383,-2.909146740269661
1733768031522387500,2.496387451171875,-0.7091320196956395,-0.8428063306480645,-2.8794281860932704
1733768031532348400,2.506348388671875,-0.5485835842125117,-1.0305576842248438,-2.8408932882547377
1733768031542308600,2.51630859375,0.4676097668342292,-1.189875554999709,-2.742862245352566
1733768031552268500,2.5262685546875,1.7359695143535732,-1.4991560237050054,-2.3111926836885512
1733768031562228500,2.536228515625,2.666414088705182,-1.8099796301990747,-1.7935851063676178
1733768031572189700,2.546189697265625,3.211746708297729,-2.0950293284893036,-1.2879523367397487
1733768031582149600,2.556149658203125,3.4605452357724307,-2.479379943487048,-0.841550850694254
1733768031592109600,2.566109619140625,3.3911861606031652,-2.9165251600831748,-0.44432519122809166
1733768031602069500,2.576069580078125,3.3296161318749187,-3.2383658351540565,-0.25074863862916824
1733768031612030500,2.586030517578125,3.219531955346465,-3.414945221853256,-0.2241025141680613
1733768031621990400,2.595990478515625,2.990703325971961,-3.220367237126827,-0.2127371253439225
1733768031631950300,2.605950439453125,2.870872831454873,-2.705791574847698,-0.2713777678230777
1733768031641910500,2.61591064453125,2.4892881740391255,-2.3577508751153946,-0.1913048082746565
1733768031651871500,2.62587158203125,1.7927093464463948,-2.1399252857923505,-0.04312548616495915
1733768031661831400,2.63583154296875,0.8753497329868376,-1.6167051292866468,0.21443331653624773
1733768031671791600,2.64579150390625,-0.6166663558356463,-0.5978975040882826,0.8938925939586013
1733768031681751600,2.65575146484375,-2.4971540851086376,0.34174832158982754,1.8039967563971877
1733768031691712300,2.665712158203125,-3.4794998193502424,0.3984288247108459,2.2984217571817336
1733768031701672400,2.67567236328125,-3.133389210897684,-0.3972627035409212,2.121502909395099
1733768031711632400,2.68563232421875,-2.0775369264185426,-1.2844722395390271,1.4003865835256875
1733768031721592300,2.69559228515625,-1.238936230766773,-1.704784979277849,0.672125646598637
1733768031731553500,2.705553466796875,-0.8461374478321522,-1.6945763044744728,0.3259280174497515
1733768031741513500,2.715513427734375,-0.8645720261238515,-1.2900053237468003,0.2168958707248792
1733768031751473400,2.725473388671875,-1.761119445440173,-0.3115688719034195,0.5588234578717499
1733768031761433600,2.73543359375,-2.847203202053904,0.931907924902439,0.5304723561236635
1733768031771394600,2.74539453125,-2.657894682163,1.2292039413034914,-1.1017560305852443
1733768031781354500,2.7553544921875,-1.6082511891961098,0.920527868232131,-2.467778060759604
1733768031791314700,2.765314697265625,-0.8326981936097144,1.3096446747183799,-3.579621404790878
1733768031801274600,2.775274658203125,-1.2722832045733927,2.2707202419161794,-4.989585233348608
1733768031811235300,2.7852353515625,-3.1411259426295755,3.625716801011562,-6.974070951104164
1733768031821195500,2.795195556640625,-2.348138997161388,3.9799610315591094,-7.539026555055379
1733768031831155500,2.805155517578125,-0.20609776039468122,2.0529460905194283,-5.988132160806655
1733768031841115400,2.815115478515625,0.40675007833242416,0.17274141597151754,-4.2637391024783255
1733768031851076600,2.82507666015625,0.22453239348530768,-1.1181225704312323,-2.750411930079758
1733768031861036500,2.83503662109375,0.33693595287203787,-1.6980717453747987,-1.542084188066423
1733768031870996500,2.84499658203125,1.2134721191644668,-0.9408785823434591,-0.7207444968823343
1733768031880956400,2.854956298828125,2.2881752345860003,0.3353577437698841,0.10473550897687672
1733768031890917600,2.864917724609375,3.3993887562811373,1.8090578391790388,1.605853042013198
1733768031900877600,2.874877685546875,5.181829222169518,3.838147253292799,4.061835012647509
1733768031910837500,2.88483740234375,5.365294276729226,4.936308985713124,6.24128040792346
1733768031920797700,2.894797607421875,4.549115840765833,4.3135663787037135,6.336435895389318
1733768031930758400,2.90475830078125,3.8866824438810346,2.6826252187937496,5.818256655660272
1733768031940718300,2.91471826171875,3.6504946839153765,0.7576800697654485,5.205706941363215
1733768031950678500,2.924678466796875,2.730022345262766,-1.1010890180438757,4.763613746970892
1733768031960638500,2.934638427734375,0.9842179578542709,-1.935467712086439,4.746538693529367
1733768031970599400,2.944599365234375,-0.292260871778056,-2.2832482995778323,4.570498236012458
1733768031980559600,2.9545595703125,-0.7212439708370715,-2.3281512711435557,4.097998797440528
1733768031990519600,2.96451953125,-0.9109949737984686,-1.9956138454914092,3.7657933802217243
1733768032000479500,2.9744794921875,-1.047113755293563,-1.231525077727437,3.277671717365086
1733768032010440700,2.984440673828125,-1.2061724636755884,-0.45040100401043887,2.4143130125537513
1733768032020400600,2.994400634765625,-1.2817711638867855,0.010409165811538695,1.4603161515705287
1733768032030360600,3.004360595703125,-1.3030736257649957,0.1829687954753637,0.7321119132667779
1733768032040320500,3.014320556640625,-1.6533659038163722,-0.08251169447004794,0.08744385364260523
1733768032050281500,3.024281494140625,-2.1995465185403824,-0.5093021057903766,-0.10220971682630478
1733768032060241400,3.034241455078125,-2.1697430625595153,0.21303660148084164,-1.2666149496786296
1733768032070201300,3.044201416015625,-2.173998235785961,0.3259282366454601,-1.87485337664783
1733768032080161500,3.05416162109375,-2.3092086702644825,0.42699382493793964,-1.9570121660269795
1733768032090122500,3.06412255859375,-2.301909453167021,0.3615168518990278,-2.0535599846340715
1733768032100082400,3.07408251953125,-2.209322501014918,0.049642275047302245,-2.3169965476617214
1733768032110042600,3.084042724609375,-2.107636734997481,-0.040543022790551185,-2.357290564127266
1733768032120002600,3.09400244140625,-2.3462783178560436,-0.1347416479229927,-2.159267991904914
1733768032129963500,3.103963623046875,-2.5472142933070656,-0.3178314394295215,-1.7519450821205973
1733768032139923500,3.11392333984375,-2.307579315496981,-0.45724224820733067,-1.2425064904689789
1733768032149883400,3.12388330078125,-1.9727584550827741,-0.5604594615757466,-1.1755137060396372
1733768032159843300,3.13384326171875,-1.982850225508213,-0.06985971816778183,-1.7458185620643198
1733768032169804500,3.143804443359375,-2.2536197617724536,0.5318886161297559,-2.201838428869843
1733768032179764500,3.153764404296875,-2.470478259629011,0.633009149479866,-2.4147154558748007
1733768032189724400,3.163724365234375,-2.738839565707743,0.5208382298052311,-2.28318663251847
1733768032199683600,3.17368359375,-3.4074475595742464,0.6421855586260556,-1.7609025878190994
1733768032209644800,3.183644775390625,-3.976772172389924,0.6041027884691953,-0.769709384124726
1733768032219604700,3.193604736328125,-3.918405615878105,0.4174526741325855,0.3554324174188077
1733768032229564700,3.203564697265625,-3.3925925202697513,0.2915571804881096,1.1357568651907146
1733768032239524900,3.21352490234375,-2.781895448102057,0.150313895586133,1.6626460655979811
1733768032249485800,3.22348583984375,-2.2692449086666104,0.13810790948569773,2.1175784294277427
1733768032259445800,3.23344580078125,-1.8875199659973383,0.19684476061463355,2.5572598865032194
1733768032269406000,3.243406005859375,-1.591191041062772,0.28662089312970634,2.9587627118319273
1733768032279366000,3.253365966796875,-1.1792930784478783,0.4519318668395281,3.2046424292504785
1733768032289326600,3.26332666015625,-0.530129789763689,0.35976854692697524,3.445829604938626
1733768032299286800,3.273286865234375,0.675797905370593,0.23233751427829263,3.750966982489824
1733768032309246700,3.283246826171875,1.850104427577555,1.0041869791716336,4.187379793158173
1733768032319206700,3.29320654296875,3.295203866924345,2.712130714741349,4.6605359420731665
1733768032329168000,3.30316796875,5.471590166890621,5.5659366760611535,5.099476517653465
1733768032339127800,3.3131279296875,7.312011112582683,8.082187675827742,5.595238758391141
1733768032349087700,3.323087646484375,8.290664422047138,8.3616814935565,4.7039635803893205
1733768032359047700,3.333047607421875,7.948312289345264,5.7476493339955805,1.4949536035791038
1733768032369009000,3.3430087890625,5.723971521288156,2.007677792772651,-2.479827102732658
1733768032378968800,3.35296875,0.7124108952358364,-0.5153203431665897,-6.220611713904142
1733768032388928800,3.3629287109375,-9.932630833840369,-0.8360738075226545,-11.518739164811372
1733768032398888700,3.372888671875,-8.167185341894626,2.5641660126298667,-14.905962851524352
1733768032408849700,3.382849609375,-8.25779792523384,2.263994733053446,-11.627450883942842
1733768032418809600,3.3928095703125,-13.043138350844382,0.9668266780704259,-6.262249546194076
1733768032428769800,3.402769775390625,-17.906975390064716,1.0754513034403324,-2.039602332560718
1733768032438730800,3.412730712890625,-14.574022222721576,0.9390437681317328,1.291462536817789
1733768032448690700,3.422690673828125,-8.475738080847263,1.960244425946474,1.4367432605423032
1733768032458651000,3.43265087890625,-4.875243691636622,3.131316496276855,0.7962542767010629
1733768032468610800,3.44261083984375,-2.437624914558232,2.733477454152703,0.7692651474885642
1733768032478571800,3.45257177734375,-0.2599744398750365,1.7756705333620308,0.8792350499875843
1733768032488531700,3.46253173828125,1.024230380899459,1.2728735716819763,1.143635343480855
1733768032498491600,3.47249169921875,1.4632488440215587,1.4219015191107987,1.9221553721792994
1733768032508451600,3.48245166015625,1.1436721683599054,1.8421517150074243,3.1517730088502165
1733768032518412800,3.492412841796875,0.4835851884707808,1.960891491678357,4.095324025273323
1733768032528372700,3.502372802734375,0.369382689903304,1.6606453933000564,4.4542952843427654
1733768032538332700,3.512332763671875,0.7956897016208618,1.089698439979553,4.023719509264827
1733768032548292600,3.522292724609375,1.0780956074040382,0.7382885560750961,2.975181931713223
1733768032558253800,3.53225390625,1.3313620010077953,0.4286164577037096,1.8760662595689295
1733768032568213800,3.5422138671875,1.8506874881625175,0.45539223642647264,1.060306341278553
1733768032578173700,3.552173583984375,2.3234815257668493,0.7944529263675212,0.10734393790960312
1733768032588134000,3.5621337890625,2.7641315356135365,1.385818982860446,-0.8015602741546929
1733768032598094600,3.572094482421875,3.0306910529673097,1.5775538531154394,-1.203118044541031
1733768032608054500,3.582054443359375,3.44988735589683,1.3657991081386804,-1.5267666458167135
1733768032618014700,3.5920146484375,3.6779490925520655,1.1008429343283175,-1.8766862911634146
1733768032627974700,3.601974609375,3.794396374371648,0.8082219240009785,-2.1515600478760897
1733768032637935600,3.611935546875,3.4381636003553866,0.4396452167183161,-2.0034800488218663
1733768032647895800,3.621895751953125,3.2293671206623316,0.15592881285846233,-1.8958473570987582
1733768032657855700,3.631855712890625,2.9236557426154612,-0.6920102045029402,-1.7778528458371758
1733768032667815700,3.641815673828125,1.8043676355361937,-1.5221160435318946,-1.1744739877283572
1733768032677777000,3.65177685546875,1.0834914020329713,-2.15814717118144,-0.44948491207882757
1733768032687736800,3.66173681640625,0.22773964682770892,-2.8139941754132507,0.17286029311083256
1733768032697696800,3.67169677734375,-0.8960486760139464,-2.526818571010232,0.36586474491022525
1733768032707656700,3.68165673828125,-3.605189561289549,-1.3791893355876206,-0.7120081596538425
1733768032717617700,3.69161767578125,-9.412586384761333,-0.14379180034101008,-2.9340707536458965
1733768032727577600,3.70157763671875,-9.49025180824399,0.6203472363054752,-4.368270321054756
1733768032737537500,3.71153759765625,-3.5716590476095673,0.3090045743733644,-3.85611457939893
1733768032747497700,3.721497802734375,0.6196775203503668,0.10555237831771373,-3.618921441783011
1733768032757458700,3.731458740234375,3.0812440131187437,0.02492401337623596,-3.3666388715848323
1733768032767418600,3.741418701171875,4.656501279729604,-0.35268121901452537,-3.136531600576639
1733768032777378800,3.75137890625,5.694313465127348,-0.8663888662874698,-2.8777225512191653
1733768032787338800,3.7613388671875,6.3123752208441495,-1.4133657459557056,-2.5279344232976437
1733768032797299700,3.7712998046875,6.418814318868518,-2.058055980879068,-2.155952583746612
1733768032807260000,3.781260009765625,6.00088116774261,-2.7977970738500355,-1.7959563655436037
1733768032817219800,3.7912197265625,5.323942275643349,-3.2620787191748617,-1.6134534340143203
1733768032827179800,3.8011796875,4.578604970100522,-3.4289088652759787,-1.5843649944350122
1733768032837140700,3.811140625,3.666778879240155,-3.4215935738265513,-1.4940341506466268
1733768032847100700,3.8211005859375,2.7550772915422916,-3.304318609011173,-1.28593091391474
1733768032857060600,3.831060546875,2.037241156387329,-3.2574072202324866,-1.0023594714835287
1733768032867021800,3.841021728515625,1.562451561051607,-3.184357766112685,-0.6328273631721735
1733768032876981800,3.850981689453125,1.2866764715850352,-3.138685563740134,-0.24493659134954213
1733768032886941700,3.860941650390625,0.8967945259451866,-3.0732676274120805,0.11336685146093368
1733768032896902000,3.87090185546875,0.14586751063652337,-2.7231822701096533,0.42014644326120615
1733768032906862800,3.88086279296875,-1.449098153594136,-1.881449706172943,0.810826261280477
1733768032916822800,3.89082275390625,-5.926080486041307,0.10730769755244254,2.1655793670088053
1733768032926782700,3.90078271484375,-11.581754131650923,3.6283769601315257,3.189846718917787
1733768032936742700,3.91074267578125,-12.112013685274123,5.050083248931169,1.6191007922515273
1733768032946703600,3.92070361328125,-10.193373189347982,3.3301240813970563,0.7279732060268521
1733768032956663800,3.930663818359375,-7.947354842489958,0.5579004247426986,0.4962231362476945
1733768032966623700,3.940623779296875,-5.707461115992069,-2.8555472520291802,0.25558192227082327
1733768032976583700,3.950583740234375,-4.873210432243347,-5.693319777914882,0.2191439784452319
1733768032986545000,3.960544921875,-5.486768446800112,-5.5815387343406675,0.2137581937536597
1733768032996504800,3.9705048828125,-5.327600798150897,-0.8369827390611171,0.03813188826190308
1733768033006464800,3.98046484375,0.8596709562093019,2.9428906044393774,-1.692960978232324
1733768033016424700,3.9904248046875,5.990593582484125,6.276050108009576,-4.178945726811886
1733768033026385700,4.0003857421875,7.729131778281927,8.515337685307859,-5.934269053193926
1733768033036345600,4.010345703125,9.575713000169396,8.739049994581936,-6.430519369709492
1733768033046305500,4.020305419921875,8.741746394059062,5.78912759180963,-5.423535453295707
1733768033056265700,4.030265625,6.502429590666294,1.5409961005687713,-4.662693412367999
1733768033066226700,4.040226806640625,4.997471018162369,-0.464832264944911,-4.971292036288976
1733768033076186600,4.0501865234375,3.9396845507502554,-1.848756227838993,-4.821276246866583
1733768033086146800,4.060146728515625,3.7018683127999306,-3.475888058593869,-3.6168028421938416
1733768033096106800,4.070106689453125,4.102131367200613,-3.9701358031153675,-2.633427180382609
1733768033106067700,4.080067626953125,5.008775671508908,-2.4524235475003717,-2.22112823575139
1733768033116028000,4.09002783203125,5.68452038538754,-0.7410130126029253,-1.6308222097054124
1733768033125987800,4.09998779296875,5.782311482053995,0.4692874907881021,-0.74173139000535
1733768033135947800,4.10994775390625,5.616971282249689,0.8548100721746683,0.16389774591103196
1733768033145908700,4.11990869140625,5.355746111661196,1.0724486144930123,1.1686254078306257
1733768033155868700,4.12986865234375,4.9982156990498305,1.6028987222522497,2.200356081357598
1733768033165828600,4.13982861328125,4.337870798876882,1.3306009535074232,2.8947420750811697
1733768033175789800,4.149789794921875,3.457651560157537,0.8728858270913362,2.994186491912603
1733768033185749800,4.159749755859375,2.341052838292718,0.0020890812337398526,3.159819537183642
1733768033195709700,4.169709716796875,0.6394429819196462,-0.7049865904539823,3.2440801211476322
1733768033205669600,4.179669677734375,-0.7352770992994309,-0.289799523165822,3.1969004368215796
1733768033215630600,4.189630615234375,-1.6165782880365847,0.358519423648715,3.2795635224610566
1733768033225590500,4.199590576171875,-2.4423674329102036,0.598868394947052,3.3330916990309953
1733768033235550700,4.20955078125,-3.0327485700190064,0.4780231704294681,3.3202976839095353
1733768033245510700,4.2195107421875,-3.4591152029693126,0.2336988657593727,3.179913061663508
1733768033255471400,4.229471435546875,-3.798199858307838,0.20288404077887534,2.7362895889639853
1733768033265431600,4.239431640625,-4.038324957722425,0.05283259552121162,2.2981220435827967
1733768033275391500,4.2493916015625,-3.9845372534334658,0.0038385552495718,2.0166025652453303
1733768033285351400,4.259351318359375,-3.843600842523575,0.14049217427372931,1.938319302125275
1733768033295312600,4.269312744140625,-3.7179391576349734,0.02809036845266819,1.792046790884435
1733768033305272600,4.2792724609375,-3.3549978258907793,-0.13670388790667057,1.55146079595983
1733768033315232500,4.289232421875,-2.744890244048834,-0.2582370946884155,1.4374313889369368
1733768033325192700,4.299192626953125,-2.0013538504481314,-0.188415954965353,1.3090923015326261
1733768033335153700,4.309153564453125,-1.357383892623335,-0.007026537635922431,1.0502026612196118
1733768033345113600,4.319113525390625,-0.8281015134692191,-0.2601537419646978,0.9057125764161348
1733768033355073800,4.32907373046875,-0.2708056304909289,-0.8387333821207285,0.8454072338614612
1733768033365033700,4.33903369140625,0.32206308564990754,-1.3370049753308295,0.5118198607649654
1733768033374994400,4.348994384765625,0.6571219926036894,-1.6773066052436827,0.47060193438753484
1733768033384954600,4.35895458984375,0.6024867315746844,-1.3164414952516554,0.25230200555101034
1733768033394914600,4.36891455078125,0.7401894212603568,-0.6765244660794735,-0.7322440152138471
1733768033404874500,4.37887451171875,1.0312988579809665,-0.600973842793703,-1.77779819304049
1733768033414835700,4.388835693359375,0.7397010532215237,-0.5196060576617717,-2.206994934850186
1733768033424795600,4.398795654296875,0.7342854579135775,-0.7051642851084471,-2.122818960429728
1733768033434755600,4.408755615234375,0.6872117181800306,-0.6451654512196778,-2.2738918576896188
1733768033444716800,4.418716796875,1.0641773374930024,-0.36798867826163767,-2.4631506932199
1733768033454676700,4.4286767578125,0.6988239761710167,0.06853986774086952,-1.389339850462973
1733768033464636700,4.43863671875,-1.2824854496359825,1.5456512328982352,0.018860475553572176
1733768033474596600,4.4485966796875,-2.58688433265537,3.512971880841255,1.1698368294470012
1733768033484557600,4.4585576171875,-3.0491853255569934,5.184303503328562,2.542252871507406
1733768033494517500,4.468517578125,-3.241359756273031,6.902581001386046,3.9873777375563977
1733768033504477400,4.4784775390625,-3.1690769026115535,9.250276346433163,5.324545502233505
1733768033514437600,4.488437744140625,-3.012808482535183,11.19314995086193,6.665127751529217
1733768033524398600,4.498398681640625,-2.4575714317828417,10.179413637578486,7.276746906977891
1733768033534358500,4.508358642578125,-1.521516616334021,5.048745862847566,5.652402076593041
1733768033544318700,4.518318603515625,-1.0932453188061713,0.13742869504988192,2.763696359066665
1733768033554278700,4.528278564453125,-1.089219424290955,-1.4485171388357876,0.04766315699405968
1733768033564239600,4.538239501953125,-4.164563273455203,-1.076155067795515,-2.888525100262463
1733768033574199600,4.548199462890625,-5.255093195822835,0.5116244112581014,-5.3564188963562245
1733768033584159500,4.558159423828125,-4.765316166974604,2.035105897924304,-6.4675792265594
1733768033594119400,4.568119384765625,-5.242277553391457,1.7246423569142817,-5.711561537048221
1733768033604080600,4.57808056640625,-6.309340967714786,0.822570182827115,-4.471340234906971
1733768033614040600,4.58804052734375,-7.03394469730854,-0.25716741963028905,-3.137439947593212
1733768033624000500,4.59800048828125,-6.924256826621294,-0.6515460921674966,-2.123260858978331
1733768033633960400,4.60796044921875,-5.677267053258419,-0.1618026733279228,-1.304373748578131
1733768033643921700,4.617921630859375,-3.5702597022056577,0.9705278706759214,-1.0688461330216377
1733768033653881600,4.627881591796875,-1.971474406621605,1.8989011917114256,-1.0966825267132372
1733768033663841500,4.637841552734375,-0.7318038702309131,2.158728185939789,-0.8205553358733654
1733768033673802500,4.647802490234375,0.405405677986145,2.017598882806301,-0.5585372613415122
1733768033683762400,4.657762451171875,1.348425364011526,2.019230867922306,-0.26178718838542697
1733768033693722400,4.667722412109375,2.477649174171686,1.7439438542336225,-0.23057357334569095
1733768033703682600,4.6776826171875,3.964558879765868,1.7668775705754756,-0.4414426215291023
1733768033713643500,4.6876435546875,5.214900886166095,1.895959293040633,-0.2105770794995129
1733768033723603500,4.697603515625,5.443067836761474,1.4891209519028663,-0.045021629509329794
1733768033733563600,4.707563720703125,4.801415362098813,1.1211737746953963,0.3136228818237781
1733768033743523600,4.717523681640625,4.348879684147239,0.49387657312154765,0.5990832067415118
1733768033753484500,4.727484619140625,4.091475533151626,0.008282090654969215,1.2612934623949228
1733768033763444700,4.73744482421875,3.958566945874691,-0.6883534355610609,1.755300091636926
1733768033773404700,4.74740478515625,3.6335154920637605,-1.5258137290060518,2.0663408480130134
1733768033783364600,4.757364501953125,3.5354455784559247,-2.209717199420929,1.9288116151981054
1733768033793325600,4.76732568359375,3.3746664029568434,-2.416548516520858,2.180470062148571
1733768033803285500,4.777285400390625,3.579004734197259,-2.0814257505506277,2.833744001021981
1733768033813245400,4.787245361328125,3.57502998534739,-1.5857693082749842,3.400013610181212
1733768033823205400,4.797205322265625,3.1543501658618447,-0.9135141900777817,3.818668938101828
1733768033833166600,4.80716650390625,2.7652859663456675,-0.46441783892512317,3.940293914820254
1733768033843126500,4.81712646484375,2.596986916735768,-0.15437106202244757,3.6691637285500764
1733768033853086500,4.82708642578125,2.06431913292706,0.2783943320542574,3.099966249245405
1733768033863046700,4.837046630859375,1.527307182434201,0.6463169593423604,2.345060612629354
1733768033873007600,4.847007568359375,0.9698099316649138,0.5295008442103862,1.4449875034049153
1733768033882967600,4.856967529296875,0.667288874091953,0.06879705737233162,0.5510424486067146
1733768033892927700,4.866927734375,0.6303513284474611,-0.23902970539331433,-0.4023252476274967
1733768033902887700,4.8768876953125,0.5634925456613302,-0.5603729523360729,-1.1923401915475726
1733768033912848400,4.886848388671875,0.6424361723862588,-0.7899234662443398,-1.7788254902616143
1733768033922808600,4.89680859375,0.8931446251355111,-1.2029244216650723,-2.074451819884777
1733768033932768500,4.9067685546875,1.2225723943345248,-1.712510020571947,-2.010521199505031
1733768033942729500,4.9167294921875,1.3940076961435377,-2.0725836879253388,-1.5555071487411856
1733768033952689700,4.926689697265625,1.274448273652792,-2.1960364645928143,-1.1551517398819326
1733768033962649600,4.936649658203125,1.4518028825081883,-2.2119173398137093,-0.893306099307537
1733768033972609500,4.946609619140625,1.522966669011861,-2.04770176012516,-0.7423845932170748
1733768033982570800,4.95657080078125,1.2462731495261192,-1.7691735725581645,-0.8178925464048982
1733768033992530700,4.96653076171875,0.513479099214077,-1.4205623794615267,-0.9715949153855442
1733768034002490600,4.97649072265625,-0.41187516626119614,-1.1326222204267977,-1.0595850412666796
1733768034012450600,4.986450439453125,-1.225873189445585,-0.9119155227094888,-1.0490955036953091
1733768034022411500,4.99641162109375,-1.7038608501702546,-0.7406032627582549,-1.0514686625674365
1733768034032371500,5.006371337890625,-1.487238645287603,-0.7543178998559713,-1.227375556832552
1733768034042331400,5.016331298828125,-0.5160372592642903,-0.8891255987524985,-1.064401793898642
1733768034052291600,5.02629150390625,0.6666343557059764,-0.9712322195529938,-0.49544747570008035
1733768034062252500,5.03625244140625,1.3252411800399422,-0.9870248319685458,-0.01634178899722174
1733768034072212500,5.04621240234375,1.1857524837203324,-0.812514068236947,0.26520983804417775
1733768034082172700,5.056172607421875,0.6032962943919002,-0.5554150376677512,0.3703015948465094
1733768034092132600,5.066132568359375,-0.06645531655177474,-0.3703390407800674,0.20088260129597038
1733768034102093600,5.076093505859375,-0.6857603503279388,-0.4139291761815548,-0.004277275460399687
1733768034112053800,5.0860537109375,-1.0882662152193485,-0.5839087262243032,-0.0138818468907848
1733768034122013700,5.096013671875,-1.2070470545530319,-0.7701730561137199,0.11576952868849039
1733768034131974400,5.105974365234375,-0.9658359134674072,-0.8493664198160171,0.12539280481934548
1733768034141934600,5.1159345703125,-0.6448555084876716,-0.7662707879781723,-0.15557112199459225
1733768034151894500,5.12589453125,-0.6127091426424682,-0.1393517720669508,-0.5109534166613593
1733768034161854500,5.1358544921875,-1.6661568501979112,1.8345459161788225,-0.5266738040909171
1733768034171815700,5.145815673828125,-3.556457971346378,4.815095512405038,-0.24807372033149003
1733768034181775600,5.155775634765625,-2.0079868587218224,5.373738864469528,-1.3506272579699754
1733768034191735600,5.165735595703125,0.4154442569196224,4.23199810256362,-2.463140756347775
1733768034201696300,5.1756962890625,0.8341776185125112,3.1641724716961384,-2.4937486605793238
1733768034211657200,5.1856572265625,1.5611926470316946,2.4581162061840294,-2.7627161158576605
1733768034221617200,5.1956171875,2.411151772043854,1.7134189521104097,-3.1203973351165653
1733768034231577000,5.2055771484375,2.0818290706545115,0.6336866103500127,-3.5832556696400046
1733768034241537000,5.215537109375,1.409964266949147,-0.8815262296646833,-4.246549190485477
1733768034251498200,5.225498291015625,1.2997532491706312,-2.013620626825094,-5.715679493761062
1733768034261458200,5.235458251953125,2.45574655444324,-1.9876818834483623,-6.941341232413053
1733768034271418000,5.245418212890625,3.319682766881585,-2.215406935495138,-6.727725954261421
1733768034281378300,5.25537841796875,3.781111945384741,-3.3351106376379724,-5.540495360812544
1733768034291339300,5.26533935546875,4.507404066456854,-3.3195161781430245,-4.5031718357145785
1733768034301299200,5.27529931640625,5.053955121928453,-1.7924363747239112,-4.049640424723923
1733768034311259400,5.28525927734375,5.065623932412266,-0.5147650473713874,-3.5883120762467384
1733768034321220000,5.29522021484375,4.832235447776317,0.16995792273283003,-2.8312492615967986
1733768034331180000,5.305179931640625,4.567890683862567,0.39265141035318374,-1.8094594057172535
1733768034341140200,5.31514013671875,4.221166911947727,0.6117448276549577,-0.5626537567496299
1733768034351100200,5.32510009765625,3.9074545982748266,1.086088432788849,0.8523428052783012
1733768034361061000,5.33506103515625,3.527048921510577,1.9848481213271616,2.217917895402759
1733768034371021300,5.345021240234375,2.90907367503345,3.0753923644810914,3.652774611546099
1733768034380981200,5.354981201171875,2.194028631901741,3.912355229797959,4.837465749645233
1733768034390941200,5.364941162109375,2.0900527091205117,4.450409382820129,5.81656271122396
1733768034400902100,5.374902099609375,2.04611653676033,3.3143419903755187,6.38072570349276
1733768034410862000,5.384862060546875,0.12120521693639456,1.3205916006684302,6.263668765342235
1733768034420822000,5.394822021484375,-1.574844594156742,-0.16560849535167216,6.199005446773767
1733768034430782000,5.404781982421875,-2.780348510921001,-0.8273749527603388,5.6228252689749
1733768034440743200,5.4147431640625,-3.5297347995936867,-1.3424188170731066,4.856203183341026
1733768034450703000,5.424703125,-3.973949223923683,-1.8368448407709597,4.22915352678746
1733768034460663000,5.4346630859375,-4.125480678606033,-1.6251637455523014,3.627451661980152
1733768034470623200,5.444623291015625,-4.2434594077765935,-0.8654898716211319,2.834467054599523
1733768034480584200,5.454584228515625,-4.446743261528015,-0.19246260000765322,1.8791826380237935
1733768034490544000,5.464544189453125,-4.375948308336734,0.4265618632614612,0.7963719117313623
1733768034500504300,5.47450439453125,-4.257531187748909,0.5804214686304331,-0.24058029583618043
1733768034510465000,5.484465087890625,-4.106104947006703,0.28116204320192334,-0.9061403003089129
1733768034520425000,5.494425048828125,-3.7892218943431972,-0.05012216751873493,-1.0322976597599685
1733768034530385200,5.50438525390625,-3.362590180715918,-0.4812970775336027,-1.1898116959832608
1733768034540345000,5.514344970703125,-2.85079216645658,-0.6797761613518,-0.9942040759481489
1733768034550306000,5.52430615234375,-2.392183890593052,-0.7051508411049843,-0.581893002487719
1733768034560266200,5.534266357421875,-1.8360495987400411,-0.6551292113512754,-0.5617110690720379
1733768034570226200,5.54422607421875,-1.1608723094858229,-0.4575859470784664,-0.6870953983239829
1733768034580186000,5.55418603515625,-0.3157449885442853,-0.16119067890942096,-0.6066480890378355
1733768034590147300,5.564147216796875,-0.22047464252710341,-0.655049716374278,0.3877957870155573
1733768034600107300,5.574107177734375,0.3525437102399766,-0.7130190902620553,0.9466578963972627
1733768034610067200,5.584067138671875,0.725353086656332,0.5785562592804432,0.5229696888759732
1733768034620028200,5.594028076171875,0.28243542413860556,0.8172153777956962,1.081144985037297
1733768034629988000,5.603988037109375,-0.20708090794682502,0.8172294063210487,1.66297003685534
1733768034639948000,5.613947998046875,-0.5966589022040367,1.2346721435815096,2.6010990282297133
1733768034649908200,5.623908203125,-0.7907038029670714,2.5753560996860263,3.297631094071269
1733768034659869200,5.633869140625,-1.0647405243337154,4.192014467221498,3.830912041342258
1733768034669829000,5.6438291015625,-0.9531015195786953,5.238724829345942,4.4658921986341475
1733768034679789300,5.653789306640625,-0.7520645679712296,5.8133250444769855,4.957341252347827
1733768034689749200,5.663749267578125,-0.4941477912783622,6.780144708284736,5.127075303196907
1733768034699710200,5.673710205078125,0.011859949141740798,7.8958678163588045,5.0649114002287385
1733768034709670400,5.68367041015625,0.628074323426187,7.76092392386198,4.624024659016728
1733768034719630300,5.69363037109375,0.46390199835747475,5.59035507800281,2.733888373041153
1733768034729590300,5.70359033203125,-1.3233835694745182,3.4175533585250375,-0.6741163820244371
1733768034739551200,5.71355126953125,-3.447572064691782,2.911196074014902,-4.290579470869899
1733768034749511200,5.72351123046875,-4.793235270513594,2.4429051930487153,-6.595495996898412
1733768034759471000,5.73347119140625,-6.015179157686233,1.6393150205016136,-7.171465162295102
1733768034769432300,5.743432373046875,-6.823064397078752,0.9647966335475444,-7.052811894863844
1733768034779392300,5.753392333984375,-7.426296832454204,-0.20492694478332996,-6.751848003605008
1733768034789352200,5.763352294921875,-9.08978066405058,-1.348701258343458,-6.312415552854538
1733768034799312100,5.77331201171875,-11.295118625473975,-1.4491758950054645,-5.851918102243542
1733768034809273300,5.7832734375,-9.82227894628644,-1.0433417624741792,-4.509871041092277
1733768034819233300,5.7932333984375,-5.044435598433018,0.012808628168702124,-3.476125082220137
1733768034829193200,5.803193115234375,-1.4488088152587413,1.169347730755806,-3.209266874180734
1733768034839153400,5.8131533203125,0.5051625217676162,1.7118173621326684,-2.8071125992059707
1733768034849114000,5.823114013671875,1.49871397902593,1.758641072627902,-1.9034873504579066
1733768034859074000,5.833073974609375,2.368654546445608,1.663275741803646,-1.1259110323503614
1733768034869034200,5.8430341796875,2.7028490916550156,1.269735273656249,-0.13517872416600585
1733768034878995200,5.8529951171875,3.790163851368427,0.9908312385141849,0.575984655226767
1733768034888955100,5.862955078125,4.984877494049072,1.6033412053227423,0.7918620330914855
1733768034898915300,5.872915283203125,5.742662777754664,1.6535376071214676,1.244003451028466
1733768034908875300,5.882875244140625,5.790929088273644,1.1264911703258753,1.643204429155588
1733768034918836200,5.892836181640625,5.450422875699401,0.49467152289152144,1.783399081787467
1733768034928796400,5.90279638671875,5.29023874348402,0.20896306843161583,2.429653205026686
1733768034938756400,5.91275634765625,5.268992541837692,-0.5414893881678581,3.2347643035307523
1733768034948716300,5.92271630859375,5.250646153286099,-1.4306196630954742,3.497283897843957
1733768034958677200,5.93267724609375,5.194501656737923,-1.966756584319472,3.6735745307296512
1733768034968637200,5.94263720703125,5.026068751615286,-2.201646705690026,3.490123212434351
1733768034978597000,5.95259716796875,4.79731727913022,-2.1386071889311076,3.3240497299194334
1733768034988557000,5.96255712890625,4.740465511095524,-1.7152093426585195,3.057725774887204
1733768034998518300,5.972518310546875,4.617001628512144,-1.107751983064413,2.7416309499919413
1733768035008478200,5.982478271484375,4.355281952404976,-0.4053191687464714,2.4431658898115156
1733768035018438100,5.992438232421875,4.030305317395925,-0.031086043137311933,2.0532029878899456
1733768035028399000,6.002399169921875,3.275262025874853,-0.47404374540448185,1.825893969298154
1733768035038359000,6.012359130859375,2.5414047302454708,-1.0468161605864763,1.478653041641414
1733768035048319000,6.022319091796875,2.164647639116645,-1.288973058089614,0.8949136806346476
1733768035058279200,6.032279052734375,1.768887156832218,-1.1963614098876714,0.2674804315909743
1733768035068240100,6.042240234375,1.3798299715787172,-1.0464613557994364,-0.2177384955614805
1733768035078200000,6.052199951171875,0.7197038287229836,-0.8214210127919912,-0.6867001153960823
1733768035088160300,6.06216015625,0.008857260194420813,-0.7383113524287939,-1.3396554898396134
1733768035098120200,6.0721201171875,-0.874945097708702,-0.61423956708014,-1.9319906836256384
1733768035108081200,6.0820810546875,-1.9888018273890018,-0.5409890374302864,-2.356490938182175
1733768035118041300,6.092041259765625,-2.975800355872512,-0.10579086324870586,-2.8276462686687704
1733768035128001300,6.102001220703125,-4.3678386516392225,0.7681926959514618,-3.524547752344608
1733768035137962000,6.1119619140625,-5.665248114162683,0.9284516469687223,-4.094142122012377
1733768035147922200,6.121922119140625,-8.64624077798128,0.753333564993739,-4.606173068244755
1733768035157882000,6.131882080078125,-11.933662028205394,0.1970698015421629,-4.315797206495702
1733768035167842000,6.141842041015625,-8.500055945023893,-0.36912206620573995,-2.7696295485079285
1733768035177803300,6.15180322265625,-4.007628206163645,-0.4981155258655548,-1.4587301975533364
1733768035187763200,6.16176318359375,-1.8513532585948704,-0.1710176609188318,-0.4629468895897269
1733768035197723100,6.17172314453125,-0.6378934143900871,0.17651450476944447,0.2125017639517784
1733768035207682600,6.1816826171875,0.07091244209110736,0.29854630872309207,0.7451943899407982
1733768035217643800,6.191643798828125,0.42721667390838264,0.3270738995492458,1.237530455622077
1733768035227603700,6.201603759765625,0.5705149916440249,0.2935907321423292,1.6796764031149447
1733768035237563600,6.211563720703125,0.657591802072525,0.18478665855228898,2.157953694435954
1733768035247524900,6.22152490234375,0.6465924152828753,0.17797522497177123,2.767961323034763
1733768035257484800,6.23148486328125,0.48394510782435535,0.15650632048547267,3.4844045425266024
1733768035267444700,6.24144482421875,0.12105316817983984,0.1346504625082016,4.570921429860592
1733768035277404700,6.25140478515625,-0.3195553406126797,-0.017572481569647788,5.46892357802987
1733768035287365600,6.26136572265625,-0.830572141366452,-0.18790742092132567,6.167755152985453
1733768035297325600,6.27132568359375,-1.0198005817584692,-0.22172435032725332,6.3942398495823145
1733768035307285800,6.28128564453125,-0.9802150058232247,0.0334796602755785,5.463389909300208
1733768035317245700,6.29124560546875,-0.8358651332080363,-0.010415011030435562,4.493087079551816
1733768035327206700,6.30120654296875,-0.3293259162597358,-0.412546781912446,4.38714716322124
1733768035337166800,6.311166748046875,0.6608098873361945,-0.8299123622834682,4.577312592202425
1733768035347126800,6.321126708984375,1.7388928544543683,-0.996899744772911,4.766978254967928
1733768035357087500,6.33108740234375,2.4280871247537434,-0.8258779922008513,4.9163434715270995
1733768035367047700,6.341047607421875,3.298691709040105,-0.5830529861778021,5.1135231631845235
1733768035377007600,6.351007568359375,4.509667627474665,-0.04190320522785187,5.33718052740097
1733768035386967600,6.360967529296875,6.2830228696316475,0.8264964163601398,5.469013594400883
1733768035396928800,6.3709287109375,9.03149623286426,1.431330441713333,5.448872723647952
1733768035406888700,6.380888671875,11.780554702508448,2.339474044668674,4.970532742354274
1733768035416848600,6.3908486328125,13.993614198094605,2.771882295870781,4.358665165102481
1733768035426808600,6.40080859375,14.80317000104785,3.174078364160657,3.1390085120841857
1733768035436769800,6.410769775390625,12.829016292214392,4.231670770305395,1.1597440361082554
1733768035446729700,6.420729736328125,10.900254215246438,6.336251770994067,-1.0026577237777412
1733768035456689700,6.430689697265625,8.731189344209431,9.323262087666988,-2.98915726557374
1733768035466650600,6.440650634765625,-0.9816583364993333,11.967886953890323,-5.723899040573835
1733768035476610600,6.450610595703125,-3.741787650734186,9.540314939051866,-6.3757701269119975
1733768035486570500,6.460570556640625,1.6206943450532854,2.7274679846048353,-4.550061597183347
1733768035496530700,6.47053076171875,2.4092576288603245,-3.8139544768005607,-3.1721599633187054
1733768035506491600,6.48049169921875,-0.12044117376133799,-7.665017910289764,-1.9212080083265899
1733768035516451600,6.49045166015625,-1.7348298427991569,-7.631542926189303,-0.46109344374276695
1733768035526411800,6.500411865234375,-1.3415366274110971,-4.826725744444132,0.906218991568312
1733768035536371700,6.510371826171875,0.06725742671489715,-0.7111766772657633,1.7304051582247018
1733768035546332700,6.520332763671875,0.5303704666517675,3.3546114569216963,2.730312560380995
1733768035556292900,6.53029296875,0.4986363348692655,5.727631797361374,3.770679983219504
1733768035566252800,6.540252685546875,0.7346177586078644,6.437067183917761,4.721472933594883
1733768035576213500,6.550213623046875,1.5296581294745206,5.367258854800462,5.588082456895709
1733768035586173700,6.560173583984375,2.085845028297603,2.555865217274427,5.445044689792394
1733768035596133600,6.570133544921875,1.8951117363005876,-0.7069447387844324,4.5637575295805926
1733768035606093600,6.580093505859375,1.8948732513695954,-3.046097880935669,3.8249507948502894
1733768035616054800,6.5900546875,2.2015981903731823,-3.62952496112287,3.1268574710413812
1733768035626014700,6.6000146484375,2.5762393122613427,-2.7228561068952084,2.4159318459272385
1733768035635974700,6.609974609375,3.115729051044583,-1.8312334306299685,1.8675645348139107
1733768035645935900,6.619935791015625,3.115157973158359,-0.694362320587039,0.9904815482936798
1733768035655895800,6.629895751953125,2.9319302344858644,0.6431909362763166,0.16727116786688564
1733768035665855700,6.639855712890625,2.9988503920704126,1.6888801386594772,-0.6472657844997942
1733768035675815700,6.649815673828125,2.917749148920178,2.16379832881093,-1.5389548039995133
1733768035685776600,6.659776611328125,2.0194430493682622,1.7860738539546728,-2.198649861961603
1733768035695736600,6.669736572265625,0.937992651643604,0.9253057501584291,-2.697076937994361
1733768035705696500,6.679696533203125,0.2833043889928609,0.16003274104595183,-3.0997716034561393
1733768035715656700,6.68965673828125,-0.43733051003515716,-0.38108606024384495,-2.8383798441290855
1733768035725617700,6.69961767578125,-0.817491856649518,-0.7043687508165836,-2.1081568133488298
1733768035735577600,6.70957763671875,-0.7880669516574591,-0.645306905516982,-1.2436169359289109
1733768035745537800,6.719537841796875,-0.6248585762500762,-0.28914427412748334,-0.3561694995217025
1733768035755498800,6.729498779296875,-0.30010763975568117,0.08398995032906532,0.43787163117453454
1733768035765458700,6.739458740234375,0.10967263658549636,0.3404454222977161,1.114964837052673
1733768035775419000,6.7494189453125,0.4352384696593508,0.5153717810928822,1.7321933568157255
1733768035785378800,6.75937890625,0.3680611589759588,0.49034956803917884,2.2205464903406797
1733768035795339500,6.769339599609375,0.471934205904603,0.17879238657355306,2.493658644208312
1733768035805299700,6.7792998046875,0.34607670618295666,-0.09117664696276187,2.511788175138831
1733768035815259600,6.789259765625,-0.22205752780437468,-0.27378070077896116,2.2579528225407004
1733768035825219600,6.799219482421875,-1.0035071802139282,-0.364261766692996,1.7128443670928477
1733768035835180800,6.809180908203125,-1.5055810883164404,-0.5000993931591511,1.0535754255883396
1733768035845140700,6.819140625,-1.8511948531627653,-0.46864276314377784,0.4288603494621813
1733768035855100700,6.8291005859375,-2.077271553480625,-0.2881277905613184,-0.028597002800554036
1733768035865061600,6.8390615234375,-2.230474740767479,-0.12445756979584693,-0.17394465428143738
1733768035875021800,6.849021728515625,-2.1066426093935964,0.1228027883261442,0.10849588442370295
1733768035884981800,6.858981689453125,-1.5560381868779658,0.2357774255990982,0.6999282841511071
1733768035894941700,6.868941650390625,-0.7132616668462752,0.23301672871410845,1.3365825121350585
1733768035904902700,6.878902587890625,-0.009752163207530975,0.29541034878492356,1.8416659773170947
1733768035914862600,6.888862548828125,0.5271183329880237,0.43361938055753707,2.19020702778697
1733768035924822800,6.89882275390625,0.9165800073891878,0.7416074713647365,2.4860224502414465
1733768035934782700,6.90878271484375,1.1473328828245402,1.1419243017792702,2.8820111883237955
1733768035944743700,6.91874365234375,1.4335878652513026,1.4357277998894453,3.2441008716747164
1733768035954704000,6.928703857421875,1.6372306154429912,1.54719027903378,3.4414500746801493
1733768035964663800,6.938663818359375,1.769838758468628,1.2317097866445779,3.349064051927626
1733768035974624500,6.94862451171875,1.9338088389635084,0.5183569343835115,3.0788273073658345
1733768035984584700,6.958584716796875,2.2486405120551587,-0.2604185303807258,2.404968261103332
1733768035994544600,6.968544677734375,2.630618552702665,-0.6892454159647226,1.4418142801962792
1733768036004504600,6.978504638671875,2.8370845436215397,-0.6004191315203905,0.4732102171897888
1733768036014465800,6.9884658203125,2.5048002159476277,-0.09343056336939334,-0.5354841564036905
1733768036024425700,6.99842578125,1.7221125461757183,0.6481172867625952,-1.5401041201651096
1733768036034385700,7.0083857421875,0.5536977123558521,1.65888539789021,-2.414827245686203
1733768036044345600,7.018345703125,-0.7934557320237159,2.8290917913019658,-3.2415842126786707
1733768036054306800,7.028306884765625,-2.147893488192558,3.298966142067313,-3.5994176998898384
1733768036064266800,7.038266845703125,-3.938859205842018,3.101692926907539,-3.7842344613194463
1733768036074226700,7.048226806640625,-6.383779830366373,2.772282693365216,-3.5811475914448496
1733768036084187600,7.058187744140625,-8.593633807909487,2.0761276441425083,-2.680783682580292
1733768036094147600,7.068147705078125,-9.16126535307169,1.387075704923272,-1.7905282030150294
1733768036104107500,7.078107421875,-7.670745055764913,0.9107429717987775,-1.174745936537534
1733768036114067700,7.088067626953125,-5.109754750561714,0.058434653311967844,-0.7743748917177319
1733768036124028700,7.098028564453125,-3.2745500782132146,-0.8064327024966478,-0.20162030445337295
1733768036133988600,7.107988525390625,-2.670388253033161,-0.9746142632067203,0.3209568779736757
1733768036143948800,7.11794873046875,-2.8377380390942095,0.011560089412331581,0.6293386442735791
1733768036153908700,7.12790869140625,-3.514209898203611,1.2146738961696624,0.7961769736811518
1733768036163869700,7.13786962890625,-4.048915325319767,1.6528250749379396,1.3404953016646206
1733768036173830000,7.147829833984375,-3.9076176798820494,1.3760533756494522,2.3635902487933635
1733768036183789800,7.157789794921875,-3.11228446354866,0.8829711677759885,3.214785345341265
1733768036193750500,7.16775048828125,-2.319103456813097,0.21694529935717582,3.1971459360152483
1733768036203710200,7.177710205078125,-1.7029326294094322,-0.1469149007976055,3.4902705119505524
1733768036213670100,7.187670166015625,-1.0982459035724401,-0.035679216146469114,3.786008485254645
1733768036223630000,7.197630126953125,-0.03147759973816573,-0.016144494593143464,3.9005680536314844
1733768036233591000,7.207591064453125,1.1062368292611091,-0.2616542096555233,3.7638071748405695
1733768036243551200,7.21755126953125,1.9372867442071438,-0.10519523544311522,3.3928137618049976
1733768036253511200,7.22751123046875,2.636607563984394,0.16300912650823593,2.967157322950661
1733768036263471000,7.23747119140625,3.5760230880379673,0.3293681479662657,2.4765716080680487
1733768036273432300,7.247432373046875,4.248649377635121,0.1639291639626026,2.141909445346892
1733768036283392300,7.257392333984375,4.251901072907447,-0.07868307609260082,1.9015385544776915
1733768036293352200,7.267352294921875,4.071135924956202,-0.316308759906888,1.6262383890464902
1733768036303313200,7.277313232421875,3.8261540331602095,-0.5830728599220514,1.4836834370240568
1733768036313273000,7.287273193359375,3.4717145723015066,-0.8599830908983945,1.236465164478123
1733768036323233000,7.29723291015625,2.9361691872298716,-0.9914473245859146,0.9703811556816101
1733768036333193200,7.307193115234375,2.297585014096647,-0.73654668084383,0.9163774705544113
1733768036343154200,7.317154296875,1.77363931979537,-0.48217736749947065,0.7487045900188386
1733768036353114000,7.327114013671875,1.5713212423361838,-0.29190204840302464,0.7663282172538339
1733768036363074300,7.33707421875,1.4700819049119949,0.15687866092920302,0.7909116004988551
1733768036373034200,7.3470341796875,0.536097758257389,0.5313502714693547,0.8892688066154718
1733768036382995200,7.3569951171875,-1.432772164954245,0.881148044002056,1.0718781211286783
1733768036392955400,7.366955322265625,-2.244075396096706,1.3578484413951635,0.2864277817104012
1733768036402915300,7.376915283203125,-1.4683235169373452,1.0115864417731761,-0.5972847790174186
1733768036412876000,7.3868759765625,-0.16374197082743047,0.21344518228173254,-1.3486354996308683
1733768036422836200,7.396836181640625,1.0183191110290586,-0.4820633857309818,-1.9315479082942009
1733768036432796200,7.406796142578125,1.7247955016493797,-0.932531025236845,-2.390422726139426
1733768036442756000,7.416756103515625,1.9568113827578721,-1.293116733765602,-2.7921558530926704
1733768036452717300,7.42671728515625,1.9361388893462717,-1.5018547612696884,-3.0544743718758225
1733768036462677200,7.43667724609375,1.7833704402148722,-1.7557932819813489,-3.277958717612922
1733768036472637200,7.44663720703125,1.4421113634467124,-2.0671470498293636,-3.5471433227732776
1733768036482597000,7.45659716796875,1.0450725317895413,-2.3230431343495845,-3.878059284703433
1733768036492558300,7.466558349609375,0.6710660545431077,-2.58182091178596,-4.238708121596276
1733768036502518300,7.476518310546875,0.2684720729768276,-2.779748791462183,-4.437281313438714
1733768036512478200,7.486478271484375,-0.3042132484436035,-2.3040707228541373,-4.3229318806812165
1733768036522439200,7.496439208984375,-0.9275386237770319,-1.9123615617871284,-2.8310598765045403
1733768036532399000,7.506399169921875,-0.9095524468399584,-1.6052800644308327,-1.190847322641313
1733768036542359000,7.516359130859375,-0.6749287213206291,-1.1900175938189028,-0.32220950838327406
1733768036552319200,7.5263193359375,-0.549518380844593,-0.702525168776512,0.4762225507482886
1733768036562280200,7.5362802734375,-0.31797070176973935,-0.1294657533466816,1.3054957383453845
1733768036572240100,7.546240234375,0.048823798271268606,0.3078518972069025,2.057616420418024
1733768036582200300,7.556200439453125,0.19814342212304473,0.48213177479207514,2.586776780627668
1733768036592161300,7.566161376953125,0.1009561365686357,0.4981576114416122,2.7012936789065596
1733768036602121200,7.576121337890625,-0.6751005707561969,0.6368535499483347,2.1797306419581175
1733768036612081400,7.586081298828125,-2.2833985217034813,0.8572071964442729,1.0338932583883405
1733768036622041300,7.596041259765625,-4.14710214330554,0.81221011685431,0.22446953911585732
1733768036632002000,7.606001953125,-5.551921594712137,0.9108627987861633,-0.16301351042240858
1733768036641962200,7.615962158203125,-5.928645952615142,0.841928963291645,-0.3719078975319862
1733768036651922200,7.625922119140625,-4.8286043977975845,0.29414661245942114,-0.3684013507157564
1733768036661882000,7.635882080078125,-3.1116976035714146,-0.25528642818927766,-0.4341159319028258
1733768036671843300,7.64584326171875,-1.600777492314577,-0.5318073675870895,-0.7028010631084441
1733768036681803300,7.65580322265625,-0.42623920717835423,-0.36834699018001554,-1.1847145189747215
1733768036691763200,7.66576318359375,-0.2240834806740284,1.1873662025272846,-1.9045798218697307
1733768036701724400,7.675724365234375,-1.952794548331946,3.9611826813310382,-2.395330956447124
1733768036711684400,7.685684326171875,2.8595436281889675,3.9067660314887758,-3.6925238536104557
1733768036721644300,7.695644287109375,6.57155398029685,3.5028906318098305,-3.867166427028179
1733768036731604200,7.705604248046875,5.996268705511093,2.436134091478586,-3.4104087474673985
1733768036741565200,7.715565185546875,5.61670766287744,0.04397358176112175,-3.0640470868632197
1733768036751525000,7.725525146484375,4.91261129926145,-1.9720494300305842,-3.2590558642223475
1733768036761485000,7.735485107421875,4.781743277901411,-2.4179449393153187,-4.417158855125308
1733768036771445200,7.7454453125,4.454937089377641,-2.2156711393892765,-5.859643143537641
1733768036781406200,7.75540625,3.7822067548841236,-2.1888415846526623,-6.740445735102892
1733768036791366100,7.7653662109375,4.13540878290236,-1.8115917415708302,-6.84891838478148
1733768036801326300,7.775326416015625,4.477437674999237,-1.1207932509452103,-6.190286718267202
1733768036811287000,7.785287109375,4.368184688597918,-0.6928671135932206,-5.124475349831581
1733768036821247000,7.7952470703125,3.9568180563807487,-0.4904980365991592,-4.380897455176711
1733768036831207200,7.805207275390625,3.6503865473657844,-0.3295183700919151,-3.7869180013149975
1733768036841167000,7.8151669921875,3.5179835715234278,-0.2206014837771654,-3.0406074668258425
1733768036851128000,7.825128173828125,3.2760926314800978,-0.05745967079997062,-2.151301543070376
1733768036861088300,7.835088134765625,3.0796961991548537,0.11804419562220572,-1.3138272211000324
1733768036871048200,7.845048095703125,2.9754110642939806,0.19398177239894865,-0.7898585112493485
1733768036881008000,7.855008056640625,2.6651129429787397,0.6707856301665306,-0.1996650056671351
1733768036890969300,7.86496923828125,1.8265321210712193,1.6910113054692744,0.7255531392730772
1733768036900929300,7.87492919921875,1.148599541759491,3.048648734462261,2.286546610470861
1733768036910889200,7.88488916015625,0.6039946884522214,3.8820331567704676,3.9611920336812734
1733768036920850200,7.89485009765625,-0.34651159046888347,4.514621450489759,5.7842439114212985
1733768036930810000,7.90481005859375,-1.0184791969615965,3.8774382301956414,7.271883684855699
1733768036940770000,7.91477001953125,-1.8675708184242248,2.7413679151415824,7.588046898812055
1733768036950730000,7.92472998046875,-2.995749503445625,1.3159563420832157,7.449329917517304
1733768036960691200,7.934691162109375,-4.217819939607382,-0.36325755808651444,7.27495885451734
1733768036970651100,7.944651123046875,-5.2220916744530195,-1.7095441565036773,6.647362377735972
1733768036980611000,7.954611083984375,-5.6914288496017456,-2.2280372844874856,5.913104100090265
1733768036990571300,7.9645712890625,-5.843281791323423,-1.6009019954770802,4.6582755959257485
1733768037000532200,7.9745322265625,-5.7748179114282125,-0.5982073006898164,3.544228019848466
1733768037010492200,7.9844921875,-5.560061062026024,0.166962832570076,2.58201643435806
1733768037020452400,7.994452392578125,-5.056844998151064,0.6688859340250491,1.793332885172218
1733768037030413000,8.0044130859375,-4.355504070723057,1.0029986461699008,1.2416400828979908
1733768037040373000,8.014373046875,-3.4668659632265566,1.0403975257158278,1.0538191712163387
1733768037050333200,8.024333251953125,-2.474008771842718,0.7544891647696494,0.9662196520879864
1733768037060293000,8.034293212890624,-1.4581845463693142,0.6238789175629615,0.9977329807266593
1733768037070254000,8.044254150390625,-0.5277041700519621,0.388482600235939,0.9609710839100182
1733768037080214300,8.05421435546875,0.49282662567719815,0.2128770270049572,0.7396103061981498
1733768037090174200,8.06417431640625,1.83619134529829,0.14164543596208096,0.15413842231035232
1733768037100134100,8.074134033203125,2.932775453138351,-0.3026490678668022,-0.5080307706803083
1733768037110095400,8.084095458984375,3.2782711445629595,-0.567155744343996,-0.7916901836559176
1733768037120055300,8.09405517578125,3.8818881953418254,-0.9346668682217597,-1.0253601155817509
1733768037130015200,8.10401513671875,4.876645082867145,-1.028399629408121,-1.4948520429007708
1733768037139976200,8.11397607421875,5.530644413405656,-0.5075251592457294,-2.11155478522405
1733768037149936000,8.12393603515625,5.379296498596668,-0.255130945366621,-2.235127535009384
1733768037159896000,8.13389599609375,4.666848486220836,-0.6078717856138944,-1.7309665914997459
1733768037169856300,8.143856201171875,3.4643794071078298,-0.5174351433634757,-1.2691605425082146
1733768037179817200,8.153817138671876,1.3602033339582382,-0.09055939184725284,-0.9555956014167517
1733768037189777200,8.163777099609375,-0.1412589208625257,0.5165706354886294,-0.7041087847061455
1733768037199737300,8.1737373046875,-1.0658359183549881,1.0639777232676744,-0.32672990841716526
1733768037209698600,8.183698486328124,-1.917843500329554,1.2361059757769106,0.32381767423227426
1733768037219658500,8.193658447265625,-2.644414146082103,1.1510223849922419,1.1302395630739628
1733768037229618400,8.203618408203125,-3.2352304597377777,0.8741080623626708,1.9227844638630747
1733768037239578400,8.213578369140626,-3.5779029104351996,0.7041191599696874,2.6135209951683875
1733768037249539300,8.223539306640625,-3.686792324221134,1.2373767263650894,3.2396061906039715
1733768037259499500,8.23349951171875,-3.5571851165771484,3.076972327148914,3.8065041607946157
1733768037269459500,8.24345947265625,-2.8945146960660812,5.591606539368629,4.233473435813188
1733768037279419400,8.25341943359375,-1.9502914794698356,7.270841482326388,4.437066501644254
1733768037289380600,8.263380615234375,-0.5807379872336983,6.392935781246424,4.464247938558459
1733768037299340500,8.273340576171876,0.6248331495478749,3.3123972860485313,3.6961312304526563
1733768037309300500,8.283300537109374,2.315980648617446,0.809903008955717,1.2575127748124302
1733768037319261400,8.293261474609375,4.135163868230581,0.0927571941524744,-1.3173586100965737
1733768037329221400,8.303221435546876,4.657809731979668,0.5152016852229834,-3.113867933347821
1733768037339181300,8.313181396484374,2.0615432384729386,0.47741292957663534,-3.7853207952514287
1733768037349141200,8.323141357421875,-3.195157684807479,-0.8946540067851543,-3.0630390788644553
1733768037359102500,8.3331025390625,-4.731998419262468,2.07839968072772,-4.895052846217155
1733768037369062400,8.3430625,-6.065545655354857,3.2795231904506683,-4.44783456389606
1733768037379022300,8.353022216796875,-6.65130147075057,1.3419377555578946,-1.9660684559248387
1733768037388982500,8.362982421875,-7.312672791361808,0.532953615012765,-0.41552828194126484
1733768037398943500,8.372943603515624,-7.507401582735777,0.2052642139136791,0.5120305078409612
1733768037408903400,8.3829033203125,-7.197607319289445,0.24728198543190955,0.9831862767189741
1733768037418863600,8.392863525390625,-6.6533169022262095,0.4561217197448015,1.4199530153915285
1733768037428824300,8.40282421875,-5.741603624090552,0.6360188526898622,1.8462696717202662
1733768037438784300,8.4127841796875,-4.6639048339843745,0.7731745760172605,2.383511339315772
1733768037448744400,8.422744384765625,-3.9535023559615015,1.297203126296401,2.9481553930997846
1733768037458704400,8.432704345703126,-3.5001556538879868,1.2627841393440962,3.6527810412868855
1733768037468665300,8.442665283203125,-3.1287048524737355,0.7296855629026889,4.021538073572517
1733768037478625500,8.45262548828125,-2.9443381728991866,0.527701685833931,3.263665111583471
1733768037488585500,8.46258544921875,-2.208960681965202,0.7908879273623227,1.8467777673728762
1733768037498545400,8.47254541015625,-1.4179096729956566,1.222460896784067,0.22185396805629132
1733768037508506600,8.482506591796875,-0.9190319305859506,1.5699597447246312,-0.9732647482939064
1733768037518466600,8.492466552734374,-0.3562592236317694,1.8496540534615515,-2.0189083579696714
1733768037528426500,8.502426513671875,0.08043240397796034,1.7935113104790448,-2.7660210026219487
1733768037538387500,8.512387451171875,-0.14388590836524962,0.5728413887649774,-1.9863783996343611
1733768037548347400,8.522347412109376,1.0001591118950397,0.5074824891477823,-2.309792169240862
1733768037558307300,8.532307373046875,1.7658944047570229,1.0180272884756325,-3.1653260256454345
1733768037568267300,8.542267333984375,1.941422821098566,1.0789718787819147,-3.154566438961029
1733768037578228500,8.552228515625,2.3103835592627524,0.7447650586128235,-2.71804987565726
1733768037588188400,8.5621884765625,2.731699923086166,0.5986509528040885,-2.561872640995681
1733768037598148400,8.5721484375,3.048175271731615,0.7478215235739946,-2.625584650188684
1733768037608109600,8.582109619140626,2.718456995153427,1.3121020047426224,-2.3589833395197988
1733768037618069500,8.592069580078125,2.224575745856762,1.6282073510318993,-1.8316507792592047
1733768037628029400,8.602029541015625,2.0451503220766782,1.6739128711521625,-1.1900702007889747
1733768037637989600,8.61198974609375,1.167111350005865,1.3787339930355549,-0.8818854183658957
1733768037647950300,8.621950439453125,0.30236031405329705,0.803101512247324,-1.0652885136052965
1733768037657910300,8.63191015625,-0.06498126194383949,0.11095920579731464,-1.6563672775894402
1733768037667870500,8.641870361328126,-0.3288607099007815,-0.4951432320564985,-2.2736852292016145
1733768037677830400,8.651830322265624,-0.2502951957732439,-0.8423428047895432,-2.3119389720112085
1733768037687791400,8.661791259765625,0.9543627716861665,-0.845957488155365,-2.303378941197693
1733768037697751600,8.67175146484375,2.646559633678198,-0.8679372647732496,-2.7421041204616428
1733768037707711500,8.68171142578125,3.8661154566705225,-1.3801093730419873,-3.168596717879176
1733768037717672400,8.69167236328125,4.35954545506835,-2.429942835623026,-3.4172716189742087
1733768037727632600,8.701632568359376,3.986252825179696,-3.8708641125023364,-3.185436208999157
1733768037737592600,8.711592529296874,3.430596379971504,-4.849285951298475,-2.7298265304297207
1733768037747552500,8.721552490234375,3.2879654401034113,-5.244914916157722,-1.9951392137169837
1733768037757513500,8.731513427734376,3.598965572208166,-5.5186266433537,-1.312177408066392
1733768037767473400,8.741473388671874,3.5946973933696746,-5.984644903212786,-0.716619160580635
1733768037777433300,8.751433349609375,3.638171793437004,-6.365860727316141,-0.21475480357557533
1733768037787393300,8.761393310546875,3.854335002505779,-6.095645610064268,0.04746018176786601
1733768037797354500,8.7713544921875,3.543627131345868,-5.122535906201601,0.1886979867771268
1733768037807314400,8.781314453125,1.7063339622855185,-3.540273729264736,0.46893999252468344
1733768037817274400,8.7912744140625,-2.316191222628206,-0.7502472894161939,0.8911263441156595
1733768037827235600,8.801235595703124,-8.354491874313354,2.8157027328968045,0.8106327845349908
1733768037837195500,8.811195556640625,-10.112632011681795,2.771345120254159,-0.092358842484653
1733768037847155500,8.821155517578125,-6.2335056822687385,-1.6508832932204007,-0.28680092587172984
1733768037857115400,8.831115478515626,-5.528558839303255,-4.133248389998078,-0.05883417402356863
1733768037867076400,8.841076416015625,-13.194559915411471,-0.9969242946922778,0.3257432354673743
1733768037877036300,8.851036376953125,-5.103399828577041,1.3059621868133544,-0.4079568237736821
1733768037886996500,8.86099658203125,3.0838907282352443,5.356852027076482,-2.562154672807455
1733768037896956400,8.870956298828125,9.269451002502441,7.402422620391845,-5.197815311330556
1733768037906917400,8.88091748046875,14.327607667773961,9.571244330322742,-7.45564041583836
1733768037916877600,8.890877685546876,12.965338487327099,11.042188989543915,-8.870731085890531
1733768037926837500,8.90083740234375,9.11154241400361,5.892637650644779,-7.801143706047535
1733768037936798200,8.910798095703125,5.978062602213025,-1.4886018964648247,-5.982382803499698
1733768037946758400,8.92075830078125,5.352339518088102,-3.6253193261265753,-5.44486699513793
1733768037956718300,8.93071826171875,4.666689496266842,-3.721657885897159,-4.567892145167291
1733768037966678300,8.94067822265625,3.9178859759181734,-3.5790818910866973,-3.122698890057206
1733768037976639500,8.950639404296876,3.744236797451973,-2.4841531492382285,-1.8937416169911623
1733768037986599400,8.960599365234375,3.373144892477989,-0.8125473859846591,-1.0998694131210445
1733768037996559400,8.970559326171875,2.4746476542681455,-0.27204233267903327,0.031083705049753187
1733768038006519600,8.98051953125,1.7289923688173292,0.4679126953035593,1.3586445602089166
1733768038016480500,8.99048046875,1.092546888213232,2.4162264449596402,3.1515128966093062
1733768038026440400,9.0004404296875,0.9197551302939653,4.572903543588519,5.669270793807506
1733768038036400600,9.010400634765626,0.36065227095894514,4.555018927329779,7.769048193606734
1733768038046361300,9.020361328125,-0.45362997599430377,2.8041543339222668,8.29166687708795
1733768038056321300,9.0303212890625,-0.8240963694810867,1.288077570554614,6.984556689283251
1733768038066281500,9.040281494140626,-1.1793044766247271,0.35214813505113124,4.347041070543229
1733768038076241400,9.050241455078124,-1.165986729890108,-0.23381986179053782,2.2334499571859836
1733768038086202400,9.060202392578125,-0.9244435803711414,-0.29920097323954103,1.107211373381689
1733768038096162600,9.07016259765625,-0.7141349425494671,-0.21690262925922868,0.24365035093128679
1733768038106122500,9.08012255859375,-0.6339841319918632,-0.15786767196655271,-0.25433292685672637
1733768038116083500,9.09008349609375,-0.610000614336133,-0.3209142078757286,-0.25485651233941314
1733768038126043600,9.100043701171876,-0.35471944684386253,-0.25728490853011604,-0.1217920769136399
1733768038136003600,9.110003662109374,-0.14462474403381348,-0.538768438771367,-0.052746963064372536
1733768038145963500,9.119963623046875,-0.06686521252691745,-0.9030313745081424,-0.10682692829817533
1733768038155924500,9.129924560546876,-0.13503799138790928,-1.0301239689826964,-0.24668124305978417
1733768038165884400,9.139884521484374,-0.13352934952378273,-0.9746563487827777,-0.4274912530660629
1733768038175844400,9.14984423828125,-0.028902278490597382,-0.8653320507109165,-0.4530195159457624
1733768038185804300,9.15980419921875,0.061267228123079984,-0.6773527335971593,-0.14866510546579956
1733768038195765500,9.169765625,0.27942014970434825,-0.42573476478755473,0.23039120251610873
1733768038205726000,9.179725830078125,0.3957634048938751,-0.23304887741804123,0.6835173937067389
1733768038215686000,9.189685791015625,0.9762847537022084,0.23210955074131487,0.7248754592072219
1733768038225646800,9.199646728515624,1.308294429153204,0.17925123625695705,0.8469614775661378
1733768038235606800,9.209606689453125,1.3610907843172548,-0.3376964158505201,1.0683563767433166
1733768038245566700,9.219566650390625,1.3323580263078212,-0.7474182034701109,1.1688472338877618
1733768038255527000,9.22952685546875,1.2839631209731102,-0.6636702452033758,1.08987204298079
1733768038265488000,9.23948779296875,1.1735936977624892,-0.18580080403089522,0.8171624785646796
1733768038275447800,9.24944775390625,0.9023568362474441,0.22409283302426336,0.5648603268831968
1733768038285408000,9.259407958984376,0.5341080457448959,0.27429157291054723,0.30223551862984893
1733768038295369000,9.269368896484375,0.07704232314825057,0.13392214823365212,0.14780951154977082
1733768038305329000,9.279328857421875,-0.3629310295458883,-0.05812661027610302,0.006327595586329698
1733768038315289000,9.2892890625,-0.7840417147293687,-0.20494331139624117,-0.31396409647688267
1733768038325249000,9.2992490234375,-1.4480010060071944,-0.02328676756322384,-0.7094260342061519
1733768038335209700,9.309209716796875,-1.8636358170628546,0.4593880280643701,-0.9093138157784938
1733768038345170000,9.319169921875,-2.2392633196398615,0.8744844944596291,-0.8891359740160405
1733768038355129900,9.3291298828125,-2.658476865965128,1.2069336573064327,-0.9523357228379696
1733768038365089800,9.33908984375,-3.3235084626495834,1.186571252757311,-0.9895090499997138
1733768038375051000,9.349051025390626,-3.9914790353953835,0.9838292507976293,-0.7700590012799948
1733768038385011000,9.359010986328125,-4.218614012594521,0.9274310717493295,-0.37312121884450317
1733768038394971000,9.368970947265625,-4.13051311981529,1.5606915656417608,0.26224413837268945
1733768038404932000,9.37893212890625,-3.853505273683369,3.518572185066342,1.3584567825518548
1733768038414892000,9.38889208984375,-3.5454330117240547,6.290877090263367,2.6111416988164184
1733768038424852000,9.39885205078125,-3.4361394010514017,7.772454787179827,3.5971477091312405
1733768038434812000,9.40881201171875,-3.3934859619781372,6.621436493840814,4.009489323860406
1733768038444772900,9.41877294921875,-3.3323838430225847,4.08359793164432,3.7754946900248525
1733768038454732800,9.42873291015625,-3.656051441259682,1.5768804838985204,2.8122698358386753
1733768038464692700,9.438692626953125,-3.5121032813131805,-0.1937356886833906,0.8886784395068883
1733768038474654000,9.448654052734375,-2.6167817505300044,-0.10546703812181948,-0.9621714726757258
1733768038484614000,9.45861376953125,-1.7422352967500685,0.7729004352509975,-1.6384391144499182
1733768038494573800,9.46857373046875,-0.8137652373418212,1.1928700606405733,-1.6925706637404858
1733768038504534000,9.478533935546874,-0.2697369783461094,1.0338187318474055,-1.6487784298956394
1733768038514495000,9.488494873046875,-0.11629311417117714,0.1635328581213951,-1.10262652980946
1733768038524455000,9.498454833984376,-0.26055764659047126,-0.6694377226889133,-0.4809568857938051
1733768038534415000,9.5084150390625,-0.45631066644564267,-0.9334194985091686,0.015352029041200876
1733768038544375800,9.518375732421875,-0.27061843735575675,-0.7285977676659822,0.3663470485344529
1733768038554335700,9.528335693359375,0.1556722077488899,-0.4223877924472093,0.3670680562853813
1733768038564296000,9.5382958984375,0.6241114842098205,-0.21055179892778395,0.10747004850730299
1733768038574255900,9.548255859375,1.2107272043704986,0.06324176133275032,-0.33595483288019895
1733768038584216800,9.558216796875,1.8643582861185073,0.2538227853775024,-0.6957393080286681
1733768038594177000,9.568177001953124,2.5754396863162516,0.650088879096508,-0.975488561823219
1733768038604137000,9.578136962890625,3.091827366453409,0.8685814078956842,-1.1207232544489205
1733768038614098000,9.588097900390625,3.24335706757009,0.7000625780552625,-0.8611867675997317
1733768038624058000,9.59805810546875,3.3027456606060266,0.24084698394834994,-0.43514819756001233
1733768038634018000,9.60801806640625,3.169340814244747,-0.17395605245828627,-0.08063932472690939
1733768038643978000,9.61797802734375,2.9819360821485517,-0.6895423530846834,0.10765636485964059
1733768038653939000,9.62793896484375,2.618193955415487,-1.1705249578416346,0.3481028051830828
1733768038663899000,9.63789892578125,2.283111521455645,-1.5215788679152726,0.7091961709730327
1733768038673858800,9.64785888671875,2.0740520069122312,-1.639815955761075,0.9269346665345132
1733768038683819000,9.657819091796876,1.848726417222619,-1.5096341630995274,1.0026296667270362
1733768038693780000,9.667780029296875,1.6848831779778002,-1.1557646110832691,0.998405911552161
1733768038703740000,9.677739990234375,1.6015665968656538,-0.6764215902268886,0.7461804783686995
1733768038713700000,9.6877001953125,1.562498322802782,-0.015624270111322402,0.569722453026846
1733768038723661000,9.6976611328125,1.3916793993264436,0.1486357332408428,0.32140535239353774
1733768038733621000,9.70762109375,1.239424891066551,0.25609189935326576,0.1396900641106069
1733768038743581200,9.717581298828126,1.266889236575365,0.30821137816905975,-0.10466668152436613
1733768038753541000,9.727541015625,1.3319792561233044,-0.01619651704132557,-0.43397104353941973
1733768038763501800,9.737501708984375,1.420038063326478,-0.4366717538654804,-0.7650348895076662
1733768038773462000,9.7474619140625,1.324849842634797,-0.6799152775615454,-1.08378278619498
1733768038783422000,9.757421875,1.1740355963110922,-0.7097445986360311,-1.3913248868003487
1733768038793383000,9.7673828125,1.1939314793270082,-0.5784112978518009,-1.7902242516323923
1733768038803343000,9.777343017578126,1.170779809385538,-0.4160708643853664,-2.071223505488038
1733768038813303000,9.787302978515624,0.9131956987131387,-0.3230798614770174,-2.2103873537674543
1733768038823264000,9.797263916015625,0.531285974061489,-0.3424789739519358,-2.1172005360260604
1733768038833224000,9.807223876953126,0.13229827335886657,-0.3416191422522068,-1.9392431389719247
1733768038843183900,9.817183837890624,-0.18017134677655994,-0.24397943675518036,-1.8176725227892399
1733768038853143800,9.827143798828125,-0.15165880738906562,-0.14225100063979626,-1.6766618775993585
1733768038863105000,9.83710498046875,0.022091493364050984,-0.14771160413324833,-1.4694497444882988
1733768038873065000,9.84706494140625,0.2074568285871297,-0.22590894253551957,-1.2897177389770746
1733768038883025000,9.85702490234375,0.1870698010534048,-0.29153613770008086,-1.2235831788122653
1733768038892984800,9.86698486328125,-0.06452062216214835,-0.37863691352605816,-1.0350547033831476
1733768038902946000,9.876946044921874,-0.32433716806173324,-0.3491021914839744,-0.6956590823993086
1733768038912906000,9.886906005859375,-0.4819668665539473,-0.23232874644994733,-0.44230449905544517
1733768038922866000,9.896865966796875,-0.3084088004373014,-0.3643845162898302,-0.29887627132982014
1733768038932827000,9.906826904296874,0.03982639895379543,-0.7243336804807186,-0.038078093981742854
1733768038942786800,9.916786865234375,0.1567306307606399,-1.262805182132125,0.4895020112991333
1733768038952746800,9.926746826171875,-0.07896371966488659,-1.963750388240814,1.232699674464762
1733768038962707000,9.93670703125,-0.639129605121538,-2.568385091629624,2.0079946036368606
1733768038972668000,9.94666796875,-1.2086221949152647,-3.017333558744192,2.64462515848428
1733768038982627800,9.9566279296875,-1.4210335041046143,-3.1024305935323238,2.938586769765615
1733768038992588000,9.966588134765624,-1.5741268012762069,-2.9346921004146336,2.4924001685798167
1733768039002549000,9.976549072265625,-3.0313872185379265,-2.510357850074768,1.9880147686645386
1733768039012509000,9.986509033203125,-7.287302787783742,-1.1591530844777822,2.0758853598192335
1733768039022469000,9.99646923828125,-7.722166615444421,-1.9963684632509946,0.6663990856453776
1733768039032429000,10.006428955078125,-3.854113468709588,-3.673575115251541,-0.12849807735830546
1733768039042389800,10.0163896484375,1.8207739959359168,-3.4138983431488272,0.08013707429319619
1733768039052350000,10.026349853515624,5.987295709982514,-0.5172989497631788,-0.25003771388083695
1733768039062310000,10.036309814453125,7.5532362821936605,3.604493395718932,-1.8321689579144118
1733768039072270800,10.046270751953125,8.45500450489819,6.243547183811664,-3.766612295389175
1733768039082231000,10.05623095703125,8.479225922963023,6.292152517026662,-5.198873295950889
1733768039092191000,10.06619091796875,6.264786371195316,3.6228403687924144,-5.186772523790598
1733768039102151000,10.07615087890625,3.344858709192276,-0.669475716611743,-4.537832814729214
1733768039112112000,10.086112060546874,1.2631021192520857,-3.3018408207207917,-4.570208313155174
1733768039122072000,10.096072021484375,1.3885598060011863,-1.9616028548181055,-5.111187998235225
1733768039132032000,10.106031982421875,1.857976476126909,0.04028291054964065,-5.135857160067558
1733768039141993000,10.115992919921876,1.3480191212981938,0.19340368025004862,-3.9115582342013715
1733768039151953000,10.125952880859375,0.8178437388271093,-0.10582944169342517,-2.4165564075663686
1733768039161912800,10.135912841796875,0.6226274561971425,-0.14010405173897741,-1.1908169275030493
1733768039171874000,10.1458740234375,0.3952811743348837,0.1699035621970892,0.14931523993760346
1733768039181834000,10.155833984375,0.20690083867218345,0.6656465137124061,1.0627144983988255
1733768039191794000,10.1657939453125,-0.09912208954188972,1.5440958201497792,1.6606351641669868
1733768039201753900,10.17575390625,-0.28447567952824754,2.431478959149122,2.4224106865525243
1733768039211714600,10.185714599609375,-0.14489594392431898,2.7024393418103454,3.334857539659738
1733768039221674500,10.195674560546875,0.2040788035213947,2.3959306759059427,4.04958109575212
1733768039231634400,10.205634521484376,0.3243909440755844,1.8453005344271658,4.158227932953834
1733768039241595400,10.215595458984374,0.23862054007053374,1.4613696061462162,3.81112071467936
1733768039251555300,10.225555419921875,-0.06051087506413459,1.1354764408141373,3.428597315108776
1733768039261515300,10.235515380859376,-0.30259879898428915,0.7755658550679683,3.2201153081923723
1733768039271475500,10.245475341796874,-0.3385737832069397,0.42514205959141255,3.0673949359863997
1733768039281436400,10.2554365234375,-0.42190673093199726,0.252822083902359,2.8084423865050074
1733768039291396400,10.265396240234375,-0.3405237482309341,0.14238953232765197,2.4668942636623976
1733768039301356500,10.2753564453125,-0.44180615761186925,0.013382628664374351,2.3439251788586377
1733768039311317500,10.2853173828125,-0.7247837623357772,-0.2624158416777849,2.0663234584867953
1733768039321277400,10.29527734375,-0.6509294215738773,-0.47312370795011516,1.8084356156274675
1733768039331237600,10.305237548828124,-0.20166008847448974,-0.7074480121314525,1.60225428686887
1733768039341197600,10.315197509765625,0.13339140235781669,-0.78330258679986,1.3321062435038387
1733768039351158300,10.325158203125,0.45625323716998095,-0.7902145581454039,1.1477036158330738
1733768039361118500,10.335118408203124,0.6119184306561947,-0.6918693347275257,0.9017658846169709
1733768039371078400,10.345078369140625,0.8905858074981718,-0.4309019382923841,0.4632672075852751
1733768039381039400,10.355039306640625,0.985358944582939,0.11759352924525737,-0.3110154758043587
1733768039390999600,10.36499951171875,0.8644481805484742,0.383092723891139,-0.8237954137731343
1733768039400959500,10.37495947265625,0.578597102747485,0.1162193182826042,-1.1023840993557126
1733768039410919400,10.38491943359375,0.06493570576906203,-0.015502105036377906,-1.4432881521411238
1733768039420880600,10.394880615234374,-0.39023748107925055,-0.21321371161341665,-1.591452614608407
1733768039430840600,10.404840576171875,-1.2382850733816624,-0.7863193042725324,-1.4141196330629289
1733768039440800500,10.414800537109375,-1.6228149904690683,-1.1181336763471363,-1.2757502961620688
1733768039450761500,10.424761474609374,-1.3611762706436217,-1.6315864720761775,-0.7385991563942284
1733768039460721400,10.434721435546875,-1.3776960282899438,-2.4809657513737675,-0.17244557483009992
1733768039470681300,10.444681396484375,-1.575019950723648,-2.8179443743437527,-0.30630788263529535
1733768039480641300,10.454641357421876,-1.346055858401209,-2.2988246388942004,-0.6294430544961244
1733768039490602500,10.4646025390625,-0.8868703671716153,-1.3526263228327036,-1.037501585078612
1733768039500562400,10.4745625,-0.41191038370504973,-0.6135358027249574,-1.4025238878153263
1733768039510522400,10.4845224609375,-0.2608358790099621,-0.3685357907503843,-1.2663099753826856
1733768039520483600,10.494483642578125,-0.39903789651989935,-0.5060989258348941,-0.8050738352335989
1733768039530443500,10.504443603515625,-0.5837845153227448,-0.7122656415462494,-0.5006391991242766
1733768039540403500,10.514403564453126,-0.9911559404239058,-0.7924339877605437,-0.03492620582208037
1733768039550364400,10.524364501953125,-1.7692508755780756,-0.557315902853012,0.5969379383411259
1733768039560324400,10.534324462890625,-2.4786966373980044,-0.0263426480025053,1.2662294574923814
1733768039570284300,10.5442841796875,-2.95899038310796,0.8270037813603878,1.9725722848609089
1733768039580244500,10.554244384765624,-3.1755019672229885,1.8700848470717668,2.569207513928413
1733768039590205400,10.564205322265625,-3.1706632950201628,2.8236124831080436,3.169930012309551
1733768039600165400,10.574165283203126,-2.977224835717678,3.730949445855617,3.8952208473846315
1733768039610125600,10.58412548828125,-2.653947698102891,5.594857650119066,4.434250859701633
1733768039620086500,10.59408642578125,-2.2384464502990244,8.520949679970741,4.700303596577048
1733768039630046500,10.60404638671875,-2.0203310842491686,10.462612155044079,4.719892678666114
1733768039640006700,10.614006591796874,-2.1637004213944078,9.154580176219344,3.832162041403353
1733768039649966600,10.623966552734375,-2.700646028652787,5.585235250771046,1.650937799886614
1733768039659927300,10.63392724609375,-2.7335794532224535,2.1295038450211283,-1.2423254348136483
1733768039669887500,10.643887451171874,-2.1926313323244453,-0.2761497679978609,-3.9185859408810733
1733768039679847400,10.653847412109375,-2.7206907455548643,-1.055181253349781,-5.8391538977384565
1733768039689808400,10.663808349609376,-3.1592037433728573,-1.6963918294638394,-6.00636339854598
1733768039699768600,10.6737685546875,-2.4526819061756133,-1.1674240692168474,-4.445674170991778
1733768039709728500,10.683728515625,-1.5083632663808761,0.5183247856795787,-2.9054879255011676
1733768039719688400,10.6936884765625,-1.0137130785383284,1.3797428778171539,-1.8671382722258567
1733768039729649700,10.703649658203124,-0.6647707537911832,1.5574369477599859,-1.1205588576674461
1733768039739609600,10.713609619140625,-0.1983727738995105,1.9191390930980443,-0.6827174024354666
1733768039749569500,10.723569580078125,0.3940788128077984,2.1351900739639995,-0.4957990656167268
1733768039759530500,10.733530517578124,1.378534086549282,2.0922744768232104,-0.6696265232592821
1733768039769490400,10.743490478515625,2.342176873886585,1.4935679944396019,-1.0155918780222535
1733768039779450400,10.753450439453125,2.760367214643955,1.0184925678998231,-1.009688206936419
1733768039789410300,10.763410400390624,3.1528701564371584,0.48166065014898773,-0.7186164718776941
1733768039799371500,10.77337158203125,2.711356223237514,-0.525698529317975,-0.012035305708646773
1733768039809331500,10.78333154296875,2.2033447417795657,-1.2935937036275862,0.8826755458302795
1733768039819291400,10.79329150390625,1.8645500092983245,-1.9365426478415726,1.3902386989988387
1733768039829252600,10.803252685546875,1.5895757148206233,-2.048823457631469,1.8547407090760766
1733768039839212500,10.813212646484375,1.8934861809253691,-1.7959627952843904,2.263808708962053
1733768039849172500,10.82317236328125,1.9858242728829383,-1.4166782315045594,2.4318797950349746
1733768039859133400,10.833133544921875,2.1823960617750884,-0.6198205820828676,2.756421107366681
1733768039869093400,10.84309326171875,2.3823802894592285,0.18734218825399873,3.064247285610437
1733768039879053300,10.85305322265625,1.9227309801101684,0.30805005012750625,2.9980224168136713
1733768039889013500,10.863013427734375,1.6298983728587626,0.3057768444985151,2.9966549278527497
1733768039898974500,10.872974365234375,1.105432015684247,0.37782793523073194,2.821464949685335
1733768039908934400,10.882934326171876,0.3634925358861685,0.2961445082783699,2.289876777806878
1733768039918894600,10.89289453125,-0.380617858210206,0.07746317890882491,1.650349332474172
1733768039928855300,10.902855224609375,-0.9724433489084243,-0.15296411783397196,1.0552735347431152
1733768039938815200,10.912815185546876,-1.2200497439891098,-0.27996435784995555,0.49280112590976055
1733768039948775400,10.922775390625,-1.2262111892282963,-0.19815525869131087,-0.04024652406200766
1733768039958735400,10.9327353515625,-1.0303519325196742,0.07466098096966743,-0.5950923835396766
1733768039968696300,10.9426962890625,-0.7359364399909972,0.45236850469112394,-1.166385227688402
1733768039978656500,10.952656494140625,-0.18494031474404035,0.8481243108004332,-1.542170551175624
1733768039988616400,10.962616455078125,0.5242892470419407,1.1773293771594762,-1.6862161801472306
1733768039998577400,10.972577392578126,1.2904080593287943,1.1420926440834998,-1.2274250950627028
1733768040008537600,10.98253759765625,2.040896171763539,0.8242799093544483,-0.5258638028822838
1733768040018497500,10.99249755859375,2.632498959621787,0.47355333153903484,-0.247175748578459
1733768040028458200,11.002458251953126,3.152169899213314,0.018979425758123395,-0.10547405238449573
1733768040038418400,11.01241845703125,3.53657312118113,-0.4469885652184486,-0.046299704887438564
1733768040048378400,11.02237841796875,3.5876755319088693,-0.850500392282009,-0.11572568954676389
1733768040058338300,11.03233837890625,3.367648633149266,-1.2255208688765764,-0.29678631331324573
1733768040068299500,11.042299560546875,3.035359044778347,-1.5455729069650173,-0.4604981812633574
1733768040078259500,11.052259521484375,2.662473242124915,-1.6551006186544894,-0.6254135797843337
1733768040088219400,11.062219482421876,2.3167484181195497,-1.5291396585583685,-0.7726981906771659
1733768040098179300,11.072179443359374,2.0664527839548885,-1.2139590258985757,-0.9246858646944165
1733768040108140500,11.082140625,1.8267425489515066,-0.9433020100980997,-1.093308958626911
1733768040118100500,11.0921005859375,1.792468523427844,-0.8471300390660762,-1.1820087671473622
1733768040128060400,11.102060302734374,1.978338885563612,-0.8769529303997754,-1.275572309246659
1733768040138021400,11.112021484375,2.372098549419641,-1.1190648197174071,-1.2547609918862581
1733768040147981300,11.121981201171875,2.8634581712841984,-1.4123901789218187,-1.2006589609511196
1733768040157941200,11.131941162109374,2.9788123971700666,-1.6263129155874252,-1.1915939032249152
1733768040167902500,11.14190234375,3.0922885542243717,-2.005056796619296,-1.2786197141185403
1733768040177862400,11.1518623046875,3.103323158457875,-2.3481793291717765,-1.2600965076953172
1733768040187822300,11.161822265625,3.152984722727537,-2.563700148683786,-1.2025086074057967
1733768040197782500,11.171782470703125,3.022258740186691,-2.6368121466457843,-0.9841381706163287
1733768040207744500,11.18174462890625,2.7554005321472883,-2.693911751961708,-0.6622635202106087
1733768040217704400,11.191704345703124,2.426000381607562,-2.738421924817562,-0.35909090339373795
1733768040227664400,11.201664306640625,2.0751735582880673,-2.6656021878004075,-0.07459894858412444
1733768040237625600,11.21162548828125,1.5443242220781743,-2.350377131476998,0.21579989218171686
1733768040247585500,11.22158544921875,0.9577443769484758,-1.7775678914159536,0.4253627896700054
1733768040257545500,11.23154541015625,0.030866116776317357,-1.0043705190449952,0.7043362367864697
1733768040267505700,11.241505615234376,-2.171860639235377,0.3490636130392551,1.3193553368717432
1733768040277466600,11.251466552734374,-6.3509799690485,2.868655155405402,1.5025526804059743
1733768040287426600,11.261426513671875,-9.734239428305626,3.4268297209143634,1.2337456763863563
1733768040297386800,11.27138671875,-7.559142875888943,-0.013941431590914726,0.8142835621275007
1733768040307347500,11.281347412109374,-6.8420601894497866,-1.0566729532122612,-0.035267804067675025
1733768040317307400,11.291307373046875,-8.32773538481295,-0.36201077289581296,-1.125947638033703
1733768040327267600,11.301267578125,-4.392353499692678,-1.5931617566138505,-1.6458236717432737
1733768040337227500,11.3112275390625,1.6637760925412177,-2.607942025992274,-1.6352609228052197
1733768040347188500,11.3211884765625,4.441577257066965,-0.8701765681326389,-2.7576176236748693
1733768040357148700,11.331148681640625,6.3191621045053,2.7629233288675543,-4.65367511639297
1733768040367108600,11.341108642578124,7.777071925586462,6.455204313632845,-6.839544407236576
1733768040377069600,11.351069580078125,7.030962466627359,7.757600916919111,-7.570874814736842
1733768040387029800,11.36102978515625,3.975598160174489,5.55174974527657,-7.6870274975240225
1733768040396989700,11.37098974609375,2.4179051918268204,2.283330717164278,-6.243395208120345
1733768040406950400,11.380950439453125,2.6187895832210777,0.9707587568223476,-4.455618057379127
1733768040416910600,11.39091064453125,1.9917171303138135,-0.7302461193948984,-2.995626169326901
1733768040426870500,11.40087060546875,1.3699334314644336,-2.543914082717895,-1.6415037627175448
1733768040436830500,11.41083056640625,1.1868695050515234,-2.6445699211657048,-0.590748618714325
1733768040446791700,11.420791748046875,1.4390432080477475,-1.1454331866830587,0.584442394709587
1733768040456751600,11.430751708984374,2.0110415701173245,0.7327192315101623,1.916486678893119
1733768040466711600,11.440711669921875,2.6242028404414652,2.039478706181049,3.3670822314381597
1733768040476672800,11.4506728515625,2.6620389423608777,2.5096371345847843,4.723055526611208
1733768040486632700,11.4606328125,2.090997881016135,2.1219132437616586,5.600541540974378
1733768040496592600,11.470592529296875,1.5675187813133,1.2026245619356632,5.729567733860016
1733768040506552600,11.480552490234375,0.7923731974840164,0.7812053222596644,5.527568659222125
1733768040516513500,11.490513427734374,-0.057394752337597305,0.5904711534798145,4.776291442236304
1733768040526473500,11.500473388671875,-0.2781909001703374,0.13033376835286617,4.2343455424726
1733768040536433400,11.510433349609375,-0.47873511809110636,-0.7294815647631884,4.065338929115236
1733768040546394600,11.52039453125,-0.3324105844020843,-1.3049305056780576,3.639275955286622
1733768040556354600,11.5303544921875,-0.4471054695963859,-1.5574369477599859,2.989876812019944
1733768040566314500,11.540314453125,-0.48275078347325323,-1.5860755977451801,2.111945684237778
1733768040576274700,11.550274658203126,-0.40782559860944745,-1.4835335071593523,1.0492153306826948
1733768040586235600,11.560235595703125,-0.298788885307312,-1.2574123831778763,0.1321298579894006
1733768040596195600,11.570195556640625,-0.23862525277826935,-1.0369704738765955,-0.4041962291311472
1733768040606155500,11.580155517578126,-0.41251459667589513,-1.0913204882234335,-0.6363408511858433
1733768040616116500,11.590116455078125,-0.1791395925760269,-1.082048802009225,-1.00496278584972
1733768040626076400,11.600076416015625,-0.16371522895097732,-0.6699521019518375,-1.507892872390151
1733768040636036600,11.61003662109375,-0.1742600038409233,-0.2915782232761383,-1.9713287145406007
1733768040645997600,11.61999755859375,-0.3742891666453331,0.5126835649222136,-2.72504426458925
1733768040655957500,11.62995751953125,-0.48566864368133245,0.9123854783087968,-3.22574162364155
1733768040665917700,11.639917724609376,-0.6667103435516357,0.5833031615465879,-3.071077423891425
1733768040675877600,11.649877685546874,-0.9384687447227537,0.2406651976406574,-2.716750775757432
1733768040685838300,11.65983837890625,-0.7496038769461214,0.09888473712205886,-2.497427933613956
1733768040695798500,11.669798583984376,-0.8613374281167984,0.1776537379324436,-2.1908787895686923
1733768040705758500,11.679758544921874,-1.1111739203371107,0.1986462570786476,-1.5817930981203914
1733768040715719400,11.689719482421875,-1.2981681719362734,0.28522154772579666,-0.9720992116458713
1733768040725679600,11.6996796875,-1.260286331178993,0.40401159327924246,-0.6135697049945592
1733768040735639600,11.7096396484375,-1.0757251519456505,0.23885025717318056,-0.31357568168118594
1733768040745599500,11.719599609375,-1.037436483953148,-0.15242577317357062,0.028779885086789726
1733768040755560700,11.729560791015626,-1.0233353317558764,-0.39786066943407056,0.5054274563141167
1733768040765520600,11.739520751953124,-1.0952502288877963,-0.5276426491230726,0.983339129193127
1733768040775480600,11.74948046875,-1.165083205179125,-0.7242308046281337,1.346129654289782
1733768040785441500,11.759441650390626,-1.213093056719005,-0.7006839248239993,1.6962421918600796
1733768040795401500,11.7694013671875,-1.1882929619833826,-0.07417641232311725,2.2053620729513463
1733768040805361400,11.779361328125,-1.2233072844803332,1.4933967295259236,2.891540940952301
1733768040815321600,11.789321533203125,-1.272984776971489,4.049941161236167,3.722922499005496
1733768040825282600,11.799282470703124,-1.1796731638066469,6.909795170548557,4.618827674895525
1733768040835242500,11.809242431640625,-1.1417900078751146,9.15162015736997,5.540237586659193
1733768040845202700,11.81920263671875,-1.1526955789014697,9.639106152671575,5.872296288883685
1733768040855163600,11.82916357421875,-0.9710092244520783,7.0645046707451336,5.075341024306416
1733768040865123600,11.83912353515625,0.06401245344430208,3.042885348629951,2.8279660021424293
1733768040875083800,11.849083740234375,0.6562115997605026,0.3874655321478844,0.3163810944907367
1733768040885043700,11.859043701171874,0.6837015181019902,-0.5743044470548629,-1.7757604036025703
1733768040895004400,11.86900439453125,-1.185411707458645,-0.9989818117439746,-3.3948362075433134
1733768040904964600,11.878964599609375,-4.107831040146946,-2.0802754114717246,-4.6265775583699345
1733768040914924500,11.888924560546876,-4.1309915509819986,-1.098626427322626,-5.370562572520971
1733768040924885500,11.898885498046875,-4.003834951360523,0.17274024692773818,-5.031818693444133
1733768040934845700,11.908845703125,-4.6790617788448925,0.25426176131665706,-3.427336209131777
1733768040944805600,11.9188056640625,-5.5288534383356565,-0.03676993399262428,-1.542005862133205
1733768040954766600,11.9287666015625,-5.86779430128932,-0.40118952159583565,0.12518807602748275
1733768040964726800,11.938726806640625,-5.338279428553581,-0.14907237109243868,1.0278438952215014
1733768040974686700,11.948686767578126,-3.8960800945624707,0.43664603490233417,1.1691565920978784
1733768040984646700,11.958646728515625,-2.3923266600646076,0.9916969154328107,1.104272762646526
1733768040994607600,11.968607666015625,-1.1137855641402303,1.1215917078465223,1.1846242103427649
1733768041004567600,11.978567626953126,-0.0008557400465011596,1.0138812747120856,1.5298198959074913
1733768041014527500,11.988527587890625,1.1223941833358257,1.2596984482884406,1.5993893989570438
1733768041024488700,11.99848876953125,2.235867539721727,1.2620014645338058,1.3595230966091154
1733768041034448600,12.00844873046875,3.0027555828154084,0.6182061326235533,1.2235880011178553
1733768041044408600,12.01840869140625,3.4977883402347563,-0.47424423641264435,1.2828579362101853
1733768041054368500,12.028368408203125,3.583717734193802,-0.7804886984229087,1.4015392606921493
1733768041064329700,12.038329833984376,3.837628197854757,-0.41834114740490913,1.3358752406485377
1733768041074289700,12.04828955078125,4.205789310073852,-0.19095687161982058,1.398579095712304
1733768041084249600,12.05824951171875,4.130958817756175,-0.04879296474158763,1.4754611137323081
1733768041094210600,12.06821044921875,3.585371931141615,-0.12779518978595733,1.4203575045391916
1733768041104170500,12.07817041015625,3.016380788064003,-0.24774434224665162,1.30136857541278
1733768041114130400,12.08813037109375,2.6952549832642076,-0.24702538032233715,1.158652587609738
1733768041124091600,12.098091552734376,2.378264670833945,-0.14713643459379672,0.943748877082765
1733768041134051600,12.108051513671874,1.9038480004638432,0.004584989702701568,0.6791679663255811
1733768041144011500,12.118011474609375,1.3123252921044826,0.012606383594870567,0.3686941961824894
1733768041153971700,12.1279716796875,0.7846767977625131,-0.036055648243427274,0.22041809003427623
1733768041163932700,12.1379326171875,0.4916226567149162,-0.06504091970920563,0.2663185482047498
1733768041173892600,12.147892578125,0.3933884559234604,-0.02504208679795265,0.334410526047647
1733768041183852800,12.157852783203126,0.2244576112160459,0.009688450321555138,0.2778589100033045
1733768041193813500,12.1678134765625,0.10011343866679817,0.10653262152671814,0.16259623485840857
1733768041203773400,12.1777734375,0.12303250542879104,0.31143150925934315,0.18687639737315476
1733768041213732900,12.18773291015625,0.18745854464266448,0.3461719832509756,0.31056700138449667
1733768041223693000,12.197693115234374,0.28427637583017346,0.2851508205771446,0.510395307854563
1733768041233654000,12.207654052734375,0.4204542305687442,0.015074819535017013,0.570868554322049
1733768041243614000,12.217614013671875,0.6307288565229624,-0.21438743156790732,0.46594928627610205
1733768041253574100,12.22757421875,0.8788549646288156,-0.34653964751958843,0.25820246176645156
1733768041263535000,12.23753515625,1.1896108396489173,-0.3804056767642498,0.0416658162754029
1733768041273495000,12.2474951171875,1.4687106165587902,-0.43649522825479503,-0.0339454876890406
1733768041283455200,12.257455322265624,1.6841566172689197,-0.6402028603762387,-0.009518610179983079
1733768041293415200,12.267415283203125,1.8549632657855748,-0.9155839820891618,0.061563270193897186
1733768041303376000,12.2773759765625,1.8459435085058211,-1.041370754662156,0.11219225472360848
1733768041313336000,12.287336181640624,1.8165566705018281,-1.061194230028987,0.14706892231553792
1733768041323296000,12.2972958984375,1.9324239604763687,-1.0842103639572858,0.1534501295189373
1733768041333257000,12.307257080078125,1.9646593197792768,-0.9620113867431879,0.10669614152535796
1733768041343217200,12.317217041015626,1.8746563927710056,-0.7557453023105859,0.014233692535758017
1733768041353177000,12.327177001953125,1.8066577922999858,-0.5809691656410694,-0.01663622134955367
1733768041363137000,12.337136962890625,1.540519130706787,-0.47663785355091093,0.00026990298256278036
1733768041373098200,12.34709814453125,1.2396984473109245,-0.49590018790364265,-0.06525792346075177
1733768041383058200,12.35705810546875,1.1461113051403313,-0.7325760236471891,-0.12192864497327245
1733768041393018000,12.36701806640625,0.967013140553236,-0.9555144259393215,-0.1278672321088612
1733768041402979000,12.37697900390625,0.7651163572460412,-1.195455400958657,-0.09515139581263064
1733768041412939000,12.38693896484375,0.7731938652396202,-1.484192263329029,0.011261544857174158
1733768041422899000,12.39689892578125,0.9433751483995467,-1.7924375437676905,0.20462794357044622
1733768041432859100,12.406859130859376,1.2206010211963205,-1.9930080469071865,0.4917502286173403
1733768041442820000,12.416820068359375,1.4938140781551599,-1.9454928470164536,0.6969836090013385
1733768041452780000,12.426780029296875,1.471842192582786,-1.6404279501795769,0.7956399441950023
1733768041462740200,12.436740234375,1.1299112079024314,-1.2273662044823168,0.6931731108024716
1733768041472701200,12.446701171875,0.5185843864638358,-0.7138268995136022,0.45675062876548617
1733768041482661000,12.4566611328125,-0.2048794523797929,-0.25485329746901986,0.11791877914424985
1733768041492621000,12.46662109375,-0.9353916753649711,0.01737374412715435,-0.017124591671675442
1733768041502582000,12.47658203125,-1.6487863209411502,0.15961480789482593,0.3846878110628575
1733768041512542000,12.4865419921875,-2.0778985993377863,0.2395978606700897,1.2380214540094137
1733768041522502100,12.496502197265626,-2.077664936712384,0.366001888358593,2.0084249578781423
1733768041532462000,12.506462158203124,-1.8949751043088734,0.5589186618745327,2.4295664035260676
1733768041542423000,12.516423095703125,-1.74754801620543,0.6498959868729114,2.4202486862130463
1733768041552383200,12.52638330078125,-1.7095716290324925,0.5113397490978241,2.0626696121543646
1733768041562343200,12.53634326171875,-1.8965929147690535,0.17172493240535258,1.5025138097003101
1733768041572304100,12.54630419921875,-2.3690981985598802,0.09849778363108634,0.9332692763835191
1733768041582264000,12.55626416015625,-3.4906080733418463,1.5071154582768678,0.4636033807370811
1733768041592224000,12.56622412109375,-2.98788885307312,3.2274966506153344,-0.34419315745867785
1733768041602184000,12.576183837890625,2.6816952444672584,2.959283520835638,-2.666925253097713
1733768041612145200,12.586145263671876,4.792009820371866,2.7620062140226365,-4.241183864060044
1733768041622105000,12.59610498046875,4.739150336843728,2.3359213206231595,-4.398036806026101
