time,seconds_elapsed,z,y,x
1733768029072170200,0.046170166015625,0.09170442074537277,-0.14186027646064758,-0.16439995169639587
1733768029082130400,0.05613037109375,0.09219977259635925,-0.18497632443904877,-0.15881051123142242
1733768029092091400,0.06609130859375,0.11937656253576279,-0.2213948518037796,-0.15328927338123322
1733768029102051300,0.07605126953125,0.14708809554576874,-0.24930772185325623,-0.13283859193325043
1733768029112011500,0.086011474609375,0.16350074112415314,-0.2695777714252472,-0.11199849098920822
1733768029121971500,0.095971435546875,0.1558966040611267,-0.29043567180633545,-0.11910700052976608
1733768029131932200,0.10593212890625,0.12810133397579193,-0.30430033802986145,-0.1335686892271042
1733768029141892400,0.115892333984375,0.06957730650901794,-0.3125002086162567,-0.1336270123720169
1733768029151852300,0.125852294921875,0.0009776563383638859,-0.3472817540168762,-0.1440325230360031
1733768029161812200,0.135812255859375,-0.053264275193214417,-0.3457605540752411,-0.155155748128891
1733768029171772400,0.1457724609375,-0.12234731018543243,-0.26551875472068787,-0.14107796549797058
1733768029181733400,0.1557333984375,-0.20531542599201202,-0.1575523465871811,-0.09569264203310013
1733768029191693300,0.165693359375,-0.28985166549682617,-0.04230207949876785,-0.0585046149790287
1733768029201653000,0.175653076171875,-0.36257487535476685,0.08367209136486053,-0.040475282818078995
1733768029211613200,0.18561328125,-0.390254944562912,0.11295826733112335,0.001394924009218812
1733768029221574100,0.19557421875,-0.38044944405555725,0.169899582862854,-0.0021313675679266453
1733768029231534000,0.2055341796875,-0.34604501724243164,0.16906096041202545,-0.07409762591123581
1733768029241494300,0.215494384765625,-0.32696107029914856,-0.0025685755535960197,-0.09261325001716614
1733768029251454200,0.2254541015625,-0.301816463470459,-0.037537187337875366,-0.021470043808221817
1733768029261414100,0.2354140625,-0.2491590827703476,0.0618882030248642,0.12456492334604263
1733768029271375000,0.245375,-0.2579861879348755,0.08077380061149597,0.27408525347709656
1733768029281335000,0.2553349609375,-0.3646404445171356,0.13620004057884216,0.39372241497039795
1733768029291295000,0.265294921875,-0.5057284832000732,0.09517651796340942,0.5226643085479736
1733768029301255000,0.2752548828125,-0.6188308000564575,-0.17495377361774445,0.5939928293228149
1733768029311215000,0.285215087890625,-0.6376721858978271,-0.6353722214698792,0.5229512453079224
1733768029321176000,0.295176025390625,-0.5601412057876587,-0.9826803803443909,0.4067799150943756
1733768029331136000,0.305135986328125,-0.398454874753952,-0.7107551693916321,0.5175893902778625
1733768029341096200,0.31509619140625,-0.2176896184682846,-0.5200682878494263,0.7937037944793701
1733768029351056100,0.32505615234375,-0.17763541638851166,-0.8296881914138794,0.7301778197288513
1733768029361017000,0.33501708984375,-0.18625366687774658,-1.0824662446975708,0.5117384195327759
1733768029370977300,0.344977294921875,-0.15361420810222626,-1.0023164749145508,0.7347120642662048
1733768029380937200,0.354937255859375,0.11454347521066666,-0.700274646282196,0.9791114330291748
1733768029390897200,0.364897216796875,0.5951739549636841,-0.020147450268268585,0.8036251068115234
1733768029400857000,0.374857177734375,1.1807730197906494,0.8555254936218262,0.5217095613479614
1733768029410818000,0.384818115234375,1.5397320985794067,1.6404958963394165,0.30531272292137146
1733768029420778000,0.394778076171875,1.4617358446121216,1.8674986362457275,0.1308557242155075
1733768029430738000,0.404738037109375,1.0170660018920898,1.198024868965149,0.23586240410804749
1733768029440698000,0.414697998046875,0.3377583920955658,0.0661078691482544,0.5199984908103943
1733768029450659000,0.4246591796875,-0.04623721167445183,-0.6769252419471741,0.6780792474746704
1733768029460619000,0.434618896484375,0.02807030826807022,-0.8242251873016357,0.6188843846321106
1733768029470579200,0.4445791015625,0.3878245949745178,-0.571603000164032,0.49468719959259033
1733768029480539100,0.4545390625,0.739208459854126,-0.11985953152179718,0.316105455160141
1733768029490500000,0.4645,0.8671715259552002,0.1434445083141327,0.10995372384786606
1733768029500460000,0.4744599609375,0.7953969240188599,0.08991976827383041,0.012821318581700325
1733768029510420000,0.484419921875,0.7108167409896851,-0.22248604893684387,0.018519049510359764
1733768029520380000,0.4943798828125,0.6867175698280334,-0.5988883972167969,0.042533837258815765
1733768029530339800,0.50433984375,0.6701765060424805,-0.892058789730072,0.060188014060258865
1733768029540301000,0.514301025390625,0.6247544288635254,-1.0705372095108032,0.12406153231859207
1733768029550261000,0.524260986328125,0.5828381180763245,-1.203360915184021,0.22310522198677063
1733768029560221000,0.534220947265625,0.568161129951477,-1.3796459436416626,0.3074304759502411
1733768029570181000,0.54418115234375,0.5919046998023987,-1.407041311264038,0.355085164308548
1733768029580141000,0.55414111328125,0.6490949988365173,-1.2362732887268066,0.3538806140422821
1733768029590102000,0.56410205078125,0.7322535514831543,-0.9887780547142029,0.3004080057144165
1733768029600062200,0.574062255859375,0.8148837089538574,-0.7475185394287109,0.20675663650035858
1733768029610022100,0.584022216796875,0.8608478903770447,-0.5517304539680481,0.10389648377895355
1733768029619982000,0.593982177734375,0.8844855427742004,-0.3686242699623108,-0.019816406071186066
1733768029629943000,0.603943115234375,0.9279894232749939,-0.22357933223247528,-0.1233157217502594
1733768029639903000,0.613903076171875,0.9558061361312866,-0.1666976809501648,-0.1843327432870865
1733768029649863000,0.62386279296875,0.950499415397644,-0.19765102863311768,-0.2568216323852539
1733768029659823000,0.633822998046875,0.9161280989646912,-0.200672909617424,-0.33001330494880676
1733768029669784000,0.6437841796875,0.8919081091880798,-0.1782226264476776,-0.388553261756897
1733768029679744000,0.653743896484375,0.9483181238174438,-0.17953157424926758,-0.4252218008041382
1733768029689704200,0.6637041015625,1.0585469007492065,-0.34834301471710205,-0.5008251070976257
1733768029699664100,0.6736640625,1.1103826761245728,-0.5342414379119873,-0.6918078660964966
1733768029709624000,0.6836240234375,1.07804274559021,-0.7322168350219727,-0.9952956438064575
1733768029719585300,0.693585205078125,1.143864631652832,-0.39556747674942017,-0.9771470427513123
1733768029729545200,0.703545166015625,1.5606876611709595,0.7013100385665894,-0.11584991216659546
1733768029739505200,0.713505126953125,2.6323068141937256,3.0114006996154785,2.755373477935791
1733768029749465000,0.723465087890625,1.8634175062179565,-0.6165420413017273,1.5454339981079102
1733768029759426000,0.733426025390625,-1.1558337211608887,-3.486971616744995,-1.4807031154632568
1733768029769386000,0.743385986328125,-3.3737456798553467,-3.3371999263763428,-1.7798603773117065
1733768029779346000,0.753345947265625,-2.947152853012085,-1.1331326961517334,0.5681530237197876
1733768029789306000,0.76330615234375,-0.5786051154136658,0.6539657115936279,3.127929449081421
1733768029799266000,0.77326611328125,1.0268898010253906,0.062036119401454926,3.4003047943115234
1733768029809227000,0.78322705078125,1.594360113143921,-0.955223798751831,1.8144382238388062
1733768029819187200,0.793187255859375,2.3497374057769775,-3.0371897220611572,-1.47709321975708
1733768029829147100,0.803147216796875,1.8333206176757812,-1.6218578815460205,-3.8373734951019287
1733768029839107000,0.813107177734375,0.49725404381752014,1.9446828365325928,-3.952336072921753
1733768029849068300,0.823068359375,-0.7775343060493469,4.599462032318115,-3.0415918827056885
1733768029859028200,0.8330283203125,-1.653605580329895,5.429942607879639,-2.2066404819488525
1733768029868988200,0.84298828125,-2.2658166885375977,4.505795478820801,-2.167639970779419
1733768029878948000,0.852947998046875,-2.747788906097412,2.1938705444335938,-3.031277894973755
1733768029888908000,0.862907958984375,-2.6754653453826904,0.36474987864494324,-3.566335916519165
1733768029898869000,0.872868896484375,-1.6830428838729858,0.9155994653701782,-1.8813573122024536
1733768029908829000,0.882828857421875,-0.8068777918815613,1.1202359199523926,-0.3418550193309784
1733768029918789000,0.8927890625,-0.7443470358848572,-0.48434361815452576,-0.883471667766571
1733768029928749000,0.9027490234375,-0.8052548170089722,-1.2727694511413574,-1.3352043628692627
1733768029938710000,0.9127099609375,-0.8106958866119385,-1.215294361114502,-1.328094482421875
1733768029948670200,0.922670166015625,-0.8105776309967041,-0.6609731912612915,-1.0940109491348267
1733768029958630100,0.932630126953125,-0.8361580967903137,0.03402931988239288,-0.900835394859314
1733768029968590000,0.942590087890625,-0.8353890776634216,0.7637474536895752,-0.8919054865837097
1733768029978550000,0.952550048828125,-0.7190691232681274,1.3312193155288696,-1.0880975723266602
1733768029988511000,0.962510986328125,-0.5910590291023254,1.6433902978897095,-1.3126611709594727
1733768029998471000,0.972470947265625,-0.5435807108879089,1.82597017288208,-1.3705981969833374
1733768030008430800,0.982430908203125,-0.5554060339927673,1.8701609373092651,-1.2534003257751465
1733768030018391000,0.99239111328125,-0.5985977053642273,1.7395168542861938,-1.0533108711242676
1733768030028352000,1.00235205078125,-0.6456731557846069,1.4962390661239624,-0.8338987231254578
1733768030038312000,1.01231201171875,-0.6646606922149658,1.2406229972839355,-0.6178745627403259
1733768030048272100,1.022272216796875,-0.6509519815444946,0.9908289313316345,-0.4234136939048767
1733768030058232000,1.032232177734375,-0.5886635780334473,0.7747368812561035,-0.26286450028419495
1733768030068193000,1.042193115234375,-0.5208452343940735,0.5005789995193481,-0.18579506874084473
1733768030078153200,1.0521533203125,-0.4613901376724243,0.2056586891412735,-0.18313883244991302
1733768030088113200,1.062113037109375,-0.4234859347343445,-0.1231742724776268,-0.17807185649871826
1733768030098073000,1.072072998046875,-0.43774768710136414,-0.48352792859077454,-0.0890575498342514
1733768030108033300,1.082033203125,-0.4917792081832886,-0.9189625382423401,0.08391283452510834
1733768030117994000,1.091993896484375,-0.570576548576355,-1.4318867921829224,0.2469819188117981
1733768030127954000,1.101953857421875,-0.6578072905540466,-1.9023998975753784,0.32492339611053467
1733768030137914000,1.1119140625,-0.6809129118919373,-2.2660014629364014,0.2928623855113983
1733768030147874000,1.1218740234375,-0.6516644358634949,-2.4235482215881348,0.18773391842842102
1733768030157835000,1.1318349609375,-0.6123066544532776,-2.4108526706695557,0.0406656414270401
1733768030167795200,1.141795166015625,-0.5700904130935669,-2.3102762699127197,-0.09260301291942596
1733768030177755100,1.151755126953125,-0.41686752438545227,-2.0258982181549072,-0.20556551218032837
1733768030187715000,1.161715087890625,-0.21899956464767456,-1.5486297607421875,-0.3319273293018341
1733768030197674800,1.1716748046875,-0.0391208715736866,-1.118213176727295,-0.4591366648674011
1733768030207636000,1.181635986328125,0.11314987391233444,-0.7696641683578491,-0.5550499558448792
1733768030217596000,1.191595947265625,0.19400638341903687,-0.4579097032546997,-0.6389294266700745
1733768030227555800,1.201555908203125,0.22613494098186493,-0.2408212274312973,-0.7412365078926086
1733768030237516000,1.21151611328125,0.2636679410934448,-0.053881168365478516,-0.8502026796340942
1733768030247476700,1.221476806640625,0.31458741426467896,0.05982948839664459,-0.9691920280456543
1733768030257436700,1.231436767578125,0.32445254921913147,0.09723012149333954,-1.0632472038269043
1733768030267396900,1.24139697265625,0.30047735571861267,0.0995970219373703,-1.1502633094787598
1733768030277356800,1.251356689453125,0.27647775411605835,0.052827388048172,-1.223012089729309
1733768030287317800,1.26131787109375,0.2394406944513321,0.0007841009646654129,-1.2862670421600342
1733768030297278000,1.27127783203125,0.199475958943367,-0.05611593276262283,-1.4266667366027832
1733768030307238000,1.28123779296875,0.10651908814907074,-0.08994147181510925,-1.632523536682129
1733768030317197800,1.29119775390625,-0.02633696049451828,0.028296485543251038,-1.8257968425750732
1733768030327158000,1.301157958984375,-0.15048357844352722,0.3601070046424866,-1.9365880489349365
1733768030337119000,1.311118896484375,-0.20882278680801392,0.7957274317741394,-2.007841110229492
1733768030347079000,1.321078857421875,-0.2403683215379715,1.2591941356658936,-2.074965715408325
1733768030357038800,1.331038818359375,-0.2988217771053314,1.7051793336868286,-2.1211745738983154
1733768030366998800,1.340998779296875,-0.3782033622264862,2.107302188873291,-2.086353063583374
1733768030376959700,1.350959716796875,-0.42692244052886963,2.49480938911438,-1.9255210161209106
1733768030386920000,1.360919921875,-0.40916454792022705,2.864193916320801,-1.6435508728027344
1733768030396880000,1.3708798828125,-0.3083186149597168,3.1276960372924805,-1.2568905353546143
1733768030406839800,1.38083984375,-0.10602466762065887,3.4299259185791016,-0.5712462663650513
1733768030416801000,1.390801025390625,0.24025391042232513,3.671138048171997,0.5521169304847717
1733768030426761000,1.400760986328125,0.6310716867446899,2.9497196674346924,1.5680475234985352
1733768030436721000,1.410720947265625,0.9925885796546936,1.3513284921646118,2.325546979904175
1733768030446680800,1.420680908203125,1.301703929901123,-0.23045222461223602,2.8722727298736572
1733768030456641000,1.43064111328125,1.5057220458984375,-1.2018370628356934,3.18699049949646
1733768030466601700,1.440601806640625,1.6289381980895996,-1.3376328945159912,3.3905625343322754
1733768030476561700,1.450561767578125,1.5799082517623901,-0.8778501749038696,3.4812943935394287
1733768030486521900,1.46052197265625,1.2711408138275146,-0.039294786751270294,3.4365553855895996
1733768030496481800,1.470481689453125,0.8582281470298767,0.8773391842842102,3.2369492053985596
1733768030506442800,1.48044287109375,0.5222369432449341,1.6416563987731934,2.9473776817321777
1733768030516403000,1.49040283203125,0.2557623088359833,2.169826030731201,2.673278331756592
1733768030526363000,1.50036279296875,0.07063322514295578,2.4948177337646484,2.452259063720703
1733768030536322800,1.51032275390625,0.009052423760294914,2.6849443912506104,2.3001410961151123
1733768030546284000,1.520283935546875,0.056468281894922256,2.608020544052124,2.1330630779266357
1733768030556244000,1.530243896484375,0.09233386814594269,2.1483848094940186,1.885192632675171
1733768030566204000,1.540203857421875,0.007436448708176613,1.372539758682251,1.553357481956482
1733768030576163800,1.550163818359375,-0.04812135174870491,0.5740112066268921,1.3083752393722534
1733768030586124800,1.560124755859375,0.03829972818493843,-0.16892877221107483,1.2191306352615356
1733768030596084700,1.570084716796875,0.1837053894996643,-0.7216625213623047,1.1933799982070923
1733768030606044700,1.580044677734375,0.2691660523414612,-1.0448447465896606,1.1421514749526978
1733768030616004900,1.5900048828125,0.3418530225753784,-1.2719473838806152,1.0139734745025635
1733768030625964800,1.59996484375,0.39172694087028503,-1.2869383096694946,0.7866014242172241
1733768030635925800,1.60992578125,0.4521247446537018,-1.1597379446029663,0.4914078414440155
1733768030645886000,1.619885986328125,0.48609480261802673,-0.8186106085777283,0.1942543238401413
1733768030655846000,1.629845947265625,0.4772784113883972,-0.4411245584487915,-0.1457807421684265
1733768030665805800,1.639805908203125,0.47892332077026367,-0.38098323345184326,-0.5085011124610901
1733768030675767000,1.64976708984375,0.4936237037181854,-0.7792273163795471,-0.7537422776222229
1733768030685727000,1.65972705078125,0.40451914072036743,-1.251295566558838,-0.7345038652420044
1733768030695687000,1.66968701171875,0.19758112728595734,-1.5082894563674927,-0.5786402225494385
1733768030705646800,1.679646728515625,-0.021188931539654732,-1.5759005546569824,-0.4700563848018646
1733768030715607800,1.68960791015625,-0.1755550652742386,-1.4450656175613403,-0.4633643925189972
1733768030725567700,1.699567626953125,-0.2120806723833084,-0.9659380316734314,-0.4039660692214966
1733768030735527700,1.709527587890625,-0.3629138469696045,-0.3908710777759552,-0.3495957851409912
1733768030745488000,1.71948779296875,-0.49267658591270447,-0.03450429067015648,-0.5343729257583618
1733768030755448800,1.72944873046875,-0.6445872783660889,-0.15117976069450378,-1.012091040611267
1733768030765408800,1.73940869140625,-0.3346959054470062,-0.5921317338943481,-1.60834801197052
1733768030775369000,1.749368896484375,0.40816065669059753,-1.4687509536743164,-2.231771945953369
1733768030785329000,1.759328857421875,0.9774619340896606,-2.818835973739624,-2.6964640617370605
1733768030795289900,1.769289794921875,1.1748038530349731,-3.2105062007904053,-2.484238386154175
1733768030805250000,1.77925,1.2362984418869019,-2.872791290283203,-1.9208241701126099
1733768030815210000,1.7892099609375,1.1909279823303223,-1.8702805042266846,-1.549166202545166
1733768030825170000,1.799169921875,0.908638596534729,-0.4177134931087494,-1.41009521484375
1733768030835129900,1.8091298828125,0.46403926610946655,0.9799773693084717,-1.7824517488479614
1733768030845090800,1.8190908203125,-0.1552089899778366,1.7889022827148438,-4.119002819061279
1733768030855050800,1.82905078125,-0.3088233172893524,2.6691343784332275,-5.747406482696533
1733768030865011000,1.839010986328125,-0.03031524270772934,3.3330814838409424,-5.729686260223389
1733768030874971000,1.848970947265625,0.40371769666671753,3.5824272632598877,-5.033669948577881
1733768030884931800,1.858931884765625,0.3622536361217499,3.5879974365234375,-4.251831531524658
1733768030894892000,1.86889208984375,-0.10862334817647934,3.7077343463897705,-3.143941879272461
1733768030904852000,1.87885205078125,-0.2799319326877594,3.0546069145202637,-1.263734221458435
1733768030914812000,1.88881201171875,0.1960897296667099,0.8071240186691284,-0.17522723972797394
1733768030924772900,1.89877294921875,0.37764599919319153,-0.38316524028778076,1.043038010597229
1733768030934732800,1.90873291015625,0.24281390011310577,-0.9491639733314514,2.01288104057312
1733768030944692700,1.918692626953125,0.14515423774719238,-1.327839732170105,2.502955198287964
1733768030954652700,1.928652587890625,0.2862858176231384,-1.2747814655303955,2.6567318439483643
1733768030964614000,1.93861376953125,0.40878063440322876,-0.8386754989624023,2.3806345462799072
1733768030974573800,1.94857373046875,0.2261953502893448,-0.23985813558101654,1.5451425313949585
1733768030984533800,1.95853369140625,-0.18268471956253052,0.25599268078804016,0.4066803455352783
1733768030994494000,1.968493896484375,-0.22546999156475067,0.7420909404754639,-0.518988311290741
1733768031004455000,1.978454833984375,-0.10392377525568008,1.545549988746643,-1.161592960357666
1733768031014414800,1.988414794921875,-0.10721863806247711,2.4405269622802734,-1.4953019618988037
1733768031024375000,1.998375,-0.18962295353412628,2.9651994705200195,-1.4686254262924194
1733768031034335000,2.0083349609375,-0.39732903242111206,2.8348472118377686,-1.3547563552856445
1733768031044295700,2.018295654296875,-0.540327787399292,1.969189167022705,-1.538809895515442
1733768031054255900,2.028255859375,-0.5825164914131165,0.8961776494979858,-1.828389286994934
1733768031064215800,2.0382158203125,-0.605050265789032,0.2811644673347473,-1.6966453790664673
1733768031074175700,2.04817578125,-0.5592833161354065,0.04553835466504097,-1.2130043506622314
1733768031084135700,2.0581357421875,-0.4706549644470215,0.08121416717767715,-0.5739039778709412
1733768031094097000,2.068096923828125,-0.39753732085227966,0.25591593980789185,0.010930185206234455
1733768031104056800,2.078056884765625,-0.3005603849887848,0.48560115694999695,0.4095408022403717
1733768031114016800,2.088016845703125,-0.18666337430477142,0.6560677289962769,0.5917643904685974
1733768031123978000,2.09797802734375,-0.08672095835208893,0.80317622423172,0.5544965267181396
1733768031133938000,2.10793798828125,0.005169815383851528,0.9560539126396179,0.42467352747917175
1733768031143897900,2.11789794921875,0.19835835695266724,0.9962385892868042,0.30418217182159424
1733768031153858000,2.127858154296875,0.5922771692276001,0.9648516774177551,0.09833365678787231
1733768031163818000,2.13781787109375,1.024495244026184,0.6223695278167725,-0.3208859860897064
1733768031173778700,2.14777880859375,1.3341532945632935,0.36608025431632996,-0.764416515827179
1733768031183739000,2.15773876953125,1.3779791593551636,0.3150680661201477,-0.9321146011352539
1733768031193698800,2.16769873046875,1.1874470710754395,0.043733492493629456,-0.8026644587516785
1733768031203659500,2.177659423828125,0.8909734487533569,-0.7328344583511353,-0.3870966136455536
1733768031213620500,2.187620361328125,0.5174456834793091,-1.8686734437942505,0.4184955060482025
1733768031223580700,2.19758056640625,0.17847418785095215,-2.7101540565490723,1.5246427059173584
1733768031233540600,2.20754052734375,-0.0420033223927021,-2.6877148151397705,2.5613181591033936
1733768031243500500,2.21750048828125,-0.2661190629005432,-1.791972041130066,3.0407490730285645
1733768031253461500,2.22746142578125,-0.5201241374015808,-0.6709436178207397,3.042630672454834
1733768031263421400,2.23742138671875,-0.7544746398925781,0.43351200222969055,2.94244647026062
1733768031273381400,2.24738134765625,-0.9455548524856567,1.3889682292938232,2.9161794185638428
1733768031283341300,2.25734130859375,-1.0421022176742554,2.2729175090789795,2.9585678577423096
1733768031293302500,2.267302490234375,-1.0598397254943848,2.9454586505889893,2.9796030521392822
1733768031303262500,2.277262451171875,-0.8888468742370605,3.2576613426208496,2.97403621673584
1733768031313222400,2.287222412109375,-0.6928014755249023,3.3831946849823,2.9678313732147217
1733768031323182600,2.2971826171875,-0.4735938608646393,3.4200804233551025,2.908698320388794
1733768031333143600,2.3071435546875,-0.2306552529335022,3.225644826889038,2.692448139190674
1733768031343103500,2.317103515625,-0.04510020464658737,2.651609182357788,2.3380749225616455
1733768031353063700,2.327063720703125,0.07340140640735626,1.6085045337677002,1.8695803880691528
1733768031363023600,2.337023681640625,0.07394834607839584,0.6545164585113525,1.3769136667251587
1733768031372984300,2.346984375,0.14414367079734802,-0.12423203140497208,0.910710871219635
1733768031382944500,2.356944580078125,0.3164125084877014,-0.3928981125354767,0.6591067314147949
1733768031392904400,2.366904541015625,0.4347045421600342,-0.21079356968402863,0.543355405330658
1733768031402864400,2.376864501953125,0.5094389915466309,0.3963586986064911,0.5961472392082214
1733768031412825600,2.38682568359375,0.5610235929489136,1.025905966758728,0.7011889815330505
1733768031422785500,2.39678564453125,0.5732922554016113,1.5065162181854248,0.7028982043266296
1733768031432745500,2.406745361328125,0.5400610566139221,1.9575151205062866,0.5957935452461243
1733768031442705400,2.416705322265625,0.5313674807548523,2.1138694286346436,0.2132774293422699
1733768031452666600,2.42666650390625,0.6645822525024414,2.0419821739196777,-0.23701223731040955
1733768031462626600,2.43662646484375,0.8608729243278503,1.8679865598678589,-0.541537344455719
1733768031472586500,2.44658642578125,0.9117081165313721,1.692169427871704,-0.5808402895927429
1733768031482546700,2.456546630859375,0.7868483066558838,1.4427419900894165,-0.395764023065567
1733768031492507400,2.46650732421875,0.5366118550300598,1.063316822052002,-0.11555448174476624
1733768031502467300,2.47646728515625,0.2891344428062439,0.5838164687156677,0.24115443229675293
1733768031512427500,2.486427490234375,0.12724646925926208,0.11481302231550217,0.6441873908042908
1733768031522387500,2.496387451171875,0.015488713048398495,-0.11369220167398453,1.0238062143325806
1733768031532348400,2.506348388671875,-0.08962439000606537,0.030903063714504242,1.1968389749526978
1733768031542308600,2.51630859375,-0.16867130994796753,0.3881603181362152,1.0882256031036377
1733768031552268500,2.5262685546875,-0.1917630434036255,0.728183388710022,0.7803863286972046
1733768031562228500,2.536228515625,-0.16114798188209534,0.9655120372772217,0.3709360361099243
1733768031572189700,2.546189697265625,-0.08050506561994553,1.0911945104599,-0.026452071964740753
1733768031582149600,2.556149658203125,-0.004818975925445557,1.0955907106399536,-0.3424575924873352
1733768031592109600,2.566109619140625,0.020391039550304413,1.0141791105270386,-0.5470155477523804
1733768031602069500,2.576069580078125,-0.009241869673132896,0.854710042476654,-0.6365912556648254
1733768031612030500,2.586030517578125,-0.10350978374481201,0.6622486710548401,-0.6482561230659485
1733768031621990400,2.595990478515625,-0.23851028084754944,0.5570944547653198,-0.6629688143730164
1733768031631950300,2.605950439453125,-0.3261924684047699,0.5106931328773499,-0.7229386568069458
1733768031641910500,2.61591064453125,-0.37644222378730774,0.5155843496322632,-0.7815242409706116
1733768031651871500,2.62587158203125,-0.3573492169380188,0.5935577154159546,-0.8062833547592163
1733768031661831400,2.63583154296875,-0.23587924242019653,0.9069473147392273,-0.7351309061050415
1733768031671791600,2.64579150390625,-0.04366106912493706,1.2042628526687622,-0.7247679829597473
1733768031681751600,2.65575146484375,0.1104302778840065,1.1170775890350342,-0.8769617080688477
1733768031691712300,2.665712158203125,0.15183870494365692,0.6706353425979614,-1.097574234008789
1733768031701672400,2.67567236328125,0.11912797391414642,0.2840547263622284,-1.2271889448165894
1733768031711632400,2.68563232421875,0.06829489022493362,0.15963982045650482,-1.2159512042999268
1733768031721592300,2.69559228515625,0.051879629492759705,0.22753964364528656,-1.1431978940963745
1733768031731553500,2.705553466796875,0.05481363460421562,0.6682482957839966,-1.003466248512268
1733768031741513500,2.715513427734375,0.009423764422535896,1.559457540512085,-0.9392109513282776
1733768031751473400,2.725473388671875,-0.1942867487668991,2.017350196838379,-1.2179605960845947
1733768031761433600,2.73543359375,-0.26907846331596375,1.9693785905838013,-1.4161722660064697
1733768031771394600,2.74539453125,0.017176469787955284,2.2520506381988525,-1.0218784809112549
1733768031781354500,2.7553544921875,0.46147090196609497,2.6685285568237305,-0.38101422786712646
1733768031791314700,2.765314697265625,0.8151815533638,2.390981912612915,-0.3407094180583954
1733768031801274600,2.775274658203125,0.8291691541671753,1.4033876657485962,-1.078376054763794
1733768031811235300,2.7852353515625,0.4391833245754242,1.3361027240753174,-1.3813471794128418
1733768031821195500,2.795195556640625,-0.06386075913906097,2.011716842651367,-0.8967853784561157
1733768031831155500,2.805155517578125,-0.6739909648895264,2.3955953121185303,-0.025783613324165344
1733768031841115400,2.815115478515625,-1.2184064388275146,1.7063435316085815,0.8098198175430298
1733768031851076600,2.82507666015625,-1.5561245679855347,-0.1074305921792984,1.2827154397964478
1733768031861036500,2.83503662109375,-1.8208194971084595,-1.955025553703308,1.5035609006881714
1733768031870996500,2.84499658203125,-1.9955092668533325,-3.58232045173645,1.5262079238891602
1733768031880956400,2.854956298828125,-1.8920936584472656,-5.2407636642456055,1.1875256299972534
1733768031890917600,2.864917724609375,-1.2951773405075073,-6.287655830383301,0.41248658299446106
1733768031900877600,2.874877685546875,-0.4287180006504059,-6.452928066253662,-0.3841172456741333
1733768031910837500,2.88483740234375,0.1223646029829979,-5.807812213897705,-0.7775633335113525
1733768031920797700,2.894797607421875,0.23126934468746185,-4.406012535095215,-1.151355504989624
1733768031930758400,2.90475830078125,-0.06165626272559166,-2.0560343265533447,-1.7998775243759155
1733768031940718300,2.91471826171875,-0.12471397966146469,0.2227303832769394,-2.1448771953582764
1733768031950678500,2.924678466796875,0.19397185742855072,1.7207449674606323,-2.0367393493652344
1733768031960638500,2.934638427734375,0.454953670501709,2.5125339031219482,-1.696265459060669
1733768031970599400,2.944599365234375,0.6354190111160278,2.930088520050049,-1.3401849269866943
1733768031980559600,2.9545595703125,0.8027653098106384,3.0977487564086914,-1.08369779586792
1733768031990519600,2.96451953125,0.9376983642578125,3.0447232723236084,-0.9319705367088318
1733768032000479500,2.9744794921875,0.977162778377533,2.8768529891967773,-0.8694437742233276
1733768032010440700,2.984440673828125,0.9529322981834412,2.6511285305023193,-0.9525937438011169
1733768032020400600,2.994400634765625,0.892664909362793,2.3844237327575684,-1.155181646347046
1733768032030360600,3.004360595703125,0.8562107682228088,2.092302083969116,-1.3571957349777222
1733768032040320500,3.014320556640625,0.9041332602500916,2.003283739089966,-1.4257466793060303
1733768032050281500,3.024281494140625,0.7689131498336792,1.968508005142212,-1.4502041339874268
1733768032060241400,3.034241455078125,0.5525755882263184,1.9319469928741455,-1.3536595106124878
1733768032070201300,3.044201416015625,0.35739466547966003,1.7546478509902954,-1.1620525121688843
1733768032080161500,3.05416162109375,0.24428580701351166,1.5987842082977295,-0.9998779892921448
1733768032090122500,3.06412255859375,0.16957934200763702,1.5648033618927002,-0.9265478849411011
1733768032100082400,3.07408251953125,0.08022183179855347,1.5795153379440308,-0.9437389373779297
1733768032110042600,3.084042724609375,-0.041881971061229706,1.5812522172927856,-0.9870302081108093
1733768032120002600,3.09400244140625,-0.0970073789358139,1.5923917293548584,-0.9992831945419312
1733768032129963500,3.103963623046875,-0.05238557606935501,1.6220567226409912,-0.9875503778457642
1733768032139923500,3.11392333984375,0.003330191131681204,1.7142062187194824,-0.9790289402008057
1733768032149883400,3.12388330078125,-0.07623627036809921,1.7222713232040405,-1.0647510290145874
1733768032159843300,3.13384326171875,-0.24700269103050232,1.4923961162567139,-1.1861165761947632
1733768032169804500,3.143804443359375,-0.42208635807037354,1.2247319221496582,-1.1644725799560547
1733768032179764500,3.153764404296875,-0.5449400544166565,0.9286856651306152,-0.983197033405304
1733768032189724400,3.163724365234375,-0.6433438658714294,0.45084697008132935,-0.7725748419761658
1733768032199683600,3.17368359375,-0.701930046081543,-0.11242496222257614,-0.6355774998664856
1733768032209644800,3.183644775390625,-0.694317638874054,-0.5185261368751526,-0.5576571226119995
1733768032219604700,3.193604736328125,-0.6482841372489929,-0.6155149936676025,-0.4639519453048706
1733768032229564700,3.203564697265625,-0.5693882703781128,-0.4607938528060913,-0.3597368597984314
1733768032239524900,3.21352490234375,-0.4948391318321228,-0.19042667746543884,-0.3183852732181549
1733768032249485800,3.22348583984375,-0.4394025206565857,0.07871850579977036,-0.3415936529636383
1733768032259445800,3.23344580078125,-0.4068240523338318,0.2607109546661377,-0.4068014323711395
1733768032269406000,3.243406005859375,-0.415696382522583,0.35339561104774475,-0.45148128271102905
1733768032279366000,3.253365966796875,-0.3801719844341278,0.40868690609931946,-0.4362885355949402
1733768032289326600,3.26332666015625,-0.34876078367233276,0.46516749262809753,-0.4261491000652313
1733768032299286800,3.273286865234375,-0.28363052010536194,0.3950411081314087,-0.4703638553619385
1733768032309246700,3.283246826171875,-0.20276734232902527,0.25943854451179504,-0.45931944251060486
1733768032319206700,3.29320654296875,0.015509198419749737,0.5403804183006287,-0.14871369302272797
1733768032329168000,3.30316796875,0.6601364016532898,1.1873722076416016,0.39486491680145264
1733768032339127800,3.3131279296875,1.374861240386963,2.3067922592163086,0.8520785570144653
1733768032349087700,3.323087646484375,1.5758652687072754,3.7180612087249756,1.079332709312439
1733768032359047700,3.333047607421875,1.3857824802398682,4.918169021606445,1.0983812808990479
1733768032369009000,3.3430087890625,1.7931941747665405,2.787572145462036,-0.7877473831176758
1733768032378968800,3.35296875,2.156503438949585,-1.6192330121994019,-4.168818473815918
1733768032388928800,3.3629287109375,0.9284305572509766,-2.2288658618927,-4.639700889587402
1733768032398888700,3.372888671875,-0.29968953132629395,-1.4806212186813354,-3.250267505645752
1733768032408849700,3.382849609375,-1.094315767288208,-1.4496439695358276,-0.938573956489563
1733768032418809600,3.3928095703125,-1.23841392993927,-1.8965582847595215,1.6618099212646484
1733768032428769800,3.402769775390625,-1.1582335233688354,-1.7549539804458618,3.137685775756836
1733768032438730800,3.412730712890625,-1.2537647485733032,-1.2455885410308838,3.4050984382629395
1733768032448690700,3.422690673828125,-1.4350889921188354,-0.3679445683956146,3.3391804695129395
1733768032458651000,3.43265087890625,-1.5846638679504395,0.8584286570549011,3.349029302597046
1733768032468610800,3.44261083984375,-1.6702568531036377,2.2233688831329346,3.3179502487182617
1733768032478571800,3.45257177734375,-1.6569328308105469,3.3328490257263184,3.088568925857544
1733768032488531700,3.46253173828125,-1.4524955749511719,3.8081507682800293,2.634445905685425
1733768032498491600,3.47249169921875,-0.9925286769866943,3.6996335983276367,2.1882483959198
1733768032508451600,3.48245166015625,-0.5086386799812317,3.180142879486084,1.8880938291549683
1733768032518412800,3.492412841796875,-0.121922567486763,2.5837976932525635,1.7450299263000488
1733768032528372700,3.502372802734375,0.1675603836774826,2.0294899940490723,1.6999287605285645
1733768032538332700,3.512332763671875,0.3507256507873535,1.4995107650756836,1.6599279642105103
1733768032548292600,3.522292724609375,0.5038696527481079,0.9148163795471191,1.6006534099578857
1733768032558253800,3.53225390625,0.696963906288147,0.11484438925981522,1.4626039266586304
1733768032568213800,3.5422138671875,0.8038842678070068,-0.5120559930801392,1.3213411569595337
1733768032578173700,3.552173583984375,0.76572585105896,-0.6873247027397156,1.2339059114456177
1733768032588134000,3.5621337890625,0.7905526757240295,-0.7407479882240295,1.1612921953201294
1733768032598094600,3.572094482421875,0.8870561122894287,-0.4323738217353821,1.142972469329834
1733768032608054500,3.582054443359375,1.0040562152862549,-0.03506559506058693,1.0815898180007935
1733768032618014700,3.5920146484375,1.086611270904541,0.3428061902523041,0.9564920663833618
1733768032627974700,3.601974609375,1.1997567415237427,0.6139711141586304,0.7818379402160645
1733768032637935600,3.611935546875,1.2077927589416504,0.9297919273376465,0.5218064188957214
1733768032647895800,3.621895751953125,1.1195087432861328,1.1616888046264648,0.14696301519870758
1733768032657855700,3.631855712890625,0.9441428780555725,1.3388015031814575,-0.5170094966888428
1733768032667815700,3.641815673828125,0.9716890454292297,1.6685749292373657,-1.0306016206741333
1733768032677777000,3.65177685546875,1.215545654296875,2.0722579956054688,-1.205319881439209
1733768032687736800,3.66173681640625,1.4406059980392456,2.5076682567596436,-1.037711262702942
1733768032697696800,3.67169677734375,1.4727569818496704,2.736823081970215,-0.3436554968357086
1733768032707656700,3.68165673828125,1.1657676696777344,2.167677164077759,1.1039820909500122
1733768032717617700,3.69161767578125,0.8365550637245178,0.5815269947052002,1.9454545974731445
1733768032727577600,3.70157763671875,0.7072386145591736,-0.7514591813087463,2.165436267852783
1733768032737537500,3.71153759765625,0.6581849455833435,-1.2973458766937256,2.130730152130127
1733768032747497700,3.721497802734375,0.6439487934112549,-1.2659956216812134,1.8998656272888184
1733768032757458700,3.731458740234375,0.6547480821609497,-0.9623302221298218,1.5335239171981812
1733768032767418600,3.741418701171875,0.6966673135757446,-0.5598581433296204,1.120198369026184
1733768032777378800,3.75137890625,0.7427027821540833,-0.12079120427370071,0.7647614479064941
1733768032787338800,3.7613388671875,0.7759707570075989,0.2875315845012665,0.4879727065563202
1733768032797299700,3.7712998046875,0.788406252861023,0.4943857491016388,0.2906823456287384
1733768032807260000,3.781260009765625,0.6998132467269897,0.49209755659103394,0.1404760628938675
1733768032817219800,3.7912197265625,0.5215573906898499,0.4448850452899933,0.022779004648327827
1733768032827179800,3.8011796875,0.34850597381591797,0.35983461141586304,-0.10942057520151138
1733768032837140700,3.811140625,0.18514174222946167,0.2717415988445282,-0.265062153339386
1733768032847100700,3.8211005859375,0.02792043425142765,0.1976069211959839,-0.4049636125564575
1733768032857060600,3.831060546875,-0.08289311081171036,0.1594647467136383,-0.5016077756881714
1733768032867021800,3.841021728515625,-0.14700178802013397,0.11917112022638321,-0.5792930126190186
1733768032876981800,3.850981689453125,-0.17973721027374268,0.08344157040119171,-0.6823403239250183
1733768032886941700,3.860941650390625,-0.20704632997512817,0.012119727209210396,-0.8312850594520569
1733768032896902000,3.87090185546875,-0.19874033331871033,0.019501492381095886,-0.8721889853477478
1733768032906862800,3.88086279296875,0.014948511496186256,0.5350825190544128,-0.233249232172966
1733768032916822800,3.89082275390625,0.1612129658460617,0.8749545812606812,0.5802022814750671
1733768032926782700,3.90078271484375,-0.00031548691913485527,0.10478568822145462,0.7367141246795654
1733768032936742700,3.91074267578125,-0.15239688754081726,-0.7979699969291687,0.6575945019721985
1733768032946703600,3.92070361328125,-0.22334590554237366,-1.3818076848983765,0.4117181599140167
1733768032956663800,3.930663818359375,-0.21871070563793182,-1.6766847372055054,0.038346026092767715
1733768032966623700,3.940623779296875,-0.18544676899909973,-1.398465633392334,-0.1565755307674408
1733768032976583700,3.950583740234375,0.03030833601951599,-0.2301371991634369,-0.012514101341366768
1733768032986545000,3.960544921875,0.36576172709465027,1.1030340194702148,0.06945240497589111
1733768032996504800,3.9705048828125,0.08238618075847626,1.7155730724334717,-0.08824774622917175
1733768033006464800,3.98046484375,-0.6595712900161743,2.720402956008911,0.4047680199146271
1733768033016424700,3.9904248046875,-1.1933956146240234,4.463657855987549,1.2206637859344482
1733768033026385700,4.0003857421875,-1.193709135055542,6.125990390777588,1.982853651046753
1733768033036345600,4.010345703125,-0.6630412340164185,6.303186416625977,2.017220973968506
1733768033046305500,4.020305419921875,-0.259982705116272,5.020692348480225,1.2617342472076416
1733768033056265700,4.030265625,-0.44119992852211,2.399311065673828,0.02707735449075699
1733768033066226700,4.040226806640625,-0.8860424160957336,-0.9087037444114685,-1.0032504796981812
1733768033076186600,4.0501865234375,-1.0864403247833252,-3.789161205291748,-1.5825730562210083
1733768033086146800,4.060146728515625,-1.0973199605941772,-5.3732686042785645,-1.498134970664978
1733768033096106800,4.070106689453125,-1.1219043731689453,-5.30543851852417,-0.8111000657081604
1733768033106067700,4.080067626953125,-1.184187650680542,-4.410582065582275,0.013055323623120785
1733768033116028000,4.09002783203125,-1.3467893600463867,-3.5472464561462402,0.5296595692634583
1733768033125987800,4.09998779296875,-1.4647029638290405,-2.831386089324951,0.7080783247947693
1733768033135947800,4.10994775390625,-1.3961222171783447,-2.1637535095214844,0.5965965986251831
1733768033145908700,4.11990869140625,-1.0622121095657349,-1.4492491483688354,0.21886183321475983
1733768033155868700,4.12986865234375,-0.542170524597168,-0.7006718516349792,-0.3250187337398529
1733768033165828600,4.13982861328125,-0.2207576185464859,0.2903721332550049,-1.4507486820220947
1733768033175789800,4.149789794921875,-0.14593447744846344,1.3714364767074585,-2.9291553497314453
1733768033185749800,4.159749755859375,-0.19125375151634216,2.046776294708252,-3.7556116580963135
1733768033195709700,4.169709716796875,-0.24840129911899567,2.3962602615356445,-3.7922022342681885
1733768033205669600,4.179669677734375,-0.22840282320976257,2.3809473514556885,-3.227651834487915
1733768033215630600,4.189630615234375,-0.2025771290063858,2.0185368061065674,-2.4025866985321045
1733768033225590500,4.199590576171875,-0.15143698453903198,1.3401750326156616,-1.731630802154541
1733768033235550700,4.20955078125,-0.03789302706718445,0.49009355902671814,-1.5279388427734375
1733768033245510700,4.2195107421875,0.03859109431505203,-0.3697202503681183,-1.6581064462661743
1733768033255471400,4.229471435546875,0.06919921934604645,-1.1585586071014404,-1.7829173803329468
1733768033265431600,4.239431640625,0.06098177284002304,-1.7917143106460571,-1.7172467708587646
1733768033275391500,4.2493916015625,0.043284330517053604,-2.2673866748809814,-1.4939886331558228
1733768033285351400,4.259351318359375,0.026669133454561234,-2.540567398071289,-1.1678701639175415
1733768033295312600,4.269312744140625,0.03416958451271057,-2.560580253601074,-0.8279338479042053
1733768033305272600,4.2792724609375,0.06471630930900574,-2.3112001419067383,-0.47300878167152405
1733768033315232500,4.289232421875,0.10262447595596313,-1.8165324926376343,-0.17543210089206696
1733768033325192700,4.299192626953125,0.08444413542747498,-1.2076376676559448,0.0881582573056221
1733768033335153700,4.309153564453125,0.12828996777534485,-0.5033792853355408,0.28311946988105774
1733768033345113600,4.319113525390625,0.2131747603416443,0.23933933675289154,0.3268858790397644
1733768033355073800,4.32907373046875,0.3096466064453125,1.0273385047912598,0.23392470180988312
1733768033365033700,4.33903369140625,0.4739961326122284,1.62752366065979,-0.008147049695253372
1733768033374994400,4.348994384765625,0.5656425356864929,1.844889760017395,-0.40020743012428284
1733768033384954600,4.35895458984375,0.3991214632987976,1.9484552145004272,-0.8659740686416626
1733768033394914600,4.36891455078125,0.17347685992717743,1.95803964138031,-1.263991355895996
1733768033404874500,4.37887451171875,0.021454032510519028,1.8778908252716064,-1.548415184020996
1733768033414835700,4.388835693359375,0.03544696792960167,1.798539161682129,-1.711397647857666
1733768033424795600,4.398795654296875,-0.013731496408581734,1.88954758644104,-1.745591640472412
1733768033434755600,4.408755615234375,-0.14102359116077423,2.379605531692505,-1.6073473691940308
1733768033444716800,4.418716796875,-0.2904770076274872,2.6570277214050293,-1.4404665231704712
1733768033454676700,4.4286767578125,-0.5198380351066589,2.3172338008880615,-1.3397374153137207
1733768033464636700,4.43863671875,-0.6712038516998291,1.7013424634933472,-1.2189524173736572
1733768033474596600,4.4485966796875,-0.6275357604026794,0.9913054704666138,-1.0496251583099365
1733768033484557600,4.4585576171875,-0.379427969455719,0.16253051161766052,-0.8590022921562195
1733768033494517500,4.468517578125,-0.043662771582603455,-0.7028188705444336,-0.6354115605354309
1733768033504477400,4.4784775390625,0.3104793429374695,-1.5909048318862915,-0.3312801420688629
1733768033514437600,4.488437744140625,0.6780670285224915,-1.9022420644760132,0.15885213017463684
1733768033524398600,4.498398681640625,0.9327322840690613,-1.390828251838684,0.7353926301002502
1733768033534358500,4.508358642578125,1.0390918254852295,-0.40259575843811035,1.2378356456756592
1733768033544318700,4.518318603515625,1.119690179824829,0.2601960599422455,1.1828185319900513
1733768033554278700,4.528278564453125,1.3241510391235352,-0.6658709049224854,-0.08055534213781357
1733768033564239600,4.538239501953125,1.122283697128296,-1.2584176063537598,-0.8581317663192749
1733768033574199600,4.548199462890625,0.6284502148628235,-1.1371495723724365,-0.8285764455795288
1733768033584159500,4.558159423828125,0.06504866480827332,-0.8073369860649109,-0.28898459672927856
1733768033594119400,4.568119384765625,-0.2502225935459137,-0.653252899646759,0.35629338026046753
1733768033604080600,4.57808056640625,-0.3820495903491974,-0.6054211854934692,1.111076831817627
1733768033614040600,4.58804052734375,-0.4577445983886719,-0.4495829641819,1.9320405721664429
1733768033624000500,4.59800048828125,-0.5379526019096375,-0.09766938537359238,2.579378843307495
1733768033633960400,4.60796044921875,-0.6812785267829895,0.41378265619277954,2.972917079925537
1733768033643921700,4.617921630859375,-0.8411840796470642,0.9407513737678528,3.232231378555298
1733768033653881600,4.627881591796875,-0.8833717703819275,1.5307632684707642,3.4207041263580322
1733768033663841500,4.637841552734375,-0.8116341829299927,1.864385962486267,3.4884142875671387
1733768033673802500,4.647802490234375,-0.6190643906593323,1.8149330615997314,3.382784128189087
1733768033683762400,4.657762451171875,-0.47684359550476074,1.7275941371917725,3.132373809814453
1733768033693722400,4.667722412109375,-0.3885764181613922,1.7110685110092163,2.701665163040161
1733768033703682600,4.6776826171875,-0.2711621820926666,1.433063268661499,2.1304874420166016
1733768033713643500,4.6876435546875,-0.19071848690509796,0.8712049126625061,1.6605315208435059
1733768033723603500,4.697603515625,-0.10465152561664581,-0.035177476704120636,1.3106592893600464
1733768033733563600,4.707563720703125,-0.03596468269824982,-0.94542396068573,1.1095346212387085
1733768033743523600,4.717523681640625,0.06941820681095123,-1.8970807790756226,0.9649840593338013
1733768033753484500,4.727484619140625,0.1664954274892807,-2.554266929626465,0.9454609751701355
1733768033763444700,4.73744482421875,0.2158251702785492,-2.7205095291137695,1.0344460010528564
1733768033773404700,4.74740478515625,0.1498948186635971,-2.5578839778900146,1.1216386556625366
1733768033783364600,4.757364501953125,0.01698789745569229,-2.122657060623169,0.9209012389183044
1733768033793325600,4.76732568359375,-0.03703794628381729,-1.5257794857025146,0.4797416627407074
1733768033803285500,4.777285400390625,0.10359133780002594,-0.6962540149688721,0.11355115473270416
1733768033813245400,4.787245361328125,0.3827362358570099,0.3279440701007843,-0.006193934474140406
1733768033823205400,4.797205322265625,0.7084128856658936,1.4527887105941772,0.05717172101140022
1733768033833166600,4.80716650390625,1.0265265703201294,2.3377673625946045,0.12763981521129608
1733768033843126500,4.81712646484375,1.255928874015808,2.6165544986724854,0.08558796346187592
1733768033853086500,4.82708642578125,1.3861171007156372,2.4595580101013184,0.014433732256293297
1733768033863046700,4.837046630859375,1.46503746509552,2.0049526691436768,0.009167597629129887
1733768033873007600,4.847007568359375,1.5090094804763794,1.4061517715454102,0.03698049113154411
1733768033882967600,4.856967529296875,1.4973907470703125,0.8244830965995789,0.137691929936409
1733768033892927700,4.866927734375,1.4401136636734009,0.2527562379837036,0.2598298192024231
1733768033902887700,4.8768876953125,1.3226038217544556,-0.2878713011741638,0.3708181083202362
1733768033912848400,4.886848388671875,1.1466115713119507,-0.716991126537323,0.47620460391044617
1733768033922808600,4.89680859375,0.9739161729812622,-1.0137685537338257,0.5599836707115173
1733768033932768500,4.9067685546875,0.7940204739570618,-1.2400485277175903,0.5829395651817322
1733768033942729500,4.9167294921875,0.631497323513031,-1.3888087272644043,0.5322420001029968
1733768033952689700,4.926689697265625,0.5130555629730225,-1.3584522008895874,0.4525485336780548
1733768033962649600,4.936649658203125,0.4420652687549591,-1.209634780883789,0.3647523522377014
1733768033972609500,4.946609619140625,0.3913683295249939,-0.9826616644859314,0.2969192862510681
1733768033982570800,4.95657080078125,0.3372824490070343,-0.7880463600158691,0.2782076299190521
1733768033992530700,4.96653076171875,0.29113098978996277,-0.797065794467926,0.29592928290367126
1733768034002490600,4.97649072265625,0.24217703938484192,-1.0701075792312622,0.3414533734321594
1733768034012450600,4.986450439453125,0.19935162365436554,-1.469760775566101,0.38688793778419495
1733768034022411500,4.99641162109375,0.15526752173900604,-1.8291473388671875,0.3962385654449463
1733768034032371500,5.006371337890625,0.145132377743721,-2.013179302215576,0.3409188389778137
1733768034042331400,5.016331298828125,0.19143196940422058,-1.9037877321243286,0.2618703842163086
1733768034052291600,5.02629150390625,0.2840379774570465,-1.5255986452102661,0.12741462886333466
1733768034062252500,5.03625244140625,0.3801884651184082,-0.9816818833351135,-0.05843139439821243
1733768034072212500,5.04621240234375,0.48181062936782837,-0.3901723027229309,-0.2707326114177704
1733768034082172700,5.056172607421875,0.5330807566642761,0.1251664161682129,-0.45245152711868286
1733768034092132600,5.066132568359375,0.5064727663993835,0.4107173681259155,-0.562873363494873
1733768034102093600,5.076093505859375,0.41862040758132935,0.3995150625705719,-0.6184133291244507
1733768034112053800,5.0860537109375,0.3421356976032257,0.20918330550193787,-0.6665581464767456
1733768034122013700,5.096013671875,0.2936919927597046,-0.019577963277697563,-0.7222115397453308
1733768034131974400,5.105974365234375,0.2958846986293793,-0.1621151566505432,-0.7488626837730408
1733768034141934600,5.1159345703125,0.3222598433494568,-0.1494041532278061,-0.6619943976402283
1733768034151894500,5.12589453125,0.4453756511211395,0.29083552956581116,-0.23205521702766418
1733768034161854500,5.1358544921875,0.4432208836078644,0.40408486127853394,-0.0017114970833063126
1733768034171815700,5.145815673828125,-0.020468054339289665,-0.20059174299240112,-0.4048488438129425
1733768034181775600,5.155775634765625,-0.6881888508796692,-0.27170559763908386,-0.5641759037971497
1733768034191735600,5.165735595703125,-1.1954169273376465,0.37673142552375793,-0.3104252219200134
1733768034201696300,5.1756962890625,-1.3783085346221924,1.240380883216858,-0.15385399758815765
1733768034211657200,5.1856572265625,-1.0676404237747192,2.250654697418213,0.11584833264350891
1733768034221617200,5.1956171875,-0.33580347895622253,2.956300973892212,0.545274019241333
1733768034231577000,5.2055771484375,0.4310551583766937,2.8231265544891357,0.5658832788467407
1733768034241537000,5.215537109375,0.6092121005058289,2.1353375911712646,0.26522013545036316
1733768034251498200,5.225498291015625,-0.03577757254242897,1.2871817350387573,0.07103155553340912
1733768034261458200,5.235458251953125,-0.7603272795677185,0.1795802116394043,-0.014216757379472256
1733768034271418000,5.245418212890625,-1.0743950605392456,-1.0966449975967407,-0.0812985897064209
1733768034281378300,5.25537841796875,-1.104461908340454,-1.8574494123458862,-0.16290397942066193
1733768034291339300,5.26533935546875,-1.25142502784729,-2.16200590133667,-0.2788505256175995
1733768034301299200,5.27529931640625,-1.442002773284912,-2.286958694458008,-0.43012288212776184
1733768034311259400,5.28525927734375,-1.5953196287155151,-2.4070229530334473,-0.5959847569465637
1733768034321220000,5.29522021484375,-1.7219252586364746,-2.5746407508850098,-0.7376468181610107
1733768034331180000,5.305179931640625,-1.8160583972930908,-2.8239500522613525,-0.8273018598556519
1733768034341140200,5.31514013671875,-1.7512857913970947,-3.08048415184021,-0.8970476388931274
1733768034351100200,5.32510009765625,-1.5537933111190796,-3.259244918823242,-1.0125373601913452
1733768034361061000,5.33506103515625,-1.2671290636062622,-3.280380964279175,-1.1795841455459595
1733768034371021300,5.345021240234375,-0.8668457269668579,-3.232163429260254,-1.3300539255142212
1733768034380981200,5.354981201171875,-0.7243629097938538,-2.098238229751587,-2.3375344276428223
1733768034390941200,5.364941162109375,-0.8617365956306458,-0.16410955786705017,-3.5409815311431885
1733768034400902100,5.374902099609375,-0.7141231298446655,1.2817820310592651,-3.910731792449951
1733768034410862000,5.384862060546875,-0.20990358293056488,1.9764236211776733,-3.611985921859741
1733768034420822000,5.394822021484375,0.16583649814128876,2.014742612838745,-3.0545928478240967
1733768034430782000,5.404781982421875,0.34191903471946716,1.6416912078857422,-2.5127978324890137
1733768034440743200,5.4147431640625,0.46386411786079407,1.1178168058395386,-2.162433624267578
1733768034450703000,5.424703125,0.6048151850700378,0.6365041136741638,-2.0196938514709473
1733768034460663000,5.4346630859375,0.7098020315170288,0.20887872576713562,-1.9313181638717651
1733768034470623200,5.444623291015625,0.7222145199775696,-0.08091390132904053,-1.7413389682769775
1733768034480584200,5.454584228515625,0.5917518734931946,-0.15586909651756287,-1.4422516822814941
1733768034490544000,5.464544189453125,0.45963943004608154,-0.1045355275273323,-1.0898585319519043
1733768034500504300,5.47450439453125,0.3845928907394409,0.0367417074739933,-0.7370059490203857
1733768034510465000,5.484465087890625,0.2832423448562622,0.13198131322860718,-0.39715805649757385
1733768034520425000,5.494425048828125,0.10493305325508118,0.32550734281539917,-0.03334176167845726
1733768034530385200,5.50438525390625,0.04227662459015846,0.51164311170578,0.2802422344684601
1733768034540345000,5.514344970703125,0.05521479249000549,0.6946731209754944,0.5402584075927734
1733768034550306000,5.52430615234375,-0.027911918237805367,0.8487582802772522,0.7409989833831787
1733768034560266200,5.534266357421875,-0.19100283086299896,0.910479724407196,0.7602049112319946
1733768034570226200,5.54422607421875,-0.31905609369277954,0.8896925449371338,0.46648386120796204
1733768034580186000,5.55418603515625,-0.060294851660728455,0.7975333333015442,0.18608629703521729
1733768034590147300,5.564147216796875,0.07229659706354141,1.071979284286499,-0.08273305743932724
1733768034600107300,5.574107177734375,-0.04121185094118118,1.2391802072525024,-0.46050989627838135
1733768034610067200,5.584067138671875,-0.1901414543390274,1.2840533256530762,-0.9121546745300293
1733768034620028200,5.594028076171875,-0.3364163637161255,1.1837952136993408,-1.3085883855819702
1733768034629988000,5.603988037109375,-0.4129953980445862,1.0739390850067139,-1.4855021238327026
1733768034639948000,5.613947998046875,-0.4643464684486389,0.9062438607215881,-1.3655827045440674
1733768034649908200,5.623908203125,-0.44398027658462524,0.7590681910514832,-1.0389785766601562
1733768034659869200,5.633869140625,-0.28132638335227966,0.5963264107704163,-0.661439836025238
1733768034669829000,5.6438291015625,-0.035364095121622086,0.351764440536499,-0.35491836071014404
1733768034679789300,5.653789306640625,0.22589732706546783,0.05006478354334831,-0.16640783846378326
1733768034689749200,5.663749267578125,0.5552992820739746,-0.08230866491794586,-0.07493500411510468
1733768034699710200,5.673710205078125,0.953357458114624,0.17905209958553314,-0.010634047910571098
1733768034709670400,5.68367041015625,1.2894644737243652,0.6289743185043335,-0.048962000757455826
1733768034719630300,5.69363037109375,1.455346703529358,0.5343364477157593,-0.4319857954978943
1733768034729590300,5.70359033203125,1.4018418788909912,-0.05044667422771454,-0.8236239552497864
1733768034739551200,5.71355126953125,1.3297648429870605,-0.585567057132721,-0.810351550579071
1733768034749511200,5.72351123046875,1.2393101453781128,-1.0832226276397705,-0.49166005849838257
1733768034759471000,5.73347119140625,0.8294726014137268,-1.4768376350402832,0.004229856189340353
1733768034769432300,5.743432373046875,0.3436293601989746,-1.7762327194213867,0.5034652948379517
1733768034779392300,5.753392333984375,-0.058389436453580856,-2.389648199081421,0.9205429553985596
1733768034789352200,5.763352294921875,-0.3618748188018799,-2.8876023292541504,1.5938084125518799
1733768034799312100,5.77331201171875,-0.6115765571594238,-2.0607922077178955,2.481313467025757
1733768034809273300,5.7832734375,-0.9390407204627991,-0.46201738715171814,3.0348281860351562
1733768034819233300,5.7932333984375,-1.2653785943984985,1.205634355545044,3.27386736869812
1733768034829193200,5.803193115234375,-1.4920660257339478,2.550879716873169,3.343597412109375
1733768034839153400,5.8131533203125,-1.6110763549804688,3.523580312728882,3.3060555458068848
1733768034849114000,5.823114013671875,-1.6102523803710938,4.103954315185547,3.25742769241333
1733768034859074000,5.833073974609375,-1.363429307937622,4.102874279022217,3.2192327976226807
1733768034869034200,5.8430341796875,-1.0788213014602661,3.8514745235443115,3.1627423763275146
1733768034878995200,5.8529951171875,-0.94638592004776,3.443812131881714,2.8782765865325928
1733768034888955100,5.862955078125,-0.673944354057312,2.5015504360198975,2.3260886669158936
1733768034898915300,5.872915283203125,-0.3626282811164856,0.9197970628738403,1.7377885580062866
1733768034908875300,5.882875244140625,-0.17434810101985931,-1.182399034500122,1.2346247434616089
1733768034918836200,5.892836181640625,-0.04028669372200966,-3.2917542457580566,0.859377384185791
1733768034928796400,5.90279638671875,0.035475075244903564,-4.678891181945801,0.7213295102119446
1733768034938756400,5.91275634765625,0.07710001617670059,-5.051275253295898,0.8035508990287781
1733768034948716300,5.92271630859375,0.14335118234157562,-4.712255954742432,0.9556259512901306
1733768034958677200,5.93267724609375,0.25954943895339966,-4.06181001663208,1.0942744016647339
1733768034968637200,5.94263720703125,0.37429437041282654,-3.3218958377838135,1.1629036664962769
1733768034978597000,5.95259716796875,0.47065261006355286,-2.5998594760894775,1.0957627296447754
1733768034988557000,5.96255712890625,0.5719136595726013,-1.9302589893341064,0.9087953567504883
1733768034998518300,5.972518310546875,0.612729012966156,-1.1266459226608276,0.45853927731513977
1733768035008478200,5.982478271484375,0.6634637713432312,-0.15051844716072083,-0.17449639737606049
1733768035018438100,5.992438232421875,0.8273818492889404,0.7403033375740051,-0.5767852663993835
1733768035028399000,6.002399169921875,0.9891200065612793,1.5191658735275269,-0.7265708446502686
1733768035038359000,6.012359130859375,1.0833791494369507,2.112196207046509,-0.7182154059410095
1733768035048319000,6.022319091796875,1.0909978151321411,2.421966075897217,-0.6710209846496582
1733768035058279200,6.032279052734375,1.041782259941101,2.487334728240967,-0.6749339699745178
1733768035068240100,6.042240234375,0.9455110430717468,2.2212185859680176,-0.773042619228363
1733768035078200000,6.052199951171875,0.8416869044303894,1.753663182258606,-0.906343936920166
1733768035088160300,6.06216015625,0.7591676115989685,1.093090295791626,-1.0329161882400513
1733768035098120200,6.0721201171875,0.7509530782699585,0.3831650912761688,-1.0881078243255615
1733768035108081200,6.0820810546875,0.6837881207466125,-0.5114234089851379,-1.1635267734527588
1733768035118041300,6.092041259765625,0.46746647357940674,-1.4871749877929688,-1.0720645189285278
1733768035128001300,6.102001220703125,0.1495741754770279,-2.3902711868286133,-0.6733996868133545
1733768035137962000,6.1119619140625,-0.20258121192455292,-3.1678483486175537,0.41110876202583313
1733768035147922200,6.121922119140625,-0.45192891359329224,-3.7341835498809814,1.7138606309890747
1733768035157882000,6.131882080078125,-0.6056907773017883,-4.135378837585449,2.209369659423828
1733768035167842000,6.141842041015625,-0.6583989262580872,-4.297366142272949,2.2158634662628174
1733768035177803300,6.15180322265625,-0.6449739336967468,-4.1893157958984375,2.080963611602783
1733768035187763200,6.16176318359375,-0.6436264514923096,-3.931396722793579,1.8728595972061157
1733768035197723100,6.17172314453125,-0.5999237298965454,-3.60339093208313,1.6564428806304932
1733768035207682600,6.1816826171875,-0.5124620795249939,-3.3505470752716064,1.484959602355957
1733768035217643800,6.191643798828125,-0.4104781746864319,-3.241635799407959,1.3754627704620361
1733768035227603700,6.201603759765625,-0.30229058861732483,-3.2505996227264404,1.3143014907836914
1733768035237563600,6.211563720703125,-0.2306252121925354,-3.316211462020874,1.270870327949524
1733768035247524900,6.22152490234375,-0.16284410655498505,-3.5312209129333496,1.1845046281814575
1733768035257484800,6.23148486328125,-0.06959805637598038,-3.7983994483947754,1.0598564147949219
1733768035267444700,6.24144482421875,-0.006836504675447941,-4.044925689697266,0.9609796404838562
1733768035277404700,6.25140478515625,0.08804073929786682,-4.028479099273682,0.9658330082893372
1733768035287365600,6.26136572265625,0.18308140337467194,-3.748548746109009,1.0391091108322144
1733768035297325600,6.27132568359375,0.1652350276708603,-3.684299945831299,1.0445952415466309
1733768035307285800,6.28128564453125,0.11176344007253647,-3.934734344482422,1.0235846042633057
1733768035317245700,6.29124560546875,0.08653425425291061,-4.39924955368042,1.0028340816497803
1733768035327206700,6.30120654296875,0.055020853877067566,-4.835524559020996,0.9772370457649231
1733768035337166800,6.311166748046875,0.009149501100182533,-5.044294357299805,1.0509757995605469
1733768035347126800,6.321126708984375,0.023174846544861794,-4.955970764160156,1.2367312908172607
1733768035357087500,6.33108740234375,0.10319351404905319,-4.5713114738464355,1.5101386308670044
1733768035367047700,6.341047607421875,0.2422165721654892,-4.014693737030029,1.9250811338424683
1733768035377007600,6.351007568359375,0.4891291558742523,-3.2818915843963623,2.3265950679779053
1733768035386967600,6.360967529296875,0.7818570733070374,-2.298672914505005,2.667698860168457
1733768035396928800,6.3709287109375,0.9917871356010437,-1.1258089542388916,2.823212146759033
1733768035406888700,6.380888671875,1.0991710424423218,0.22749395668506622,2.3879337310791016
1733768035416848600,6.3908486328125,1.1417638063430786,1.2738739252090454,1.6403906345367432
1733768035426808600,6.40080859375,1.2901947498321533,2.1057510375976562,1.1071863174438477
1733768035436769800,6.410769775390625,1.5826143026351929,3.2476024627685547,0.7617104053497314
1733768035446729700,6.420729736328125,1.8819161653518677,3.2971718311309814,-0.20895808935165405
1733768035456689700,6.430689697265625,2.21451997756958,-1.6672167778015137,-3.9553096294403076
1733768035466650600,6.440650634765625,2.043952226638794,-3.9087276458740234,-4.64406681060791
1733768035476610600,6.450610595703125,1.8447017669677734,-2.8410160541534424,-2.893235921859741
1733768035486570500,6.460570556640625,1.537916898727417,-1.5744755268096924,-0.9878082275390625
1733768035496530700,6.47053076171875,1.0322550535202026,-1.628310203552246,0.2131626456975937
1733768035506491600,6.48049169921875,0.3720942437648773,-2.5805861949920654,0.5377085208892822
1733768035516451600,6.49045166015625,-0.4106689691543579,-3.704586982727051,0.39472949504852295
1733768035526411800,6.500411865234375,-1.0024757385253906,-4.481725215911865,0.3430919647216797
1733768035536371700,6.510371826171875,-1.2508045434951782,-5.099213123321533,0.3031597137451172
1733768035546332700,6.520332763671875,-1.1075392961502075,-5.579535007476807,0.25309860706329346
1733768035556292900,6.53029296875,-0.620422899723053,-5.652407646179199,0.10937952250242233
1733768035566252800,6.540252685546875,-0.03222322836518288,-5.047698020935059,-0.07108068466186523
1733768035576213500,6.550213623046875,0.3400757908821106,-4.00413179397583,-0.09984442591667175
1733768035586173700,6.560173583984375,0.4905707836151123,-3.009202718734741,0.07311999797821045
1733768035596133600,6.570133544921875,0.6088076829910278,-2.219830274581909,0.3138718903064728
1733768035606093600,6.580093505859375,0.7306898236274719,-1.6295655965805054,0.49399077892303467
1733768035616054800,6.5900546875,0.8370428681373596,-1.2144159078598022,0.5085403919219971
1733768035626014700,6.6000146484375,0.9355459213256836,-0.8441745042800903,0.37937554717063904
1733768035635974700,6.609974609375,0.9602494239807129,-0.5663157105445862,0.16309519112110138
1733768035645935900,6.619935791015625,0.912089467048645,-0.42257189750671387,-0.06968838721513748
1733768035655895800,6.629895751953125,0.7896804809570312,-0.2408689260482788,-0.29337555170059204
1733768035665855700,6.639855712890625,0.688827633857727,-0.23292973637580872,-0.5327515006065369
1733768035675815700,6.649815673828125,0.6818892955780029,-0.5787153840065002,-0.7118293642997742
1733768035685776600,6.659776611328125,0.6008366346359253,-1.2454200983047485,-0.8175211548805237
1733768035695736600,6.669736572265625,0.38274529576301575,-2.0987331867218018,-0.7866127490997314
1733768035705696500,6.679696533203125,0.14678244292736053,-2.952924966812134,-0.578437089920044
1733768035715656700,6.68965673828125,-0.01612071692943573,-3.653653860092163,-0.26890480518341064
1733768035725617700,6.69961767578125,-0.09118867665529251,-4.221577167510986,-0.041426125913858414
1733768035735577600,6.70957763671875,-0.12931209802627563,-4.669835567474365,0.01304856687784195
1733768035745537800,6.719537841796875,-0.17517533898353577,-4.930965900421143,-0.0597267709672451
1733768035755498800,6.729498779296875,-0.2283458709716797,-4.878573894500732,-0.18036289513111115
1733768035765458700,6.739458740234375,-0.2551289498806,-4.5281596183776855,-0.3027166724205017
1733768035775419000,6.7494189453125,-0.23665140569210052,-4.030036449432373,-0.37768492102622986
1733768035785378800,6.75937890625,-0.17837995290756226,-3.3118557929992676,-0.38817381858825684
1733768035795339500,6.769339599609375,-0.12160642445087433,-2.5938432216644287,-0.33995699882507324
1733768035805299700,6.7792998046875,-0.0933162048459053,-2.11382794380188,-0.3172171413898468
1733768035815259600,6.789259765625,-0.08708573877811432,-1.949139952659607,-0.3341878652572632
1733768035825219600,6.799219482421875,-0.09724400192499161,-1.95940363407135,-0.3129187822341919
1733768035835180800,6.809180908203125,-0.14420191943645477,-2.043757200241089,-0.21228457987308502
1733768035845140700,6.819140625,-0.23914574086666107,-2.179436206817627,-0.04923073947429657
1733768035855100700,6.8291005859375,-0.3644733130931854,-2.3347558975219727,0.13432016968727112
1733768035865061600,6.8390615234375,-0.4777429401874542,-2.407860517501831,0.32077690958976746
1733768035875021800,6.849021728515625,-0.5386765599250793,-2.2341630458831787,0.4755398631095886
1733768035884981800,6.858981689453125,-0.5593724846839905,-1.854471206665039,0.5918146371841431
1733768035894941700,6.868941650390625,-0.5687238574028015,-1.4074169397354126,0.631345272064209
1733768035904902700,6.878902587890625,-0.5641337633132935,-0.9573106169700623,0.6411404013633728
1733768035914862600,6.888862548828125,-0.5471358299255371,-0.5569301843643188,0.645374059677124
1733768035924822800,6.89882275390625,-0.4876457154750824,-0.2607057988643646,0.6746395826339722
1733768035934782700,6.90878271484375,-0.371863454580307,-0.10234279185533524,0.70438551902771
1733768035944743700,6.91874365234375,-0.21616140007972717,-0.1453801840543747,0.7043204307556152
1733768035954704000,6.928703857421875,-0.0651409924030304,-0.4513915181159973,0.659426212310791
1733768035964663800,6.938663818359375,0.07664201408624649,-0.8923729658126831,0.5612720847129822
1733768035974624500,6.94862451171875,0.1212981641292572,-1.4413793087005615,0.4219008982181549
1733768035984584700,6.958584716796875,0.14839904010295868,-1.911068320274353,0.26568081974983215
1733768035994544600,6.968544677734375,0.19905902445316315,-2.2186336517333984,0.09674930572509766
1733768036004504600,6.978504638671875,0.22404228150844574,-2.481567621231079,-0.06883147358894348
1733768036014465800,6.9884658203125,0.16642692685127258,-2.7713797092437744,-0.238589346408844
1733768036024425700,6.99842578125,0.017378807067871094,-3.102722406387329,-0.39053505659103394
1733768036034385700,7.0083857421875,-0.179664745926857,-3.4143004417419434,-0.5158208012580872
1733768036044345600,7.018345703125,-0.3054219186306,-3.689073324203491,-0.5426784157752991
1733768036054306800,7.028306884765625,-0.42291444540023804,-4.081988334655762,-0.402248352766037
1733768036064266800,7.038266845703125,-0.4702077805995941,-4.720174312591553,-0.06721930205821991
1733768036074226700,7.048226806640625,-0.4679499566555023,-5.375241756439209,0.41792261600494385
1733768036084187600,7.058187744140625,-0.48681843280792236,-5.612096786499023,0.8304537534713745
1733768036094147600,7.068147705078125,-0.5570781826972961,-5.01427698135376,0.9126559495925903
1733768036104107500,7.078107421875,-0.5818355679512024,-3.7383320331573486,0.6169919967651367
1733768036114067700,7.088067626953125,-0.5543072819709778,-2.0098958015441895,0.24740010499954224
1733768036124028700,7.098028564453125,-0.5169867277145386,-0.20728376507759094,0.06993123143911362
1733768036133988600,7.107988525390625,-0.523607611656189,1.1878494024276733,0.1081894040107727
1733768036143948800,7.11794873046875,-0.6003661751747131,1.8631266355514526,0.3695264756679535
1733768036153908700,7.12790869140625,-0.625333309173584,1.8548258543014526,0.8094175457954407
1733768036163869700,7.13786962890625,-0.5610234141349792,1.3998918533325195,1.2404632568359375
1733768036173830000,7.147829833984375,-0.4952448904514313,0.8041636347770691,1.5619547367095947
1733768036183789800,7.157789794921875,-0.45652881264686584,0.0651116892695427,1.7525612115859985
1733768036193750500,7.16775048828125,-0.3046809732913971,-0.7497255802154541,1.845337986946106
1733768036203710200,7.177710205078125,-0.14926984906196594,-1.6230212450027466,1.8067606687545776
1733768036213670100,7.187670166015625,0.005306137725710869,-2.320950984954834,1.6791554689407349
1733768036223630000,7.197630126953125,0.1974470317363739,-2.550429582595825,1.5520975589752197
1733768036233591000,7.207591064453125,0.3658645451068878,-2.381357431411743,1.457037329673767
1733768036243551200,7.21755126953125,0.38843393325805664,-2.045750856399536,1.3382093906402588
1733768036253511200,7.22751123046875,0.31532004475593567,-1.4341412782669067,1.191097378730774
1733768036263471000,7.23747119140625,0.2998183071613312,-0.7588413953781128,1.0267391204833984
1733768036273432300,7.247432373046875,0.317804753780365,-0.14084528386592865,0.9023262858390808
1733768036283392300,7.257392333984375,0.39679092168807983,0.3829129934310913,0.7644160389900208
1733768036293352200,7.267352294921875,0.5309516191482544,0.7599958181381226,0.601437509059906
1733768036303313200,7.277313232421875,0.6713870167732239,1.045302152633667,0.41601312160491943
1733768036313273000,7.287273193359375,0.825144350528717,1.1397684812545776,0.2134874314069748
1733768036323233000,7.29723291015625,1.0279593467712402,0.9626754522323608,-0.02679368481040001
1733768036333193200,7.307193115234375,1.2324742078781128,0.7351861000061035,-0.21148976683616638
1733768036343154200,7.317154296875,1.457999348640442,0.6229792833328247,-0.38098129630088806
1733768036353114000,7.327114013671875,1.5728918313980103,0.5361437201499939,-0.506393551826477
1733768036363074300,7.33707421875,1.671972632408142,0.5606290102005005,-0.37354138493537903
1733768036373034200,7.3470341796875,1.7224621772766113,0.42939743399620056,0.002138492651283741
1733768036382995200,7.3569951171875,1.5994482040405273,-0.16635318100452423,0.30740121006965637
1733768036392955400,7.366955322265625,1.4129060506820679,-0.9066362977027893,0.47185754776000977
1733768036402915300,7.376915283203125,1.2594976425170898,-1.4041324853897095,0.5726150870323181
1733768036412876000,7.3868759765625,1.1776288747787476,-1.5439358949661255,0.5868315696716309
1733768036422836200,7.396836181640625,1.1386829614639282,-1.4510793685913086,0.5305244326591492
1733768036432796200,7.406796142578125,1.096246600151062,-1.2539316415786743,0.416699081659317
1733768036442756000,7.416756103515625,1.0452643632888794,-1.0467710494995117,0.27969396114349365
1733768036452717300,7.42671728515625,0.9747568964958191,-0.92024827003479,0.16412688791751862
1733768036462677200,7.43667724609375,0.8715031147003174,-0.9112614989280701,0.11372014880180359
1733768036472637200,7.44663720703125,0.7293475866317749,-0.9967345595359802,0.10616528987884521
1733768036482597000,7.45659716796875,0.5535379648208618,-1.1223344802856445,0.14113496243953705
1733768036492558300,7.466558349609375,0.3611046373844147,-1.2571226358413696,0.22701817750930786
1733768036502518300,7.476518310546875,0.16276226937770844,-1.4358373880386353,0.29406657814979553
1733768036512478200,7.486478271484375,0.1441289335489273,-1.4844330549240112,0.358251690864563
1733768036522439200,7.496439208984375,0.18024341762065887,-1.4900963306427002,0.3229529559612274
1733768036532399000,7.506399169921875,0.24616411328315735,-1.5945370197296143,0.21199101209640503
1733768036542359000,7.516359130859375,0.30541959404945374,-1.7204492092132568,0.09638936072587967
1733768036552319200,7.5263193359375,0.3540923297405243,-1.6785939931869507,0.029330698773264885
1733768036562280200,7.5362802734375,0.4151670038700104,-1.5203853845596313,-0.030214723199605942
1733768036572240100,7.546240234375,0.47788336873054504,-1.2975068092346191,-0.09054570645093918
1733768036582200300,7.556200439453125,0.5294691920280457,-0.8766880035400391,-0.11370685696601868
1733768036592161300,7.566161376953125,0.4830893874168396,-0.4041955769062042,-0.10610566288232803
1733768036602121200,7.576121337890625,0.3844749331474304,-0.17804069817066193,-0.02491559274494648
1733768036612081400,7.586081298828125,0.3727647662162781,-0.342170774936676,0.13067667186260223
1733768036622041300,7.596041259765625,0.4029967188835144,-0.8471187353134155,0.2900756895542145
1733768036632002000,7.606001953125,0.4264804720878601,-1.4866478443145752,0.3582371771335602
1733768036641962200,7.615962158203125,0.48332035541534424,-1.9472429752349854,0.33923596143722534
1733768036651922200,7.625922119140625,0.5383854508399963,-2.1392061710357666,0.30955076217651367
1733768036661882000,7.635882080078125,0.567237913608551,-2.170532703399658,0.3190780282020569
1733768036671843300,7.64584326171875,0.5627214312553406,-2.0825705528259277,0.37938448786735535
1733768036681803300,7.65580322265625,0.506415843963623,-1.61033296585083,0.6950241923332214
1733768036691763200,7.66576318359375,0.36714670062065125,-1.1307817697525024,0.7911140322685242
1733768036701724400,7.675724365234375,0.00828209612518549,-0.5977599024772644,-0.04203951358795166
1733768036711684400,7.685684326171875,-0.26327750086784363,0.5711555480957031,-0.7099499106407166
1733768036721644300,7.695644287109375,-0.2751759886741638,1.875970482826233,-0.7567356824874878
1733768036731604200,7.705604248046875,0.10165520012378693,3.010333776473999,-0.25766968727111816
1733768036741565200,7.715565185546875,0.4189932942390442,3.490718364715576,0.25448644161224365
1733768036751525000,7.725525146484375,0.3397389352321625,3.4112937450408936,0.3802129626274109
1733768036761485000,7.735485107421875,-0.05450272560119629,2.559738874435425,-0.07755888998508453
1733768036771445200,7.7454453125,-0.41112449765205383,1.2919118404388428,-0.7501087784767151
1733768036781406200,7.75540625,-0.7115312218666077,0.38163599371910095,-1.0235340595245361
1733768036791366100,7.7653662109375,-0.917655885219574,-0.08875549584627151,-0.9035663604736328
1733768036801326300,7.775326416015625,-1.0551292896270752,-0.3824741244316101,-0.7204098105430603
1733768036811287000,7.785287109375,-1.2127255201339722,-0.594821035861969,-0.5891849398612976
1733768036821247000,7.7952470703125,-1.337309718132019,-0.8708272576332092,-0.5790517926216125
1733768036831207200,7.805207275390625,-1.4021835327148438,-1.182374119758606,-0.6957986354827881
1733768036841167000,7.8151669921875,-1.3899428844451904,-1.503921627998352,-0.9167296886444092
1733768036851128000,7.825128173828125,-1.322848916053772,-1.6089271306991577,-1.1346644163131714
1733768036861088300,7.835088134765625,-1.2601076364517212,-1.469093918800354,-1.3220216035842896
1733768036871048200,7.845048095703125,-1.2500193119049072,-1.1812338829040527,-1.5781348943710327
1733768036881008000,7.855008056640625,-1.331386685371399,-0.9268530011177063,-2.0381503105163574
1733768036890969300,7.86496923828125,-1.3288586139678955,-0.5741285085678101,-2.6218228340148926
1733768036900929300,7.87492919921875,-1.1773393154144287,-0.18479113280773163,-3.111528158187866
1733768036910889200,7.88488916015625,-0.8645321130752563,0.14167672395706177,-3.3051140308380127
1733768036920850200,7.89485009765625,-0.6118788719177246,0.7300445437431335,-3.3521320819854736
1733768036930810000,7.90481005859375,-0.5813174843788147,1.4922858476638794,-3.158078670501709
1733768036940770000,7.91477001953125,-0.5796803832054138,2.2319092750549316,-2.7922096252441406
1733768036950730000,7.92472998046875,-0.4259730875492096,2.60636305809021,-2.3250386714935303
1733768036960691200,7.934691162109375,-0.09265319257974625,2.551595449447632,-1.8227128982543945
1733768036970651100,7.944651123046875,0.1654510498046875,2.2319722175598145,-1.317203164100647
1733768036980611000,7.954611083984375,0.2679263949394226,1.6902364492416382,-0.8686144948005676
1733768036990571300,7.9645712890625,0.36001503467559814,0.9655642509460449,-0.46567103266716003
1733768037000532200,7.9745322265625,0.4352802038192749,0.10115973651409149,-0.026602918282151222
1733768037010492200,7.9844921875,0.45122668147087097,-0.8586443066596985,0.3955422043800354
1733768037020452400,7.994452392578125,0.3937464654445648,-1.8580106496810913,0.7359656095504761
1733768037030413000,8.0044130859375,0.3256174921989441,-2.6737000942230225,0.9991235136985779
1733768037040373000,8.014373046875,0.2865658402442932,-3.1135125160217285,1.2568230628967285
1733768037050333200,8.024333251953125,0.3462483286857605,-3.189175605773926,1.5168147087097168
1733768037060293000,8.034293212890624,0.4275944232940674,-2.979836940765381,1.7508273124694824
1733768037070254000,8.044254150390625,0.4779742360115051,-2.500725269317627,1.8622374534606934
1733768037080214300,8.05421435546875,0.45790091156959534,-1.8246662616729736,1.6842597723007202
1733768037090174200,8.06417431640625,0.43548616766929626,-1.116300344467163,1.2797660827636719
1733768037100134100,8.074134033203125,0.3951568901538849,-0.5638163685798645,0.7222481966018677
1733768037110095400,8.084095458984375,0.3422987163066864,-0.18602141737937927,0.044929128140211105
1733768037120055300,8.09405517578125,0.23964717984199524,0.27729031443595886,-0.7542588710784912
1733768037130015200,8.10401513671875,0.1349918693304062,0.8826686143875122,-1.4176563024520874
1733768037139976200,8.11397607421875,0.07744624465703964,1.5091273784637451,-1.7915295362472534
1733768037149936000,8.12393603515625,0.10446774214506149,2.02329683303833,-1.7735462188720703
1733768037159896000,8.13389599609375,0.12640683352947235,2.2166385650634766,-1.5866029262542725
1733768037169856300,8.143856201171875,0.10222212225198746,2.054579973220825,-1.3878344297409058
1733768037179817200,8.153817138671876,-0.012942219153046608,1.7631304264068604,-1.308517575263977
1733768037189777200,8.163777099609375,-0.18979981541633606,1.399277925491333,-1.322176456451416
1733768037199737300,8.1737373046875,-0.3554370701313019,1.0161991119384766,-1.357378602027893
1733768037209698600,8.183698486328124,-0.442778080701828,0.579964816570282,-1.3585453033447266
1733768037219658500,8.193658447265625,-0.45119717717170715,0.1522815078496933,-1.309527039527893
1733768037229618400,8.203618408203125,-0.42363929748535156,-0.2611428201198578,-1.240736961364746
1733768037239578400,8.213578369140626,-0.3863942623138428,-0.6036806106567383,-1.2700507640838623
1733768037249539300,8.223539306640625,-0.29218679666519165,-0.7128196358680725,-1.2147150039672852
1733768037259499500,8.23349951171875,-0.18810208141803741,-0.5043204426765442,-0.965271532535553
1733768037269459500,8.24345947265625,-0.12094620615243912,0.00122526241466403,-0.5655872821807861
1733768037279419400,8.25341943359375,0.1576547920703888,0.8847348093986511,0.002756408415734768
1733768037289380600,8.263380615234375,0.5620682835578918,1.8447694778442383,0.48661601543426514
1733768037299340500,8.273340576171876,0.7456392049789429,3.0353176593780518,0.6359522938728333
1733768037309300500,8.283300537109374,0.6013472676277161,4.161644458770752,0.2839052677154541
1733768037319261400,8.293261474609375,0.38022303581237793,4.9069952964782715,-0.35678791999816895
1733768037329221400,8.303221435546876,0.5742172598838806,4.177940368652344,-1.0765790939331055
1733768037339181300,8.313181396484374,0.8281850218772888,2.4258651733398438,-1.7585153579711914
1733768037349141200,8.323141357421875,0.18178226053714752,0.4746028780937195,-1.839531421661377
1733768037359102500,8.3331025390625,-0.35846638679504395,-1.0151586532592773,-1.253770112991333
1733768037369062400,8.3430625,-0.42277613282203674,-2.173250436782837,-0.49866944551467896
1733768037379022300,8.353022216796875,-0.3664708435535431,-3.3104004859924316,0.04999186843633652
1733768037388982500,8.362982421875,-0.3279178738594055,-4.3089494705200195,0.402778685092926
1733768037398943500,8.372943603515624,-0.3767331838607788,-4.937099933624268,0.6899502873420715
1733768037408903400,8.3829033203125,-0.4854002892971039,-5.121581077575684,0.9582704305648804
1733768037418863600,8.392863525390625,-0.580595076084137,-4.740000247955322,1.1900813579559326
1733768037428824300,8.40282421875,-0.5606469511985779,-3.8278956413269043,1.3604296445846558
1733768037438784300,8.4127841796875,-0.5491155982017517,-2.3919436931610107,1.4522804021835327
1733768037448744400,8.422744384765625,-0.44282296299934387,-0.429277241230011,1.5476762056350708
1733768037458704400,8.432704345703126,-0.17686867713928223,1.587722659111023,1.7564972639083862
1733768037468665300,8.442665283203125,0.19890254735946655,2.9906647205352783,2.0098865032196045
1733768037478625500,8.45262548828125,0.5271562337875366,3.583857536315918,2.2029030323028564
1733768037488585500,8.46258544921875,0.6655452847480774,3.5691921710968018,2.2336783409118652
1733768037498545400,8.47254541015625,0.6336092352867126,3.0643458366394043,2.089937210083008
1733768037508506600,8.482506591796875,0.5078606009483337,2.348890781402588,1.8288482427597046
1733768037518466600,8.492466552734374,0.4543974697589874,1.549249529838562,1.6381309032440186
1733768037528426500,8.502426513671875,0.7411559820175171,0.8560817241668701,1.7275882959365845
1733768037538387500,8.512387451171875,0.8404774069786072,0.6368990540504456,1.7744849920272827
1733768037548347400,8.522347412109376,0.727373480796814,0.4460151493549347,1.688620686531067
1733768037558307300,8.532307373046875,0.6590302586555481,0.20400795340538025,1.598097801208496
1733768037568267300,8.542267333984375,0.7337348461151123,0.14412064850330353,1.458752989768982
1733768037578228500,8.552228515625,0.8051376938819885,0.2710849344730377,1.265739917755127
1733768037588188400,8.5621884765625,0.878324568271637,0.5467939972877502,1.0151314735412598
1733768037598148400,8.5721484375,1.0225166082382202,0.6691242456436157,0.784235954284668
1733768037608109600,8.582109619140626,1.1989502906799316,0.9223288297653198,0.6516100168228149
1733768037618069500,8.592069580078125,1.3847119808197021,1.1900804042816162,0.6154313087463379
1733768037628029400,8.602029541015625,1.4643800258636475,1.1726726293563843,0.7272936701774597
1733768037637989600,8.61198974609375,1.458714485168457,0.884778618812561,0.9361286759376526
1733768037647950300,8.621950439453125,1.3524237871170044,0.5312439799308777,1.2633304595947266
1733768037657910300,8.63191015625,1.2223031520843506,0.06821208447217941,1.6461786031723022
1733768037667870500,8.641870361328126,1.16868257522583,-0.5518943071365356,1.9268747568130493
1733768037677830400,8.651830322265624,1.1309784650802612,-1.0075734853744507,2.0049550533294678
1733768037687791400,8.661791259765625,1.0620495080947876,-1.1402170658111572,1.8893789052963257
1733768037697751600,8.67175146484375,0.9612759947776794,-1.03340744972229,1.6412180662155151
1733768037707711500,8.68171142578125,0.8754913210868835,-0.8558140397071838,1.3456671237945557
1733768037717672400,8.69167236328125,0.7905187010765076,-0.7257707118988037,1.103393316268921
1733768037727632600,8.701632568359376,0.683867335319519,-0.7078036665916443,0.9259128570556641
1733768037737592600,8.711592529296874,0.5896802544593811,-0.7996682524681091,0.7592542171478271
1733768037747552500,8.721552490234375,0.5173349380493164,-0.9133825898170471,0.557300865650177
1733768037757513500,8.731513427734376,0.4784543216228485,-1.1112589836120605,0.3401626944541931
1733768037767473400,8.741473388671874,0.46916839480400085,-1.332374095916748,0.09018667042255402
1733768037777433300,8.751433349609375,0.4053843021392822,-1.5250272750854492,-0.16382287442684174
1733768037787393300,8.761393310546875,0.2052227109670639,-1.5854206085205078,-0.3461095690727234
1733768037797354500,8.7713544921875,-0.033278826624155045,-1.5073140859603882,-0.24420610070228577
1733768037807314400,8.781314453125,-0.22096458077430725,-1.2711963653564453,0.348880410194397
1733768037817274400,8.7912744140625,-0.4259051978588104,-1.2707306146621704,1.2219021320343018
1733768037827235600,8.801235595703124,-0.8730595111846924,-2.286132335662842,1.2109363079071045
1733768037837195500,8.811195556640625,-1.342867136001587,-2.968522071838379,0.3956822454929352
1733768037847155500,8.821155517578125,-1.5538959503173828,-1.6240973472595215,0.39358606934547424
1733768037857115400,8.831115478515626,-1.1816130876541138,0.2944222092628479,0.7409707307815552
1733768037867076400,8.841076416015625,-0.6250065565109253,0.5613713264465332,-0.26015815138816833
1733768037877036300,8.851036376953125,-0.06409011036157608,1.3940409421920776,-0.43710339069366455
1733768037886996500,8.86099658203125,0.23041848838329315,3.2726285457611084,-0.08917312324047089
1733768037896956400,8.870956298828125,0.05028253048658371,5.469259262084961,0.40752267837524414
1733768037906917400,8.88091748046875,-0.10702400654554367,6.3149638175964355,0.31262996792793274
1733768037916877600,8.890877685546876,0.26103314757347107,5.027174472808838,-0.6495633721351624
1733768037926837500,8.90083740234375,0.28450918197631836,3.2096097469329834,-1.6399493217468262
1733768037936798200,8.910798095703125,-0.3112972378730774,1.7615445852279663,-2.018944501876831
1733768037946758400,8.92075830078125,-1.0464979410171509,0.6289130449295044,-1.8486183881759644
1733768037956718300,8.93071826171875,-1.4714900255203247,-0.6325380802154541,-1.5581753253936768
1733768037966678300,8.94067822265625,-1.671319603919983,-1.7262415885925293,-1.2916855812072754
1733768037976639500,8.950639404296876,-1.9077907800674438,-2.500612497329712,-0.9862609505653381
1733768037986599400,8.960599365234375,-2.1724865436553955,-2.9491496086120605,-0.5302143096923828
1733768037996559400,8.970559326171875,-2.513094902038574,-3.174501895904541,0.011671403422951698
1733768038006519600,8.98051953125,-2.917285442352295,-3.046661615371704,-0.3688671290874481
1733768038016480500,8.99048046875,-2.7582240104675293,-2.3676300048828125,-1.3431555032730103
1733768038026440400,9.0004404296875,-1.9390922784805298,-1.3764448165893555,-1.8851813077926636
1733768038036400600,9.010400634765626,-0.7520161867141724,-0.43424472212791443,-1.764424443244934
1733768038046361300,9.020361328125,0.13626042008399963,0.1748175472021103,-1.2222752571105957
1733768038056321300,9.0303212890625,0.41755568981170654,0.49037376046180725,-0.6293190717697144
1733768038066281500,9.040281494140626,0.4433358907699585,0.6513181924819946,-0.2613908648490906
1733768038076241400,9.050241455078124,0.39953136444091797,0.6208921074867249,-0.21833665668964386
1733768038086202400,9.060202392578125,0.2907841205596924,0.3906690180301666,-0.36234229803085327
1733768038096162600,9.07016259765625,0.1944512128829956,-0.010730057023465633,-0.4610081613063812
1733768038106122500,9.08012255859375,0.156449556350708,-0.48768237233161926,-0.4232611358165741
1733768038116083500,9.09008349609375,0.095485620200634,-0.9480125904083252,-0.3701976239681244
1733768038126043600,9.100043701171876,0.09712692350149155,-1.3842755556106567,-0.3737228512763977
1733768038136003600,9.110003662109374,0.17960937321186066,-1.7438899278640747,-0.4977170526981354
1733768038145963500,9.119963623046875,0.17869138717651367,-1.9614405632019043,-0.6257045269012451
1733768038155924500,9.129924560546876,0.05451378598809242,-2.037879705429077,-0.6445707082748413
1733768038165884400,9.139884521484374,-0.057820212095975876,-1.993741512298584,-0.5554448366165161
1733768038175844400,9.14984423828125,-0.10060230642557144,-1.8726776838302612,-0.4399421513080597
1733768038185804300,9.15980419921875,-0.08593601733446121,-1.7553404569625854,-0.39462020993232727
1733768038195765500,9.169765625,-0.0613727793097496,-1.5559450387954712,-0.38158419728279114
1733768038205726000,9.179725830078125,-0.16431914269924164,-1.194423794746399,-0.39615967869758606
1733768038215686000,9.189685791015625,-0.2130669206380844,-0.7677426338195801,-0.42156097292900085
1733768038225646800,9.199646728515624,-0.1283957064151764,-0.38662534952163696,-0.5064013004302979
1733768038235606800,9.209606689453125,0.0008121705614030361,-0.1034499853849411,-0.6622942686080933
1733768038245566700,9.219566650390625,0.07031508535146713,0.09996997565031052,-0.8796502947807312
1733768038255527000,9.22952685546875,0.07591105252504349,0.2446856051683426,-1.0677317380905151
1733768038265488000,9.23948779296875,0.055448390543460846,0.31814146041870117,-1.201630711555481
1733768038275447800,9.24944775390625,0.04843224212527275,0.3292689919471741,-1.280390739440918
1733768038285408000,9.259407958984376,0.0738968551158905,0.24977949261665344,-1.3428157567977905
1733768038295369000,9.269368896484375,0.14170905947685242,0.08012286573648453,-1.4648287296295166
1733768038305329000,9.279328857421875,0.19637656211853027,-0.1283043622970581,-1.6526556015014648
1733768038315289000,9.2892890625,0.16867311298847198,-0.3279321789741516,-1.820128083229065
1733768038325249000,9.2992490234375,0.12385690212249756,-0.38445669412612915,-1.91007661819458
1733768038335209700,9.309209716796875,0.04154087230563164,-0.33166277408599854,-1.9090852737426758
1733768038345170000,9.319169921875,-0.07656180113554001,-0.2140463888645172,-1.8347591161727905
1733768038355129900,9.3291298828125,-0.19656699895858765,-0.16329005360603333,-1.7319188117980957
1733768038365089800,9.33908984375,-0.27532628178596497,-0.1454673707485199,-1.656450867652893
1733768038375051000,9.349051025390626,-0.3982410132884979,-0.009644035249948502,-1.5650749206542969
1733768038385011000,9.359010986328125,-0.5776363611221313,0.30762845277786255,-1.4149370193481445
1733768038394971000,9.368970947265625,-0.730542004108429,0.7603640556335449,-1.121841311454773
1733768038404932000,9.37893212890625,-0.7556540369987488,1.2326815128326416,-0.4968332052230835
1733768038414892000,9.38889208984375,-0.5840728878974915,1.4722017049789429,0.44826212525367737
1733768038424852000,9.39885205078125,-0.22177137434482574,1.3849717378616333,1.3219736814498901
1733768038434812000,9.40881201171875,0.2063969522714615,0.9074376821517944,1.72026789188385
1733768038444772900,9.41877294921875,0.558042585849762,-0.07984384149312973,1.550062656402588
1733768038454732800,9.42873291015625,0.6891483664512634,-0.960467517375946,1.1005157232284546
1733768038464692700,9.438692626953125,0.5615403056144714,-1.3749018907546997,0.7155299186706543
1733768038474654000,9.448654052734375,0.3419767916202545,-1.2760123014450073,0.5968506932258606
1733768038484614000,9.45861376953125,0.10755735635757446,-0.589291512966156,0.8036648631095886
1733768038494573800,9.46857373046875,-0.09135238081216812,0.23440445959568024,1.1634639501571655
1733768038504534000,9.478533935546874,-0.24309636652469635,0.8497387170791626,1.4598674774169922
1733768038514495000,9.488494873046875,-0.33328697085380554,1.0792096853256226,1.6125258207321167
1733768038524455000,9.498454833984376,-0.34391459822654724,0.8602886199951172,1.7250367403030396
1733768038534415000,9.5084150390625,-0.2534933388233185,0.42184144258499146,1.842952013015747
1733768038544375800,9.518375732421875,-0.09890533983707428,0.008304978720843792,1.9851291179656982
1733768038554335700,9.528335693359375,0.041776686906814575,-0.3227059841156006,2.097450017929077
1733768038564296000,9.5382958984375,0.07493863254785538,-0.6074455976486206,2.1096551418304443
1733768038574255900,9.548255859375,0.043937359005212784,-0.8001789450645447,2.0012893676757812
1733768038584216800,9.558216796875,-0.061414629220962524,-0.8609999418258667,1.7672064304351807
1733768038594177000,9.568177001953124,-0.15656979382038116,-0.7837634682655334,1.4664239883422852
1733768038604137000,9.578136962890625,-0.18703263998031616,-0.7015215754508972,1.1370482444763184
1733768038614098000,9.588097900390625,-0.15378770232200623,-0.6996810436248779,0.832268238067627
1733768038624058000,9.59805810546875,-0.11206343024969101,-0.6844275593757629,0.6169066429138184
1733768038634018000,9.60801806640625,-0.07300304621458054,-0.5842949748039246,0.5323060750961304
1733768038643978000,9.61797802734375,-0.049169886857271194,-0.5418724417686462,0.5191434025764465
1733768038653939000,9.62793896484375,-0.010620880872011185,-0.3967442810535431,0.4853387475013733
1733768038663899000,9.63789892578125,0.05056950822472572,-0.09303950518369675,0.41918981075286865
1733768038673858800,9.64785888671875,0.14034448564052582,0.2787986099720001,0.3334043622016907
1733768038683819000,9.657819091796876,0.2889384627342224,0.6481321454048157,0.2584441006183624
1733768038693780000,9.667780029296875,0.43337482213974,0.981303334236145,0.2024565041065216
1733768038703740000,9.677739990234375,0.5592523217201233,1.2330242395401,0.13513712584972382
1733768038713700000,9.6877001953125,0.6626810431480408,1.2728726863861084,0.13485099375247955
1733768038723661000,9.6976611328125,0.7455725073814392,1.104471206665039,0.1412297934293747
1733768038733621000,9.70762109375,0.7957510352134705,0.844496488571167,0.1437568962574005
1733768038743581200,9.717581298828126,0.8150900602340698,0.607130765914917,0.15255412459373474
1733768038753541000,9.727541015625,0.8409324288368225,0.43853652477264404,0.16737382113933563
1733768038763501800,9.737501708984375,0.8726208806037903,0.29085224866867065,0.19131749868392944
1733768038773462000,9.7474619140625,0.8883824348449707,0.14070235192775726,0.20686237514019012
1733768038783422000,9.757421875,0.8649939894676208,0.05923333019018173,0.22132626175880432
1733768038793383000,9.7673828125,0.7915658354759216,-0.015163043513894081,0.19822819530963898
1733768038803343000,9.777343017578126,0.7232708930969238,-0.04126415401697159,0.1931583434343338
1733768038813303000,9.787302978515624,0.6920706033706665,-0.02073008567094803,0.20765796303749084
1733768038823264000,9.797263916015625,0.657436728477478,-0.05582735314965248,0.23038963973522186
1733768038833224000,9.807223876953126,0.5978162884712219,-0.16974401473999023,0.2653436064720154
1733768038843183900,9.817183837890624,0.5117418766021729,-0.29053911566734314,0.2990661859512329
1733768038853143800,9.827143798828125,0.4496080279350281,-0.36811593174934387,0.3064954876899719
1733768038863105000,9.83710498046875,0.429699569940567,-0.38978925347328186,0.2768036127090454
1733768038873065000,9.84706494140625,0.44146233797073364,-0.38284268975257874,0.248435840010643
1733768038883025000,9.85702490234375,0.48976781964302063,-0.3544241189956665,0.256862610578537
1733768038892984800,9.86698486328125,0.5074530243873596,-0.3879946768283844,0.27206629514694214
1733768038902946000,9.876946044921874,0.4683367609977722,-0.5164671540260315,0.27435237169265747
1733768038912906000,9.886906005859375,0.4193097651004791,-0.6662091612815857,0.24676144123077393
1733768038922866000,9.896865966796875,0.3766286075115204,-0.8825430274009705,0.17332477867603302
1733768038932827000,9.906826904296874,0.38632816076278687,-1.286185383796692,0.024797527119517326
1733768038942786800,9.916786865234375,0.4148831069469452,-1.8370591402053833,-0.13038592040538788
1733768038952746800,9.926746826171875,0.3848136365413666,-2.2115862369537354,-0.2471250742673874
1733768038962707000,9.93670703125,0.3045230507850647,-2.2653770446777344,-0.2702556848526001
1733768038972668000,9.94666796875,0.18239688873291016,-2.0518953800201416,-0.21290184557437897
1733768038982627800,9.9566279296875,0.03082602098584175,-1.743212103843689,-0.041537292301654816
1733768038992588000,9.966588134765624,-0.002142987446859479,-1.0303152799606323,0.602719783782959
1733768039002549000,9.976549072265625,0.004195069894194603,-0.2561999261379242,1.5171736478805542
1733768039012509000,9.986509033203125,-0.26975297927856445,-0.3774089515209198,1.584869384765625
1733768039022469000,9.99646923828125,-0.6044518947601318,-0.43496546149253845,0.45020246505737305
1733768039032429000,10.006428955078125,-0.6957984566688538,-0.12016373127698898,-1.1049305200576782
1733768039042389800,10.0163896484375,-0.4180006682872772,0.5589314103126526,-1.4153006076812744
1733768039052350000,10.026349853515624,-0.09847328066825867,1.4859110116958618,-0.5757500529289246
1733768039062310000,10.036309814453125,0.014734768308699131,2.5266127586364746,0.23989787697792053
1733768039072270800,10.046270751953125,-0.11287623643875122,3.071453332901001,0.6707531213760376
1733768039082231000,10.05623095703125,-0.302566260099411,2.654749870300293,0.5542824864387512
1733768039092191000,10.06619091796875,-0.23510828614234924,1.2793296575546265,-0.45809808373451233
1733768039102151000,10.07615087890625,-0.1592864990234375,0.08370295912027359,-1.724178433418274
1733768039112112000,10.086112060546874,-0.3573828339576721,0.05353662744164467,-2.070324420928955
1733768039122072000,10.096072021484375,-0.7447241544723511,0.709540843963623,-1.5583269596099854
1733768039132032000,10.106031982421875,-1.0850906372070312,1.1069306135177612,-0.8534924983978271
1733768039141993000,10.115992919921876,-1.3724584579467773,0.8676503896713257,-0.39801734685897827
1733768039151953000,10.125952880859375,-1.5542019605636597,0.06628359854221344,-0.19347651302814484
1733768039161912800,10.135912841796875,-1.5661978721618652,-1.1487116813659668,-0.10108134150505066
1733768039171874000,10.1458740234375,-1.5444577932357788,-2.2827489376068115,0.019888587296009064
1733768039181834000,10.155833984375,-1.5697519779205322,-3.2127976417541504,0.06813015043735504
1733768039191794000,10.1657939453125,-1.4856510162353516,-3.8548293113708496,-0.07487387210130692
1733768039201753900,10.17575390625,-1.1797211170196533,-3.906851053237915,-0.3622734248638153
1733768039211714600,10.185714599609375,-0.7545772790908813,-3.4120938777923584,-0.6134178638458252
1733768039221674500,10.195674560546875,-0.41716912388801575,-2.508584976196289,-0.6694944500923157
1733768039231634400,10.205634521484376,-0.21088938415050507,-1.5924830436706543,-0.5886136889457703
1733768039241595400,10.215595458984374,-0.07748711109161377,-0.9902987480163574,-0.4236985146999359
1733768039251555300,10.225555419921875,0.01391336228698492,-0.694693386554718,-0.2887685298919678
1733768039261515300,10.235515380859376,0.10753705352544785,-0.5987996459007263,-0.23178540170192719
1733768039271475500,10.245475341796874,0.15969231724739075,-0.6413853168487549,-0.2700271010398865
1733768039281436400,10.2554365234375,0.16785597801208496,-0.701894223690033,-0.37745821475982666
1733768039291396400,10.265396240234375,0.21744652092456818,-0.8966683745384216,-0.4565449655056
1733768039301356500,10.2753564453125,0.23687320947647095,-1.1102455854415894,-0.42266368865966797
1733768039311317500,10.2853173828125,0.27574867010116577,-1.1822491884231567,-0.295332133769989
1733768039321277400,10.29527734375,0.33872470259666443,-1.0980485677719116,-0.14845320582389832
1733768039331237600,10.305237548828124,0.4044952094554901,-0.9525182843208313,-0.0748630240559578
1733768039341197600,10.315197509765625,0.4956198036670685,-0.8473979830741882,-0.1125510111451149
1733768039351158300,10.325158203125,0.5640217661857605,-0.7920002937316895,-0.2760411202907562
1733768039361118500,10.335118408203124,0.5815485715866089,-0.6216099262237549,-0.5182015895843506
1733768039371078400,10.345078369140625,0.5143773555755615,-0.39663127064704895,-0.8150925636291504
1733768039381039400,10.355039306640625,0.4750520586967468,-0.1865731179714203,-1.0547789335250854
1733768039390999600,10.36499951171875,0.4386540949344635,-0.0006003761664032936,-1.1471554040908813
1733768039400959500,10.37495947265625,0.3335031569004059,0.14571475982666016,-1.156308889389038
1733768039410919400,10.38491943359375,0.287250280380249,0.053122881799936295,-1.2936863899230957
1733768039420880600,10.394880615234374,0.1598196178674698,-0.1786421686410904,-1.3705964088439941
1733768039430840600,10.404840576171875,-0.09868928790092468,-0.26432377099990845,-1.2342296838760376
1733768039440800500,10.414800537109375,-0.2086738497018814,-0.12045715749263763,-0.956047534942627
1733768039450761500,10.424761474609374,-0.14866939187049866,-0.0005096434615552425,-0.6911015510559082
1733768039460721400,10.434721435546875,-0.1109909936785698,-0.01645398885011673,-0.5148665904998779
1733768039470681300,10.444681396484375,-0.12715977430343628,-0.09529253095388412,-0.49438580870628357
1733768039480641300,10.454641357421876,-0.2258533388376236,-0.12856580317020416,-0.6064929366111755
1733768039490602500,10.4646025390625,-0.36119621992111206,-0.0710381269454956,-0.7784437537193298
1733768039500562400,10.4745625,-0.3731343746185303,0.05331818759441376,-0.9030194878578186
1733768039510522400,10.4845224609375,-0.2793320417404175,0.20255599915981293,-0.9374916553497314
1733768039520483600,10.494483642578125,-0.2476891428232193,0.33383119106292725,-0.9251947402954102
1733768039530443500,10.504443603515625,-0.27960944175720215,0.3679460883140564,-0.9190248250961304
1733768039540403500,10.514403564453126,-0.3725321888923645,0.25605472922325134,-0.9358474612236023
1733768039550364400,10.524364501953125,-0.49261993169784546,0.03598114848136902,-0.9562426209449768
1733768039560324400,10.534324462890625,-0.6113178133964539,-0.22137901186943054,-0.9341860413551331
1733768039570284300,10.5442841796875,-0.7045682072639465,-0.4084632694721222,-0.8189842700958252
1733768039580244500,10.554244384765624,-0.6775222420692444,-0.5067299008369446,-0.5863227844238281
1733768039590205400,10.564205322265625,-0.4623605012893677,-0.4945089519023895,-0.2402646392583847
1733768039600165400,10.574165283203126,-0.19691498577594757,-0.3233153522014618,0.17839227616786957
1733768039610125600,10.58412548828125,0.03855906426906586,-0.03907301276922226,0.5345723628997803
1733768039620086500,10.59408642578125,0.35897010564804077,0.1327623873949051,0.7561665177345276
1733768039630046500,10.60404638671875,0.8080353140830994,0.06844273209571838,0.7972756028175354
1733768039640006700,10.614006591796874,1.1429107189178467,-0.230735182762146,0.6380473375320435
1733768039649966600,10.623966552734375,1.2239835262298584,-0.20769426226615906,0.4727126657962799
1733768039659927300,10.63392724609375,0.9475765228271484,0.007401795592159033,0.43426594138145447
1733768039669887500,10.643887451171874,0.339924156665802,0.027920855209231377,0.610692024230957
1733768039679847400,10.653847412109375,-0.12790803611278534,0.07104276120662689,0.9892507791519165
1733768039689808400,10.663808349609376,-0.3336295485496521,0.29644644260406494,1.3884445428848267
1733768039699768600,10.6737685546875,-0.5286073088645935,0.5886313915252686,1.7064350843429565
1733768039709728500,10.683728515625,-0.6629306077957153,0.7586434483528137,1.9634469747543335
1733768039719688400,10.6936884765625,-0.6961953043937683,0.6929997205734253,2.1532082557678223
1733768039729649700,10.703649658203124,-0.6331115961074829,0.451488733291626,2.270399570465088
1733768039739609600,10.713609619140625,-0.4975912868976593,0.24641254544258118,2.2883801460266113
1733768039749569500,10.723569580078125,-0.34827232360839844,0.2077142894268036,2.1384503841400146
1733768039759530500,10.733530517578124,-0.294284462928772,0.21182222664356232,1.8498756885528564
1733768039769490400,10.743490478515625,-0.3842145502567291,-0.0033848206512629986,1.4094948768615723
1733768039779450400,10.753450439453125,-0.4974398910999298,-0.418728768825531,0.9493792653083801
1733768039789410300,10.763410400390624,-0.5030466914176941,-1.0548003911972046,0.6579117178916931
1733768039799371500,10.77337158203125,-0.4196740686893463,-1.7064193487167358,0.6172764301300049
1733768039809331500,10.78333154296875,-0.34871336817741394,-1.9808276891708374,0.7760419249534607
1733768039819291400,10.79329150390625,-0.26687896251678467,-2.11173677444458,0.9558708071708679
1733768039829252600,10.803252685546875,-0.19030296802520752,-2.0573654174804688,1.1004046201705933
1733768039839212500,10.813212646484375,-0.08463431894779205,-1.9975513219833374,1.1111576557159424
1733768039849172500,10.82317236328125,-0.06823606044054031,-1.7317519187927246,0.6886177062988281
1733768039859133400,10.833133544921875,-0.01886158250272274,-1.1325627565383911,0.1100451871752739
1733768039869093400,10.84309326171875,0.1381177008152008,-0.2608644962310791,-0.20970867574214935
1733768039879053300,10.85305322265625,0.42235156893730164,0.7369258403778076,-0.23812726140022278
1733768039889013500,10.863013427734375,0.6825971603393555,1.5446821451187134,-0.08232612162828445
1733768039898974500,10.872974365234375,0.8649406433105469,2.1201179027557373,0.16174086928367615
1733768039908934400,10.882934326171876,0.9782715439796448,2.4074201583862305,0.3804454505443573
1733768039918894600,10.89289453125,1.0493284463882446,2.363454818725586,0.5279062390327454
1733768039928855300,10.902855224609375,1.1027805805206299,2.0750160217285156,0.6469080448150635
1733768039938815200,10.912815185546876,1.1275311708450317,1.5745877027511597,0.7414156794548035
1733768039948775400,10.922775390625,1.0740147829055786,0.9184160232543945,0.8395342826843262
1733768039958735400,10.9327353515625,0.9909617900848389,0.23543798923492432,0.9476307034492493
1733768039968696300,10.9426962890625,0.8933944702148438,-0.38781633973121643,1.0367757081985474
1733768039978656500,10.952656494140625,0.7956830859184265,-0.879897952079773,1.0919471979141235
1733768039988616400,10.962616455078125,0.7831219434738159,-1.1410963535308838,1.1337147951126099
1733768039998577400,10.972577392578126,0.8167499899864197,-1.175977110862732,1.1514586210250854
1733768040008537600,10.98253759765625,0.8286394476890564,-1.0479744672775269,1.1202785968780518
1733768040018497500,10.99249755859375,0.8328975439071655,-0.8074361681938171,1.0352824926376343
1733768040028458200,11.002458251953126,0.8305860161781311,-0.5120459794998169,0.888272225856781
1733768040038418400,11.01241845703125,0.8312510251998901,-0.26273152232170105,0.7137411832809448
1733768040048378400,11.02237841796875,0.838062584400177,-0.09338666498661041,0.5447230935096741
1733768040058338300,11.03233837890625,0.8625399470329285,-0.015875892713665962,0.3975658714771271
1733768040068299500,11.042299560546875,0.888371467590332,-0.04485205560922623,0.28447481989860535
1733768040078259500,11.052259521484375,0.9072865843772888,-0.18071268498897552,0.2037850320339203
1733768040088219400,11.062219482421876,0.8900706768035889,-0.40173545479774475,0.15843123197555542
1733768040098179300,11.072179443359374,0.825574517250061,-0.6688979268074036,0.17178058624267578
1733768040108140500,11.082140625,0.7380734086036682,-0.9371592402458191,0.20471639931201935
1733768040118100500,11.0921005859375,0.6381322145462036,-1.149662733078003,0.20796598494052887
1733768040128060400,11.102060302734374,0.5662506222724915,-1.2165462970733643,0.16925032436847687
1733768040138021400,11.112021484375,0.4838995337486267,-1.2292213439941406,0.06512684375047684
1733768040147981300,11.121981201171875,0.3782442808151245,-1.2208037376403809,-0.05701860412955284
1733768040157941200,11.131941162109374,0.2670746147632599,-1.1721004247665405,-0.16747960448265076
1733768040167902500,11.14190234375,0.1643334925174713,-1.0971119403839111,-0.27469542622566223
1733768040177862400,11.1518623046875,0.0674426481127739,-1.0055674314498901,-0.383047491312027
1733768040187822300,11.161822265625,-0.010112779214978218,-1.0010509490966797,-0.49734723567962646
1733768040197782500,11.171782470703125,-0.0649091824889183,-1.134568452835083,-0.6012462377548218
1733768040207744500,11.18174462890625,-0.11295250803232193,-1.3661425113677979,-0.681124210357666
1733768040217704400,11.191704345703124,-0.16148781776428223,-1.659904956817627,-0.7537598013877869
1733768040227664400,11.201664306640625,-0.229908287525177,-2.0373427867889404,-0.827958881855011
1733768040237625600,11.21162548828125,-0.32895392179489136,-2.3618669509887695,-0.8985542058944702
1733768040247585500,11.22158544921875,-0.39790138602256775,-2.2911179065704346,-0.8338444232940674
1733768040257545500,11.23154541015625,-0.3524966239929199,-1.5264390707015991,-0.3912901282310486
1733768040267505700,11.241505615234376,-0.28500476479530334,0.02217627502977848,0.7077544331550598
1733768040277466600,11.251466552734374,-0.3983619511127472,0.40654897689819336,1.28470778465271
1733768040287426600,11.261426513671875,-0.6538094282150269,-0.39692428708076477,0.9867875576019287
1733768040297386800,11.27138671875,-0.8736464381217957,-0.545623242855072,0.6700865626335144
1733768040307347500,11.281347412109374,-0.8912825584411621,-0.2665155231952667,-0.1522120088338852
1733768040317307400,11.291307373046875,-0.3404097855091095,-0.1689426153898239,-0.9341549873352051
1733768040327267600,11.301267578125,0.47670072317123413,0.6918931007385254,-0.40899837017059326
1733768040337227500,11.3112275390625,0.985098659992218,2.122997760772705,0.8580854535102844
1733768040347188500,11.3211884765625,0.9267600774765015,3.3982808589935303,1.6666570901870728
1733768040357148700,11.331148681640625,0.2789733111858368,4.121230125427246,1.68500554561615
1733768040367108600,11.341108642578124,-0.5199034214019775,3.673853635787964,0.9744021892547607
1733768040377069600,11.351069580078125,-0.9317280054092407,1.985256552696228,-0.34167686104774475
1733768040387029800,11.36102978515625,-1.0303032398223877,0.7283315658569336,-1.046378493309021
1733768040396989700,11.37098974609375,-1.1127147674560547,-0.1121317446231842,-1.0058376789093018
1733768040406950400,11.380950439453125,-1.180639386177063,-1.0773602724075317,-0.6221081614494324
1733768040416910600,11.39091064453125,-1.2552944421768188,-2.2230892181396484,-0.11847058683633804
1733768040426870500,11.40087060546875,-1.4331073760986328,-3.4863390922546387,0.36451756954193115
1733768040436830500,11.41083056640625,-1.5636680126190186,-4.747927665710449,0.6976720690727234
1733768040446791700,11.420791748046875,-1.4785785675048828,-5.580427646636963,0.8117156028747559
1733768040456751600,11.430751708984374,-1.1271625757217407,-5.843531131744385,0.44972947239875793
1733768040466711600,11.440711669921875,-0.7811340093612671,-5.774710178375244,-0.5925389528274536
1733768040476672800,11.4506728515625,-0.5252905488014221,-5.222529411315918,-1.721313714981079
1733768040486632700,11.4606328125,-0.24318043887615204,-4.269351959228516,-2.349346876144409
1733768040496592600,11.470592529296875,0.05436788126826286,-3.441096782684326,-2.3694772720336914
1733768040506552600,11.480552490234375,0.1402934193611145,-2.617385149002075,-1.8650635480880737
1733768040516513500,11.490513427734374,0.21972006559371948,-1.916437029838562,-1.2468876838684082
1733768040526473500,11.500473388671875,0.4225444793701172,-1.4392365217208862,-0.8688083291053772
1733768040536433400,11.510433349609375,0.6280118823051453,-1.114391565322876,-0.7599402070045471
1733768040546394600,11.52039453125,0.7798666954040527,-0.9040266275405884,-0.798633337020874
1733768040556354600,11.5303544921875,0.8302657008171082,-0.7027973532676697,-0.8733688592910767
1733768040566314500,11.540314453125,0.7785443067550659,-0.389984667301178,-0.9320801496505737
1733768040576274700,11.550274658203126,0.689770519733429,-0.06832169741392136,-0.9206192493438721
1733768040586235600,11.560235595703125,0.5865384936332703,0.22217145562171936,-0.8137835264205933
1733768040596195600,11.570195556640625,0.5885489583015442,0.4541386663913727,-0.6135018467903137
1733768040606155500,11.580155517578126,0.627729058265686,0.7037501335144043,-0.47822079062461853
1733768040616116500,11.590116455078125,0.6106160879135132,0.7777990102767944,-0.5186722874641418
1733768040626076400,11.600076416015625,0.532683253288269,0.7744434475898743,-0.6775346398353577
1733768040636036600,11.61003662109375,0.28660985827445984,0.6775158047676086,-0.8645223379135132
1733768040645997600,11.61999755859375,0.02745247818529606,0.6155088543891907,-0.97754967212677
1733768040655957500,11.62995751953125,-0.09253384172916412,0.5384787917137146,-0.9782007932662964
1733768040665917700,11.639917724609376,-0.13551917672157288,0.42374375462532043,-0.9467262625694275
1733768040675877600,11.649877685546874,-0.20689615607261658,0.30498355627059937,-0.9683082699775696
1733768040685838300,11.65983837890625,-0.29023271799087524,0.11599436402320862,-1.0174782276153564
1733768040695798500,11.669798583984376,-0.34159043431282043,-0.1314508467912674,-1.0445783138275146
1733768040705758500,11.679758544921874,-0.35159730911254883,-0.410214900970459,-1.0358197689056396
1733768040715719400,11.689719482421875,-0.3601820170879364,-0.6288079619407654,-1.0251657962799072
1733768040725679600,11.6996796875,-0.39612075686454773,-0.8144741654396057,-1.0341730117797852
1733768040735639600,11.7096396484375,-0.4310411810874939,-0.9526969790458679,-1.0641359090805054
1733768040745599500,11.719599609375,-0.44227251410484314,-1.0147514343261719,-1.1011372804641724
1733768040755560700,11.729560791015626,-0.4459300935268402,-0.9402641654014587,-1.1183637380599976
1733768040765520600,11.739520751953124,-0.5008298754692078,-0.751240074634552,-1.0957852602005005
1733768040775480600,11.74948046875,-0.609596848487854,-0.45187732577323914,-1.023193597793579
1733768040785441500,11.759441650390626,-0.7302054166793823,-0.09608941525220871,-0.9262228012084961
1733768040795401500,11.7694013671875,-0.8094781041145325,0.2512643039226532,-0.8170425295829773
1733768040805361400,11.779361328125,-0.7405177354812622,0.5540756583213806,-0.655046284198761
1733768040815321600,11.789321533203125,-0.44785815477371216,0.7458307147026062,-0.4330310821533203
1733768040825282600,11.799282470703124,0.029647670686244965,0.6688759922981262,-0.19891357421875
1733768040835242500,11.809242431640625,0.5250877737998962,0.33957773447036743,0.06241364777088165
1733768040845202700,11.81920263671875,0.9798359870910645,0.1413789689540863,0.3458901643753052
1733768040855163600,11.82916357421875,1.1844390630722046,0.4275689423084259,0.5603252053260803
1733768040865123600,11.83912353515625,1.1206438541412354,0.9667718410491943,0.6845178008079529
1733768040875083800,11.849083740234375,0.825755774974823,1.5076031684875488,0.678382158279419
1733768040885043700,11.859043701171874,0.7657335996627808,0.7973989248275757,-0.2954394519329071
1733768040895004400,11.86900439453125,0.8934987783432007,-0.45260974764823914,-1.4867985248565674
1733768040904964600,11.878964599609375,0.4429920017719269,-0.9039390683174133,-1.6580557823181152
1733768040914924500,11.888924560546876,-0.20819774270057678,-0.6867771744728088,-1.1263974905014038
1733768040924885500,11.898885498046875,-0.7585785388946533,-0.43567660450935364,-0.3735480010509491
1733768040934845700,11.908845703125,-0.9887933731079102,-0.35486429929733276,0.3807188868522644
1733768040944805600,11.9188056640625,-0.9018023610115051,-0.5003957152366638,1.082869291305542
1733768040954766600,11.9287666015625,-0.7534461617469788,-0.7296105623245239,1.6921018362045288
1733768040964726800,11.938726806640625,-0.677618682384491,-0.8892532587051392,2.1852939128875732
1733768040974686700,11.948686767578126,-0.7013884782791138,-1.0550674200057983,2.552123785018921
1733768040984646700,11.958646728515625,-0.6804108619689941,-1.2240349054336548,2.8215534687042236
1733768040994607600,11.968607666015625,-0.48425227403640747,-1.4119467735290527,2.9075441360473633
1733768041004567600,11.978567626953126,-0.31681618094444275,-1.5071650743484497,2.7199981212615967
1733768041014527500,11.988527587890625,-0.23096704483032227,-1.773262858390808,2.2258036136627197
1733768041024488700,11.99848876953125,-0.24176529049873352,-2.3356404304504395,1.5652838945388794
1733768041034448600,12.00844873046875,-0.20001810789108276,-2.770392417907715,1.0732533931732178
1733768041044408600,12.01840869140625,-0.1459657847881317,-2.952442169189453,0.8248481154441833
1733768041054368500,12.028368408203125,-0.13198444247245789,-2.6303019523620605,0.7912182211875916
1733768041064329700,12.038329833984376,-0.1269531100988388,-1.881435513496399,0.8846461176872253
1733768041074289700,12.04828955078125,-0.1091751828789711,-0.9405438899993896,1.0225040912628174
1733768041084249600,12.05824951171875,-0.06697064638137817,-0.1097097098827362,1.1466243267059326
1733768041094210600,12.06821044921875,-0.025702033191919327,0.5598169565200806,1.1764469146728516
1733768041104170500,12.07817041015625,0.007318397052586079,1.1298633813858032,1.101738691329956
1733768041114130400,12.08813037109375,0.04038793221116066,1.6100083589553833,0.8747765421867371
1733768041124091600,12.098091552734376,0.08411815762519836,1.9880412817001343,0.47871848940849304
1733768041134051600,12.108051513671874,0.12330497801303864,2.275458574295044,0.18185804784297943
1733768041144011500,12.118011474609375,0.17761404812335968,2.4340462684631348,0.03785108029842377
1733768041153971700,12.1279716796875,0.2766711115837097,2.5051686763763428,0.02607245370745659
1733768041163932700,12.1379326171875,0.39468032121658325,2.441551923751831,0.08884665369987488
1733768041173892600,12.147892578125,0.4498724937438965,2.2416117191314697,0.18409539759159088
1733768041183852800,12.157852783203126,0.48734790086746216,1.8952245712280273,0.23680558800697327
1733768041193813500,12.1678134765625,0.5056837201118469,1.4471378326416016,0.27112892270088196
1733768041203773400,12.1777734375,0.5810421109199524,0.7888158559799194,0.30996933579444885
1733768041213732900,12.18773291015625,0.6349093317985535,0.1838311105966568,0.402533620595932
1733768041223693000,12.197693115234374,0.6745836734771729,-0.2935069501399994,0.5222073793411255
1733768041233654000,12.207654052734375,0.7349223494529724,-0.5676162838935852,0.6324276328086853
1733768041243614000,12.217614013671875,0.7566587924957275,-0.6663272380828857,0.702977180480957
1733768041253574100,12.22757421875,0.7484480142593384,-0.6997858285903931,0.7039173245429993
1733768041263535000,12.23753515625,0.7328858971595764,-0.6712725758552551,0.6546697020530701
1733768041273495000,12.2474951171875,0.7353746294975281,-0.5821552276611328,0.5883820652961731
1733768041283455200,12.257455322265624,0.7549479603767395,-0.5137439966201782,0.5196184515953064
1733768041293415200,12.267415283203125,0.77008455991745,-0.47753170132637024,0.45656755566596985
1733768041303376000,12.2773759765625,0.7676706314086914,-0.43238720297813416,0.40879330039024353
1733768041313336000,12.287336181640624,0.7564360499382019,-0.3390876352787018,0.36382317543029785
1733768041323296000,12.2972958984375,0.7375947833061218,-0.2630532383918762,0.3139025568962097
1733768041333257000,12.307257080078125,0.708066463470459,-0.23562292754650116,0.23900166153907776
1733768041343217200,12.317217041015626,0.6856616139411926,-0.25558745861053467,0.1623576432466507
1733768041353177000,12.327177001953125,0.6690858602523804,-0.4117980897426605,0.09714216738939285
1733768041363137000,12.337136962890625,0.6287657618522644,-0.6318702101707458,0.061000071465969086
1733768041373098200,12.34709814453125,0.5798711776733398,-0.8279451727867126,0.06139208748936653
1733768041383058200,12.35705810546875,0.4904462397098541,-1.087296485900879,0.07608368992805481
1733768041393018000,12.36701806640625,0.397959440946579,-1.361160159111023,0.10167106986045837
1733768041402979000,12.37697900390625,0.32437464594841003,-1.5983773469924927,0.11275564879179001
1733768041412939000,12.38693896484375,0.27672937512397766,-1.708774447441101,0.10728710889816284
1733768041422899000,12.39689892578125,0.27284643054008484,-1.649781346321106,0.07496006041765213
1733768041432859100,12.406859130859376,0.2932049632072449,-1.4688078165054321,0.004000668879598379
1733768041442820000,12.416820068359375,0.32299965620040894,-1.2362014055252075,-0.0803268551826477
1733768041452780000,12.426780029296875,0.37895721197128296,-1.0039607286453247,-0.12680433690547943
1733768041462740200,12.436740234375,0.4487871527671814,-0.8650869727134705,-0.13934344053268433
1733768041472701200,12.446701171875,0.4752190113067627,-0.8615947365760803,-0.11456272751092911
1733768041482661000,12.4566611328125,0.455755352973938,-0.9797731041908264,-0.050146158784627914
1733768041492621000,12.46662109375,0.4758683443069458,-1.1431615352630615,0.027677003294229507
