time,seconds_elapsed,z,y,x
1733768356635898400,0.0318984375,0.09983926136791706,-0.08906944555044173,0.1401753634095192
1733768356645858300,0.0418583984375,0.010194354017078876,-0.09145371033847331,0.04046338168308138
1733768356655818500,0.051818603515625,-0.045398061606287954,-0.1510194135069847,-0.011224281586706637
1733768356665778400,0.0617783203125,-0.08288345039188862,-0.12189736391901969,-0.03186433403342962
1733768356675739400,0.071739501953125,-0.15077683692276478,-0.09175123198032378,-0.018102935184538364
1733768356685699600,0.081699462890625,-0.15198036749362945,-0.11916180147528647,-0.04409194744378328
1733768356695659500,0.091659423828125,-0.15143910022377968,-0.1023340007930994,-0.13782383184731006
1733768356705619500,0.101619384765625,-0.08318214107751846,-0.14855857635140418,-0.2795414562627673
1733768356715580400,0.111580322265625,0.056471244284510606,-0.14302256953418255,-0.36793314868211746
1733768356725540400,0.121540283203125,0.12915157283097506,-0.08637538416087627,-0.288177913313359
1733768356735500300,0.131500244140625,0.1535375338077545,-0.009723521634936332,-0.1273196812286973
1733768356745460500,0.14146044921875,0.20094109001755714,0.05329202972650528,0.058686289985477924
1733768356755421400,0.15142138671875,0.23912673602700232,0.0395534272313118,0.2283352928996086
1733768356765381400,0.16138134765625,0.32997780429720874,-0.00801788676083088,0.3135834265962243
1733768356775341600,0.171341552734375,0.24177169757783412,0.018411270481348038,0.3271607010498643
1733768356785301500,0.181301513671875,0.12070318569839,0.10495207433700561,0.32489889359772206
1733768356795262500,0.191262451171875,0.16919103001356123,0.06809037040770054,0.23469079940617082
1733768356805222400,0.201222412109375,0.09447744207382201,0.02958206831514835,0.12015548868775366
1733768356815182300,0.211182373046875,0.08551292211264372,0.025097616377472876,-0.004058189349621534
1733768356825142300,0.221142333984375,0.023836218139529228,0.01902151133418083,-0.07856354136615991
1733768356835103500,0.231103515625,-0.10585136126428842,-0.0985433763384819,-0.14278247716799378
1733768356845063400,0.2410634765625,-0.24874153659045695,-0.24970307509899137,-0.2295309324249625
1733768356855023400,0.2510234375,-0.2816360904544592,-0.24032383685708045,-0.15724720198065043
1733768356864983300,0.2609833984375,-0.2717576705187559,-0.2572445765197277,0.05567249512225389
1733768356874944500,0.270944580078125,-0.2947130141705274,-0.2266618067294359,0.19572452441304922
1733768356884904400,0.280904541015625,-0.310077756562829,-0.24208617035448549,0.20553923146277664
1733768356894864400,0.290864501953125,-0.3611936112940311,-0.2827519427418709,0.12366934202760457
1733768356904824600,0.300824462890625,-0.37745617930889125,-0.3389356022566557,0.048773967780172824
1733768356914785300,0.310785400390625,-0.46436873908638954,-0.4221306028157472,-0.03528407934904098
1733768356924745200,0.3207451171875,-0.5580024238124489,-0.5142003992259502,-0.19536811219081282
1733768356934705400,0.330705322265625,-0.5243626045390963,-0.42606618869900703,-0.15315627940520643
1733768356944666400,0.340666259765625,-0.5962058977395296,-0.28039281239509584,-0.01959229695945978
1733768356954626300,0.350626220703125,-0.6230027192503214,-0.23722879345118997,0.09246873259991407
1733768356964586500,0.36058642578125,-0.6248565304234623,-0.23375439533889292,0.13519845177978276
1733768356974546400,0.37054638671875,-0.7692693852722644,-0.25902853732705117,0.1053773140117526
1733768356984506400,0.38050634765625,-0.918651552966237,-0.3847223709195852,0.21863106048703193
1733768356994467600,0.390467529296875,-0.9359954864770174,-0.4971025494307279,0.38373394440412517
1733768357004427500,0.400427490234375,-0.9780977214083075,-0.4614654188603162,0.526372629187256
1733768357014387500,0.410387451171875,-1.1105500893503426,-0.4110539130061865,0.7028384725093841
1733768357024348400,0.420348388671875,-1.1358666091755032,-0.3401268578678369,0.7547799644097686
1733768357034308400,0.430308349609375,-1.1931819030687212,-0.3127402537703514,0.6329470440290867
1733768357044268300,0.440268310546875,-1.3637705249205232,-0.3346580710679293,0.4151707006752491
1733768357054228200,0.450228271484375,-1.5671704062670468,-0.3256272078722715,0.2728928120285272
1733768357064189400,0.460189453125,-1.9802327364861965,-0.2510673491895199,0.24592998630106447
1733768357074149400,0.4701494140625,-2.325526183336973,-0.1753536442965269,0.24518998158872127
1733768357084109300,0.480109375,-2.754912748630345,-0.21866846988797187,0.3790763278566301
1733768357094069500,0.490069580078125,-3.1655589576184746,-0.06159340960383415,0.6215672796197235
1733768357104030500,0.500030517578125,-3.310089009106159,-0.0021487024664878845,0.805581930886209
1733768357113990400,0.509990478515625,-3.392374493604898,0.054151861426234245,0.9442810842633247
1733768357123950600,0.51995068359375,-3.432442884621024,0.14455284784138203,1.0478612857252358
1733768357133910500,0.52991064453125,-3.366207202169299,0.14618834008872508,1.039388348673284
1733768357143871200,0.539871337890625,-3.4604069963455197,0.25766893941164015,0.9591349545240402
1733768357153831400,0.54983154296875,-3.5522941296651958,0.44322658233642576,0.8133502268001437
1733768357163791400,0.559791259765625,-3.5152737280428408,0.5144494055509568,0.6660308368548751
1733768357173751300,0.569751220703125,-3.5527830822259188,0.42141631706655025,0.4118722436517477
1733768357183712500,0.57971240234375,-4.526548911909758,0.13960019387006758,0.33855069459229703
1733768357193672400,0.58967236328125,-4.118794624970853,-0.6336100379824638,0.20368015959262847
1733768357203632400,0.59963232421875,-2.8428493907585737,-0.889076498913765,-0.24444442391842602
1733768357213592300,0.60959228515625,0.015984920117259025,-1.2559516629755496,-1.1762228772222996
1733768357223553500,0.619553466796875,1.433574128986895,-1.4810837759196758,-2.148447614943981
1733768357233513500,0.629513427734375,0.7069941308841109,-0.6980611751049757,-2.3600945156320927
1733768357243473400,0.639473388671875,1.0354162301719188,-1.0511726022303103,-2.781960622292757
1733768357253433300,0.649433349609375,1.3471148659348486,-1.4388327801674603,-2.6240207618728277
1733768357263394300,0.659394287109375,1.4092054114058612,-1.8336451679468153,-1.7930385784007608
1733768357273354200,0.669354248046875,1.6416647984981536,-1.865572922605276,-0.6720201403975486
1733768357283314400,0.679314453125,1.9807737114951014,-1.5609581076234578,0.3999653866283595
1733768357293274400,0.6892744140625,2.4755501560658213,-1.0063409423351288,1.0807155075788497
1733768357303235300,0.6992353515625,2.4560721331357955,-0.28221710521280763,1.5907020885020493
1733768357313195500,0.709195556640625,1.8268325653225181,0.34598084459304806,2.231537693823874
1733768357323155500,0.719155517578125,1.191127016365528,0.6681880148887633,3.0015564361587166
1733768357333115400,0.729115478515625,0.8869698820233345,0.6095721597909927,3.549958672454953
1733768357343076400,0.739076416015625,0.9974819285750388,0.37845512721836566,3.638125031685829
1733768357353036300,0.749036376953125,1.164931083357334,0.27117548671662806,3.0956770276188847
1733768357362996200,0.758996337890625,0.7314987498044967,-0.016608020451664925,2.079000276969373
1733768357372956400,0.768956298828125,-0.2713034970104694,-0.5861176344454289,1.0992933667987583
1733768357382917400,0.77891748046875,-0.9629691258594393,-0.9066045568197965,0.1741385694183409
1733768357392877300,0.788877197265625,-1.0585194578617811,-1.015320367604494,-0.4163650250263512
1733768357402837500,0.79883740234375,-1.042254844020307,-1.0482236892968415,-0.6934304465644061
1733768357412797400,0.80879736328125,-1.0108850155055522,-1.0283487760037182,-0.8613912041306495
1733768357422758400,0.81875830078125,-0.7990355779826641,-1.0313345138162373,-1.1505478993482887
1733768357432718600,0.828718505859375,-0.669432754252851,-1.1551309893548487,-1.464362796612829
1733768357442678500,0.838678466796875,-0.9410118533343076,-1.4597323603332042,-1.690081623403728
1733768357452638500,0.848638427734375,-1.0080649896487592,-1.697377333369851,-1.809631401283294
1733768357462599400,0.858599365234375,-1.327127139917016,-1.8317869728595018,-1.5282693054646252
1733768357472559400,0.868559326171875,-1.6946464471012352,-2.1474492515563965,-0.6660030720651149
1733768357482519300,0.878519287109375,-1.5737562143981456,-2.75026842995584,0.3532902908235788
1733768357492480500,0.88848046875,-1.0564192707121371,-3.3822681101322174,0.9903189050778746
1733768357502440400,0.8984404296875,-0.3556663723051548,-4.077680232033133,1.1274804736241697
1733768357512400400,0.908400390625,0.5739233387827873,-4.9500154395043845,0.827734433722496
1733768357522361000,0.918361083984375,0.4122527674019337,-5.2518192887187,0.6782376997381449
1733768357532322000,0.928322021484375,-4.5598277889162295,-4.021226523405313,0.6545028961464763
1733768357542282000,0.938281982421875,-12.654520141530035,-0.14047931479215622,-0.28730595278441906
1733768357552242000,0.948241943359375,-3.5994881347775456,3.9074049139142035,-3.709527887642383
1733768357562202000,0.9582021484375,2.869990787923336,7.106920501670241,-7.660792986071109
1733768357572163000,0.9681630859375,4.478968537828326,8.818668890219927,-9.813519301247597
1733768357582123000,0.978123046875,5.600981101435423,7.952318602377176,-10.393206025862693
1733768357592083200,0.988083251953125,4.957436529415846,4.089589281013608,-10.277704500460624
1733768357602043100,0.998043212890625,4.052804733973741,-0.9753098442554473,-8.912067304885387
1733768357612004000,1.008004150390625,3.1564652583196757,-3.7114579789221285,-7.034134082400798
1733768357621964300,1.01796435546875,2.5174419631168243,-4.42133351046145,-5.328325020772218
1733768357631924200,1.02792431640625,2.5307357444539664,-3.8039369406551122,-4.028194024330378
1733768357641884200,1.03788427734375,3.1972756998747585,-2.2367045750677583,-3.189641259473562
1733768357651845000,1.04784521484375,3.6535064329519864,-0.4943360073268413,-2.1877654798537494
1733768357661805000,1.05780517578125,3.3141441297158596,1.2780255476176738,-1.0069736142154782
1733768357671765000,1.067764892578125,3.1426588512852787,3.1157208677381276,0.50369369132407
1733768357681725000,1.077724853515625,2.1373200717300174,4.826958384156227,2.4280112830385563
1733768357691686100,1.08768603515625,2.048354378814995,6.930559726157784,5.2602293896675105
1733768357701646000,1.09764599609375,2.5893080526709555,7.620176898044347,8.290925118809938
1733768357711606000,1.10760595703125,2.3389643415808674,6.516723488956689,10.872359661626815
1733768357721566200,1.117566162109375,1.087527525681257,4.993733000677824,12.534820579916238
1733768357731527200,1.127527099609375,-1.239180853177607,3.1309599379241466,12.170052032744884
1733768357741487000,1.137487060546875,-0.4780217091247439,0.13512275619506836,10.869258188480138
1733768357751447300,1.147447265625,-0.05707140213474631,-2.0534113699436185,8.510663848277925
1733768357761408000,1.157407958984375,-0.7115963639825582,-3.0391368097513913,5.809742509815097
1733768357771368000,1.167367919921875,-0.9676688279829919,-2.7311539796411988,3.3783149885922668
1733768357781328100,1.177328125,-0.4175818534702062,-1.9167068975150583,1.8505518790841102
1733768357791288000,1.1872880859375,0.46016734187379477,-1.0614636946201323,0.6539933391891419
1733768357801249000,1.1972490234375,1.370074301239848,0.09630407297909259,-0.9161270029246806
1733768357811209200,1.207209228515625,2.0366579496718944,0.8885779017418622,-2.2258542413599787
1733768357821169200,1.217169189453125,2.1609651512116193,0.9335837491601705,-2.9758415646657346
1733768357831129000,1.227129150390625,1.4976130320467054,0.26630875746309757,-3.390824926075339
1733768357841090300,1.23709033203125,0.8681203662551938,-0.36817280265688895,-3.9217748000502586
1733768357851050200,1.24705029296875,0.17205284918546676,-0.02802665556669235,-4.625015131358802
1733768357861010200,1.25701025390625,-0.29184651882350443,-0.6959457903861999,-4.180791646939515
1733768357870970000,1.26697021484375,-0.7012748764544725,-1.4642226574897765,-3.1786104546323415
1733768357880931000,1.27693115234375,-1.0022305113416166,-1.4096470176935194,-2.399691051352769
1733768357890891000,1.28689111328125,-1.3803046033531428,-0.6665957772612572,-1.5145131673127412
1733768357900851000,1.296850830078125,-1.5267910496056079,-0.12585808424353598,-0.5411464199490845
1733768357910811100,1.30681103515625,-1.3636580044567583,0.08978139321208,0.04049553038701415
1733768357920772000,1.316772216796875,-0.9957201795995235,0.22886370068788528,0.34627632040828465
1733768357930732000,1.32673193359375,-0.6149755532044917,0.2947539307028055,0.5379666208691894
1733768357940692200,1.336692138671875,-0.23723054701685903,0.3412397875458002,0.7774132365003228
1733768357950652200,1.346652099609375,-0.015452420675754546,0.328007965528965,1.082216559791565
1733768357960613000,1.356613037109375,-0.09548636338803916,0.27090952925682066,1.4769598278574645
1733768357970573300,1.3665732421875,-0.36579730569720265,0.10102525628209114,1.919591951432079
1733768357980533200,1.376533203125,-0.5909370174258947,0.048967736786603926,2.428968291502446
1733768357990494000,1.386493896484375,-0.7544599386751651,0.22169278614521026,2.9405566085338593
1733768358000454100,1.3964541015625,-0.8923848928093909,0.4779372457116842,3.428473396468162
1733768358010414000,1.4064140625,-1.0238578943252563,0.6308031638681888,3.688571316592395
1733768358020374000,1.4163740234375,-1.1146738912820815,0.8029284937679767,3.7972839125066993
1733768358030335200,1.426335205078125,-1.0859154143095016,1.3556798651844262,3.9683214471697803
1733768358040295200,1.436295166015625,-0.8929904574871063,2.480897362312674,4.143573676918447
1733768358050255000,1.446255126953125,-0.41964576373007145,3.9965094307780262,4.243810120910406
1733768358060215000,1.456215087890625,0.32091537691950794,4.795409399682283,4.123142006525397
1733768358070176000,1.466176025390625,1.3650900830864905,3.2711487453371286,3.615626784151792
1733768358080136000,1.476135986328125,2.5519839919269085,1.2082687053024768,2.2308571642138064
1733768358090095900,1.486095947265625,3.8315719665557144,0.5417927550286055,0.2306448850162327
1733768358100056000,1.49605615234375,4.977642866620421,0.8098457258105277,-1.6992933961242436
1733768358110017000,1.50601708984375,5.534183693447709,0.7461386850535869,-3.4250171185344453
1733768358119977000,1.51597705078125,5.192223774933814,0.15589607963263988,-4.100808594164252
1733768358129937200,1.525937255859375,3.803308579623699,1.6032576186925172,-6.008892040240764
1733768358139898000,1.535898193359375,1.5414391681611537,1.1592302413672209,-6.871093391710519
1733768358149858000,1.545858154296875,-0.5916928407618776,-0.273629894131422,-7.057169505551457
1733768358159818200,1.555818359375,-1.8084686411142348,-1.0914864924401044,-7.001805345726013
1733768358169778200,1.565778076171875,-2.3768834456086156,-1.675593956106901,-6.32444033716917
1733768358179739000,1.57573876953125,-2.7208079421937463,-2.0954373247683047,-5.052438872146606
1733768358189699000,1.585698974609375,-2.9710803416132925,-1.7448171299368143,-3.9300855322778223
1733768358199659000,1.595658935546875,-2.9872821193516255,-0.969087024217844,-3.0019442664325235
1733768358209619000,1.605618896484375,-2.8527883087098598,-0.3133668612360954,-2.19025831958279
1733768358219580200,1.615580078125,-2.6839681578353045,0.28198212741315365,-1.27682990809232
1733768358229540000,1.6255400390625,-2.503285427470505,0.7784165683239698,-0.2697270414739847
1733768358239500000,1.6355,-2.466785250329971,1.124313241764903,0.5183163101121783
1733768358249460200,1.645460205078125,-2.6730469508484003,1.3062246371418238,1.1047896261274814
1733768358259421200,1.655421142578125,-2.873857984745502,1.4304729481011629,1.7405492433592675
1733768358269381000,1.665381103515625,-2.9748610291957855,1.2954922307252883,2.3483408033438025
1733768358279341300,1.67534130859375,-3.071615768551826,0.82955463488698,2.7632886550486084
1733768358289302000,1.685302001953125,-3.0843314577400682,0.2994762830495834,2.88725347289145
1733768358299262000,1.695261962890625,-3.0213889716148374,0.0091062665194273,2.742928004065156
1733768358309222100,1.70522216796875,-3.0038147364795207,-0.025090602114796638,2.4167883166261017
1733768358319182000,1.71518212890625,-3.02412570310235,0.015221534529328345,2.0538535607531667
1733768358329143000,1.72514306640625,-3.0743115835070607,-0.0021428572475910186,1.6962316704660654
1733768358339103200,1.735103271484375,-3.09618906879425,0.04304477647840976,1.21557829766348
1733768358349063200,1.745063232421875,-2.9345044688880444,0.07618833666741848,0.7079058389015496
1733768358359023000,1.755023193359375,-2.5625954023122786,0.009920505511760712,0.29314751841947434
1733768358368984300,1.764984375,-2.0970541123151776,-0.013564414972066879,-0.011712357364594935
1733768358378944300,1.7749443359375,-1.580057360368967,-0.03253799551129341,-0.22103841388970613
1733768358388904200,1.784904296875,-1.032735612785816,-0.023378537499904633,-0.15632804130911826
1733768358398865200,1.794865234375,-0.5152222896195948,-0.11714520095586776,-0.110764560008049
1733768358408825000,1.8048251953125,-0.06920965676121413,-0.3661971186697483,-0.12757701699063181
1733768358418785000,1.814784912109375,0.3475228864032775,-0.6419523343920708,-0.08140183353200554
1733768358428745000,1.824744873046875,0.7374947753489017,-0.7481926949739456,-0.04677534130886197
1733768358438706200,1.8347060546875,1.0246049133002757,-0.5760153426259755,-0.19074205982536077
1733768358448666000,1.844666015625,1.2452841384887694,-0.32455519472658634,-0.35239684911519287
1733768358458626000,1.8546259765625,1.4684323841392992,-0.0343424145847559,-0.4627604271069169
1733768358468586200,1.864586181640625,1.6080886921107769,0.17226386158764362,-0.5754543477423488
1733768358478547200,1.874547119140625,1.6205553749740123,0.4242226066589355,-0.6661370737083255
1733768358488507100,1.884507080078125,1.5692939742922782,0.5055465526491403,-0.7148002745904029
1733768358498467300,1.89446728515625,1.422898713454604,0.29857553481757637,-0.7667047954812646
1733768358508428000,1.904427978515625,1.1574421889066695,0.07884381961226462,-0.704369919860363
1733768358518388000,1.914387939453125,0.9858733238458632,-0.15620996788740157,-0.6154840141832828
1733768358528347600,1.92434765625,0.886448488497734,-0.425577528399229,-0.7042898403614759
1733768358538307600,1.9343076171875,0.7147638150375336,-0.6060229428768158,-0.7611458461798727
1733768358548268800,1.944268798828125,0.686292411378026,-0.8040577900588511,-0.7369274968549608
1733768358558228700,1.954228759765625,0.6922866833567619,-0.9952993238389491,-0.7161039045348763
1733768358568188700,1.964188720703125,0.6491946336705238,-1.1649918736338614,-0.6553126781594008
1733768358578148900,1.97414892578125,0.5991659165889024,-1.3109557573169468,-0.5414399960681796
1733768358588109800,1.98410986328125,0.6136814217407256,-1.3154209200322626,-0.39641178580000996
1733768358598069800,1.99406982421875,0.7317718676574527,-1.20910223351717,-0.2734576063044369
1733768358608030000,2.004030029296875,0.8378793956398963,-1.0068097288906575,-0.14189327324330805
1733768358617990700,2.01399072265625,0.8488840431265533,-0.857354495960474,-0.001288724636286497
1733768358627950600,2.02395068359375,0.9098907388836145,-0.8007815448671579,0.24172815069705247
1733768358637910800,2.033910888671875,0.9557798719424754,-0.7331453479677438,0.31907362151034174
1733768358647870700,2.04387060546875,0.9756693252176046,-0.6833744781047105,0.4633431954309344
1733768358657831700,2.053831787109375,1.0193267537016422,-0.7945195618629455,0.4457254864800721
1733768358667792000,2.0637919921875,0.9740648126304149,-0.712540366834402,0.5166799410820007
1733768358677751800,2.073751708984375,0.7060474976837635,-0.5320505286931991,0.9160226657673716
1733768358687711700,2.083711669921875,-0.1313473293095827,-0.30214754808545113,1.648999086908996
1733768358697673000,2.0936728515625,-0.6483154396831989,-0.047393034815788264,2.087624312929809
1733768358707633000,2.1036328125,-0.3471626747887581,0.07988251501023769,1.9716051933944223
1733768358717592800,2.1135927734375,-0.19674414978437124,0.21456921787559985,1.6250754827469587
1733768358727553800,2.1235537109375,-0.3478016302794218,0.21640753921866415,1.1089131357982753
1733768358737513700,2.133513671875,-0.23615393076129257,-0.1947474960744381,0.4274880016630515
1733768358747473700,2.1434736328125,-0.09316701706238091,-0.9479963053941726,-0.16784549715612082
1733768358757433600,2.15343359375,0.0018413170177489517,-1.8207412627100943,-0.4814367417326197
1733768358767394800,2.163394775390625,0.06174538529515266,-2.680034033256769,-0.6499754818499088
1733768358777354800,2.173354736328125,0.13420264567546544,-3.3247114086985587,-0.812116885612905
1733768358787314700,2.183314697265625,0.18683781892843543,-3.6438451628983017,-1.0454542245835066
1733768358797276000,2.19327587890625,0.10028532463498413,-3.736172148939967,-1.1614897107318043
1733768358807235800,2.20323583984375,-0.0034580314993858333,-3.5693548623204228,-1.1320949816823005
1733768358817195800,2.21319580078125,-0.2497889998167753,-2.962720509546995,-1.201143967989087
1733768358827155700,2.22315576171875,-0.6502385167002678,-1.3783283348441122,-1.3577213078841566
1733768358837116700,2.23311669921875,-1.274203943502903,1.4487357500225304,-0.8955325431853532
1733768358847076600,2.24307666015625,-3.6454502600073813,5.280089105391502,0.14900456655323505
1733768358857036800,2.253036865234375,-4.87913631516099,9.46734614895284,-1.917360100726783
1733768358866996700,2.262996826171875,-3.3836750543206926,9.81804350067377,-4.352107414022088
1733768358876957700,2.272957763671875,-3.083064214283228,8.222595094427465,-4.636112279434502
1733768358886918000,2.28291796875,-2.6567700620472428,4.942249481678009,-4.397842160236835
1733768358896877800,2.2928779296875,-1.9021569786369799,-0.2925993830174208,-3.683455288752913
1733768358906838500,2.302838623046875,-1.1179857923090457,-3.17698168438673,-4.271470573513209
1733768358916798700,2.312798828125,-0.28576223047375676,-4.113316193559766,-5.636823983711004
1733768358926758700,2.322758544921875,1.3671534453570842,-3.837755623626709,-6.1672021952778096
1733768358936718600,2.332718505859375,3.7511265569657084,-2.4349533572614193,-5.488522596991062
1733768358946679800,2.3426796875,4.778232639431953,-0.8828127623438835,-4.42841002471894
1733768358956639700,2.3526396484375,5.005977565222978,0.6575409486681223,-3.6008538701727986
1733768358966599700,2.362599609375,5.183349563604593,1.3225520870864391,-2.6666300695434213
1733768358976561000,2.372560791015625,6.041376259738207,0.910590996107459,-1.6978762228026985
1733768358986520800,2.382520751953125,6.231476806789637,0.26885785742402074,-0.8390130758449434
1733768358996480800,2.392480712890625,5.506818132138252,-0.11792612220048904,-0.12039309683591126
1733768359006440700,2.402440673828125,4.655104856935143,0.2987619973003864,0.3402387938097119
1733768359016401700,2.412401611328125,3.7947827433407304,1.0850433076500892,0.8103036987110972
1733768359026361600,2.422361572265625,3.0388007096648213,1.4261550849020481,1.2631526803955435
1733768359036321500,2.432321533203125,2.2973715174764395,1.4806307714551685,1.7238628969743848
1733768359046281700,2.44228173828125,1.5808125626504421,1.5732009186029434,2.2172779900640247
1733768359056242700,2.45224267578125,0.6900491335630417,1.1408610564619301,2.74367589982301
1733768359066202600,2.46220263671875,-0.24342768462393433,0.19982523773014543,3.063110098274052
1733768359076162800,2.472162841796875,-0.8942015868425369,-0.8543295951813459,3.4050597876548765
1733768359086123800,2.482123779296875,-1.7644868760466574,-1.829673341706395,3.7420138607054945
1733768359096083700,2.492083740234375,-2.3492647863209246,-2.0008499925792216,4.073830863128602
1733768359106044000,2.5020439453125,-3.0063457162618636,-1.4101725028723477,4.16628293685466
1733768359116003800,2.51200390625,-3.6302737336635587,-0.47867958851158615,3.9289252563267945
1733768359125964500,2.521964599609375,-3.814526723730564,0.3571627483427524,3.5225539481788872
1733768359135924700,2.5319248046875,-3.88308208130151,0.7296756260305642,2.9517461110681293
1733768359145884700,2.541884765625,-3.8724575191736217,0.7516764454364776,2.2475474561214446
1733768359155845600,2.551845703125,-3.813728266829252,0.47554245952963825,1.639758088093996
1733768359165805800,2.561805908203125,-3.9075188956826925,0.05615735602974891,1.1460909199394285
1733768359175765800,2.571765869140625,-4.068762181562185,-0.27188158915936944,0.5693705708492547
1733768359185725700,2.5817255859375,-4.037539360302686,-0.41538814281821246,0.21403730295598505
1733768359195687000,2.59168701171875,-3.8480794492423533,-0.6595692396253346,0.015250833689048886
1733768359205646800,2.601646728515625,-3.5851404604732986,-0.7697983775824307,-0.05474887747131288
1733768359215606800,2.611606689453125,-3.1637200517535207,-0.4530588250428438,0.00661802990026772
1733768359225567700,2.621567626953125,-2.604333772367239,0.021060323685407636,0.2748714551577344
1733768359235527700,2.631527587890625,-2.031370218527317,0.32746845182478423,0.5236614705324173
1733768359245487600,2.641487548828125,-1.4059538622640073,0.5195820922642946,0.5903702503886074
1733768359255447600,2.651447509765625,-0.8592495159268378,0.5787725323796272,0.6507312686532736
1733768359265408800,2.66140869140625,-0.5601332983613014,0.6129302380472421,0.512550293931365
1733768359275368700,2.67136865234375,-0.22964959036856888,0.21551848142445088,0.6389798213873058
1733768359285328600,2.68132861328125,0.15009353083372115,-0.17895020748376844,0.7556234294965862
1733768359295289900,2.691289794921875,0.19743965776786207,-0.3567547520637512,1.011256771427393
1733768359305249800,2.701249755859375,0.25244769763201474,-0.3928618382334709,1.2506553101330995
1733768359315209700,2.711209716796875,0.17198972082138062,-0.27060323978662487,1.2938020856812595
1733768359325170000,2.721169921875,0.5327241901710629,-0.11410568712949752,1.585801749239862
1733768359335130600,2.731130615234375,0.5574794228516519,-0.018865443989634512,2.1132193574354052
1733768359345090600,2.741090576171875,0.4538283481106162,0.3623755145549774,2.5570298771396276
1733768359355050800,2.75105078125,0.0010147300004959105,2.2200316726863383,2.8555189027175305
1733768359365010700,2.7610107421875,-0.52194063808918,5.345118334662914,3.0991178157225248
1733768359374971600,2.7709716796875,-0.5700225319519638,7.865230686032771,3.253812410610914
1733768359384931800,2.780931884765625,-0.3587970715463161,8.02646403504014,2.8691876548469066
1733768359394891800,2.790891845703125,0.24701661249399184,4.952538235980272,1.708313737925887
1733768359404852700,2.800852783203125,0.4518623087346553,0.8822545439392327,-0.07468465410619973
1733768359414813000,2.81081298828125,0.42954277876839037,-2.1922195366531607,-1.4070359584122896
1733768359424772900,2.82077294921875,0.9226327315568923,-2.6379344286739825,-3.291519333192706
1733768359434732800,2.83073291015625,1.5738183198489248,-1.8076584937751292,-5.112587343639135
1733768359444693800,2.84069384765625,0.9721860131464898,-0.495422048997879,-6.039557227617502
1733768359454653700,2.85065380859375,-0.7811044922336936,-0.271309926751256,-6.084641985490918
1733768359464613600,2.860613525390625,-2.290911673812568,-0.36094928114414215,-6.189255037131905
1733768359474574800,2.870574951171875,-2.372153202216327,0.10014438179433345,-6.059004270887375
1733768359484534800,2.88053466796875,-2.2634484973475337,-0.4694260224759578,-5.051371535176038
1733768359494494700,2.89049462890625,-2.6207927397370336,-1.3094406765788793,-3.5499987122043963
1733768359504455700,2.90045556640625,-2.865363712644577,-1.1582418148517608,-2.2415087604790926
1733768359514415600,2.91041552734375,-2.579717217504978,-0.39770694017708297,-1.280207275570929
1733768359524375600,2.92037548828125,-1.9259036187969147,0.49649055501222605,-0.6794509479854256
1733768359534335500,2.93033544921875,-1.2755356304980814,1.1555138511925935,-0.29360790247283874
1733768359544296400,2.94029638671875,-0.44638665380254383,1.5708388656467198,0.36240422919280824
1733768359554256600,2.950256591796875,0.2509025140166283,1.4804969159424304,0.9243892198354006
1733768359564216600,2.960216552734375,0.3775988026499748,0.9932675257503986,1.3889102268740534
1733768359574177500,2.970177490234375,-0.023177461969852445,0.39604865157604213,1.8773101221501827
1733768359584137700,2.9801376953125,-0.5039350257992744,-0.03480126426815987,2.3279332444787024
1733768359594097700,2.99009765625,-0.7968681708157062,-0.43872459474205966,2.6738191042646764
1733768359604057600,3.0000576171875,-1.1567969498056918,-0.7303367202877998,2.855823730883002
1733768359614018600,3.0100185546875,-1.1774351756215096,-0.5519394705116748,2.888145745556056
1733768359623978500,3.019978515625,-1.116444992607832,-0.29541853209137914,2.727935017594695
1733768359633938400,3.0299384765625,-1.0988940652828663,0.059931029349565505,2.349024401693791
1733768359643899600,3.039899658203125,-1.0135130259215832,0.5172521880120039,1.8711022074207662
1733768359653859600,3.049859619140625,-1.005609120929241,0.7322691496551036,1.2799728822931646
1733768359663819500,3.059819580078125,-0.9237737182855605,0.6918465383738279,0.4458240514837205
1733768359673779700,3.06977978515625,-0.7089712031107396,0.6533446660220623,-0.44034861574731765
1733768359683740700,3.07974072265625,-0.3693851010560989,0.5692401494026184,-1.2214241741474716
1733768359693700600,3.08970068359375,0.008379714943701402,0.6253080735832452,-1.9591522467955946
1733768359703660800,3.099660888671875,0.3462222521334886,0.843583160239458,-2.788581209476292
1733768359713621500,3.10962158203125,0.5276362559149042,1.1349667377263306,-3.5631714975103734
1733768359723581400,3.11958154296875,0.6210299578726292,1.4854408020853995,-4.055180230933428
1733768359733541600,3.129541748046875,0.7789379618495702,1.5232821647018193,-4.2235722195237875
1733768359743501600,3.13950146484375,0.994161844241619,1.2037339844822883,-4.053377273164689
1733768359753462500,3.149462646484375,1.2053893504738806,0.38702889429628845,-3.609894085718691
1733768359763422700,3.159422607421875,1.4397931496322154,-0.4872574472427368,-3.066292819963395
1733768359773382700,3.169382568359375,1.6308032127439975,-0.9796522573739289,-2.5391952375024553
1733768359783343600,3.179343505859375,1.8526620031058787,-1.3156149812996387,-2.0071093452349302
1733768359793303800,3.1893037109375,2.036501151674986,-1.7071756738066672,-1.7332742839202284
1733768359803263700,3.199263671875,2.139400823526829,-1.6460662483274935,-1.5855296543002129
1733768359813224400,3.209224365234375,2.2825240769565105,-1.4598773217618464,-1.46269617857486
1733768359823184600,3.2191845703125,2.3273124822318554,-1.331250357326865,-1.3939005825072526
1733768359833144600,3.22914453125,2.235754142475128,-1.3742115471750498,-1.1393117081280797
1733768359843104500,3.2391044921875,2.159091758555174,-1.427033621302247,-0.7194532149627805
1733768359853065700,3.249065673828125,2.076550253468752,-1.4177040674209593,-0.35014260391499846
1733768359863025700,3.259025634765625,1.9469244872547684,-1.380559454897046,0.03331961087565869
1733768359872985600,3.268985595703125,1.9258511579573154,-1.4440934771746397,0.4030942592386156
1733768359882946800,3.27894677734375,1.8670172761946915,-1.438372761440277,0.7033350238546728
1733768359892906800,3.28890673828125,1.6775082652956246,-1.26201198592782,1.0412342688009142
1733768359902866700,3.29886669921875,1.4255273083925246,-1.0411293471217156,1.195395414399728
1733768359912826600,3.30882666015625,0.329678456024453,-0.7818845366954803,1.8297735872104763
1733768359922787600,3.31878759765625,-1.6596505370438097,-0.33977088403701783,2.7691587161257862
1733768359932747500,3.32874755859375,-2.2790368193626405,0.04001461500227451,2.578301797749102
1733768359942707500,3.33870751953125,-1.7115245166659354,-0.12531798601746558,1.5129142076835036
1733768359952668700,3.348668701171875,-1.877563220128417,-0.01986205381155014,0.467665150283277
1733768359962628600,3.358628662109375,-2.3372750733196734,-0.027329320952296256,-0.36541269029378887
1733768359972588500,3.368588623046875,-2.235767001956701,-0.3408580947518349,-0.934537688884139
1733768359982548700,3.378548828125,-1.7179776383280754,-0.664859747248888,-1.2022080900892615
1733768359992509700,3.388509765625,-1.2763175746560096,-0.8036977245748043,-1.3301567168712616
1733768360002469600,3.3984697265625,-1.0277215840160847,-0.9475625901520252,-1.2581713848516345
1733768360012429800,3.408429931640625,-0.7597060226351022,-1.152002628201246,-1.1173147611796854
1733768360022390500,3.418390625,-0.5085100786298513,-1.290054423585534,-1.0218968233853578
1733768360032350500,3.4283505859375,-0.36460773058645424,-1.2717080350339411,-0.9432549560859799
1733768360042310700,3.438310546875,-0.24862346316874026,-1.1517933693647384,-0.9528834929138421
1733768360052271600,3.448271728515625,-0.12683065560273826,-1.186999707302451,-0.7107143204510211
1733768360062231600,3.4582314453125,-0.42686639916598795,-1.008938557612896,-0.19198738371133803
1733768360072191700,3.468191650390625,-1.504571034491062,-0.712999216517806,0.35241087764054535
1733768360082151700,3.478151611328125,-2.118281609261036,-0.6531985355496406,0.623318653331697
1733768360092112600,3.488112548828125,-2.2227684041738507,-0.8907061459422111,0.6843766408845782
1733768360102072800,3.49807275390625,-2.3022084361135957,-1.2390695017576216,0.48706543180197476
1733768360112032800,3.50803271484375,-2.2914707690000533,-1.5667548112034797,0.18304858271330593
1733768360121993500,3.517993408203125,-2.0798031177848575,-2.0167472344130277,-0.23669395592212675
1733768360131953700,3.52795361328125,-2.09908357231617,-2.3302765927344558,-0.5045376678675413
1733768360141913600,3.53791357421875,-2.7918331970095633,-1.888418960663676,-0.48849751043170686
1733768360151873500,3.54787353515625,-3.4279315446764227,-0.5415373189628124,-0.19578151529729365
1733768360161834800,3.557834716796875,-4.323870915096998,1.3589058414936064,0.4603752855360508
1733768360171794700,3.567794677734375,-2.466235215231776,2.790132238310575,0.09573854805082083
1733768360181754600,3.577754638671875,0.22116971211917696,4.653274718898534,-2.1261112799733874
1733768360191715800,3.5877158203125,1.7751134840011595,6.428505107277632,-3.5874554594174026
1733768360201675800,3.59767578125,2.292573177284002,6.78819240566194,-3.8098224915623664
1733768360211635700,3.6076357421875,2.266388934713602,5.109116452658176,-3.157766404046118
1733768360221596700,3.6175966796875,1.9848545510679483,0.9577677578240632,-2.544811616079509
1733768360231556600,3.627556640625,2.153587315919995,-2.2221745299339295,-2.9625165114074945
1733768360241516500,3.6375166015625,2.1820693140387535,-3.0579239278078076,-3.6389544682472943
1733768360251476500,3.6474765625,1.447119546997547,-4.582835739538074,-3.9530905602902173
1733768360261437700,3.657437744140625,1.2207489052344114,-5.339015341612696,-4.214333266535401
1733768360271397600,3.667397705078125,2.1435843928217886,-3.4963118379414078,-4.040259432916343
1733768360281357600,3.677357666015625,2.4494518382132053,-1.3823802405834198,-3.263343916805088
1733768360291318500,3.687318603515625,2.6651731487333774,-0.03166588885188103,-2.2637489415988323
1733768360301278500,3.697278564453125,3.056040013757348,1.128058273512125,-1.3911349171862006
1733768360311238400,3.70723828125,3.483956214237213,1.9573563032895325,-0.51900659393128
1733768360321199600,3.71719970703125,4.025491779634356,2.5856524527728557,0.4217684915050864
1733768360331159600,3.72715966796875,4.597603685081005,3.071222969841957,1.6868617845743894
1733768360341119500,3.737119384765625,5.210846642339229,3.009489274984598,2.7112904645249247
1733768360351079700,3.74707958984375,4.742222583895922,2.533073539751768,2.5695117575719952
1733768360361040600,3.75704052734375,4.045828465220332,1.3895885645270347,2.3155673916414377
1733768360371000600,3.76700048828125,3.215812642562389,-0.22754385026097296,2.3541423292294144
1733768360380960800,3.776960693359375,1.9062462937772273,-1.2460872715651987,2.5425918942034245
1733768360390921500,3.78692138671875,0.4588531905353069,-1.3697896390795707,2.810080509100854
1733768360400881400,3.79688134765625,-0.6184054545879364,-1.2518787144482135,2.7933056076496836
1733768360410841600,3.806841552734375,-1.2339280472159384,-0.9972586412131785,2.525337684802711
1733768360420802600,3.816802490234375,-1.6486369755983352,-0.661164984384179,2.0874019023507833
1733768360430762500,3.826762451171875,-2.045342629778385,-0.13124620702266693,1.693020599465072
1733768360440722700,3.83672265625,-2.532503046387434,0.3833154267311096,1.3946826727956532
1733768360450682600,3.8466826171875,-3.040071460253,0.8592834181964397,1.2596563627123831
1733768360460643600,3.8566435546875,-3.4610207443296908,1.2576993834257124,1.384901283493638
1733768360470603800,3.866603759765625,-3.7023008589982984,1.3700281240105627,1.384242819584906
1733768360480563700,3.876563720703125,-3.689446053600311,1.2476724949300289,1.472797009089589
1733768360490524400,3.8865244140625,-3.3933483070731163,0.8122761678278446,1.7418021660298109
1733768360500484600,3.896484619140625,-3.0011177524805066,-0.035866847673058505,1.806118278595805
1733768360510444500,3.906444580078125,-2.707781287360191,-0.9603162732630968,1.5064739455029368
1733768360520405500,3.916405517578125,-2.4848247648894786,-1.2757044111937283,1.2035399232149124
1733768360530365700,3.92636572265625,-2.320346296481043,-1.2924597311615944,0.6325947234600782
1733768360540325600,3.93632568359375,-1.9735140957556663,-1.4587795896530151,0.12313505248781292
1733768360550285600,3.94628564453125,-1.3777062574230134,-1.1890765135765076,-0.2597723779642954
1733768360560246800,3.956246826171875,-0.9542506896138191,-0.7432470552653074,-0.30861119114160535
1733768360570206700,3.966206787109375,-0.5523730396233498,0.1582522873699665,-0.9208090232610702
1733768360580166700,3.976166748046875,-0.04623465856090188,0.7388257316917181,-1.421061853416264
1733768360590127600,3.986127685546875,0.2147194400012493,0.8561053726822138,-1.515856690876186
1733768360600087600,3.996087646484375,0.14103592576161025,0.7776865004837512,-1.636464599506557
1733768360610047500,4.006047607421875,-0.32454642689824104,0.5352244825541973,-1.507715469996631
1733768360620008700,4.0160087890625,-0.587553220206499,0.39566403617262835,-1.373711196437478
1733768360629968600,4.02596875,-0.46551440199017524,0.7987561765193939,-1.35280051035583
1733768360639928600,4.035928466796875,-0.9140496121287346,0.9170183988064528,-0.9990826417699455
1733768360649888800,4.045888671875,-1.4198314348384737,0.9835118554115295,-0.4665645320976153
1733768360659849700,4.055849609375,-1.931629449097812,1.0238964727699755,0.1438411559080705
1733768360669809700,4.0658095703125,-2.4499676787808538,0.9434855499714613,0.6202201027944684
1733768360679769900,4.075769775390625,-2.908693151283264,0.6867454158425331,0.9684282680481672
1733768360689730600,4.08573046875,-3.3021745827198026,0.301508081138134,1.408342657096684
1733768360699690500,4.0956904296875,-3.6449443563118575,0.3650818509042263,1.8245619900420307
1733768360709650700,4.105650634765625,-3.928010479569435,1.441865864253044,2.080134833957255
1733768360719610600,4.115610595703125,-4.146764289653301,3.00133577914536,2.430421851311624
1733768360729571600,4.125571533203125,-4.127923395583033,4.725633852666616,2.9742560490399597
1733768360739531800,4.13553173828125,-3.763762458916008,6.403325657835603,3.7259526604816315
1733768360749491700,4.14549169921875,-3.3807822554886338,7.746466359442472,4.480598477117717
1733768360759452700,4.15545263671875,-2.9923557693541047,7.21748106353879,4.870707217250764
1733768360769412900,4.165412841796875,-2.441278176368773,3.7799481623023747,4.488887289774418
1733768360779372800,4.175372802734375,-1.6371756703853606,-0.005776245313882827,3.140908500486612
1733768360789333500,4.18533349609375,-0.7753028202176093,-2.6714631887882945,1.4969541297465563
1733768360799293700,4.195293701171875,0.20215017354637382,-3.9094098239958286,0.17811456037722526
1733768360809253600,4.205253662109375,1.789253068512678,-3.620819676619768,-0.9318149859219789
1733768360819214600,4.215214599609375,2.8630092584729194,-2.148929260981083,-2.1112492264062164
1733768360829174800,4.2251748046875,3.210249163216352,-0.7168798573434353,-2.9160628032684324
1733768360839134700,4.235134765625,3.3883120664715767,0.11904255900979041,-3.373140800824761
1733768360849094700,4.2450947265625,2.4270319166123864,0.48895899046361446,-3.7784564624398946
1733768360859055900,4.255055908203125,0.9673008714534341,0.35036066711246966,-3.9844843542024493
1733768360869015800,4.265015869140625,-0.2665980957984924,0.1521995632022619,-4.153639143858849
1733768360878975700,4.274975830078125,-1.093276736857742,0.12022680035829543,-4.311375006139278
1733768360888936700,4.284936767578125,-1.8308008844316004,0.5190899248331785,-4.57870024716854
1733768360898896600,4.294896728515625,-2.323036120086908,0.7809229981869459,-4.524608883757889
1733768360908856600,4.304856689453125,-2.1248270853817464,0.5889671786576509,-3.7394405030861493
1733768360918817800,4.31481787109375,-1.4876362663030624,0.052147535866498944,-2.6783324900358916
1733768360928777700,4.32477783203125,-0.5940110180437564,-0.5398503887891769,-1.8111197401449084
1733768360938737700,4.334737548828125,0.07933366722213103,-0.7568833664298057,-1.2704331927925347
1733768360948697600,4.344697509765625,0.574354715937376,-0.8249047632545232,-0.8132145446565002
1733768360958658800,4.354658935546875,1.009762733477354,-0.7921043174147605,-0.4458852801516652
1733768360968618800,4.36461865234375,1.4057196151167153,-0.7140706451416016,-0.1812288930054754
1733768360978578700,4.37457861328125,1.779592090719938,-0.5772177041530608,-0.018452844600751996
1733768360988539600,4.38453955078125,2.211637353828549,-0.3918424320578575,0.04761771041713655
1733768360998499600,4.39449951171875,2.6542677238374948,-0.05092354702949524,0.11529540837071835
1733768361008459500,4.40445947265625,2.935131660875678,0.34092648381292817,0.25373444950692353
1733768361018420700,4.414420654296875,3.1276702487289905,0.7382517311960458,0.32570290345698594
1733768361028380700,4.424380615234375,3.170020028680563,0.9681272392749786,0.22092910829633472
1733768361038340600,4.434340576171875,3.134546564239263,1.0596727195501328,0.24545835020132362
1733768361048300800,4.44430078125,2.9637492680728434,1.0390373432785271,0.3064673840459436
1733768361058261800,4.45426171875,2.845145100480318,0.8116764483690261,0.2803982922878116
1733768361068221700,4.4642216796875,2.6683587930321693,0.4382423641830682,0.437538380632177
1733768361078181600,4.474181640625,2.349887740524858,-0.0034311434924602507,0.5374426700603216
1733768361088142600,4.484142578125,2.228422484412789,0.034922844821214674,0.6498658839955925
1733768361098102500,4.4941025390625,2.1488778230547902,0.0893067614376545,0.6490423657182604
1733768361108062700,4.504062744140625,1.9041379233211277,0.11920564061701297,0.6221899415627121
1733768361118023700,4.514023681640625,1.682106699001789,0.15400047514438628,0.5641016174703836
1733768361127983600,4.523983642578125,1.563892992031574,0.04587327790260315,0.4674348486587405
1733768361137943800,4.53394384765625,1.4614806653052568,-0.21867782223820684,0.41444618579298254
1733768361147904500,4.543904541015625,1.3182114275336265,-0.6412783806532621,0.40994449045956133
1733768361157864400,4.553864501953125,1.3341396490275859,-0.8659095583379268,0.21192951702177523
1733768361167824600,4.56382470703125,0.9015759150028229,-0.6854056916713714,-0.20330343523472547
1733768361177784600,4.57378466796875,0.22497304992489514,-0.551601616859436,-0.5592319656074046
1733768361187745500,4.58374560546875,-0.37399230259060856,-0.5693015242010354,-0.9746177703380584
1733768361197705700,4.593705810546875,-1.3609013992249965,-0.5752706617385148,-1.324146955062449
1733768361207665700,4.603665771484375,-2.7429659979879855,-0.47228667260408397,-1.3482935543254018
1733768361217626600,4.613626708984375,-3.173389212852716,-0.4662713578373193,-1.2996733158022165
1733768361227586800,4.6235869140625,-2.4378765512317417,-0.7666203320682048,-1.1989940964788197
1733768361237546800,4.633546630859375,-1.4030489346027373,-0.9931003524899482,-0.9716056559752673
1733768361247507500,4.643507568359375,-0.4239543111115694,-1.0987398245692253,-0.7387202254906297
1733768361257467600,4.653467529296875,0.3949572761427611,-1.2396809116542338,-0.735328464160487
1733768361267427600,4.663427490234375,1.1385394085813314,-1.4543886612176895,-0.946820539613068
1733768361277388500,4.673388427734375,1.760261951828003,-1.561671808850765,-1.051753324727714
1733768361287348700,4.6833486328125,2.1833839037686587,-1.6316957776695489,-1.1365054916009307
1733768361297308700,4.69330859375,2.333986553168297,-1.7764099535524844,-1.3012272672459482
1733768361307268600,4.7032685546875,2.35940098040998,-1.8982821830302476,-1.512894626200199
1733768361317229800,4.713229736328125,2.298494968548417,-1.9672347232252358,-1.7126114351198076
1733768361327189800,4.723189697265625,2.0643298004515467,-2.001017165839672,-1.775716710591316
1733768361337149700,4.733149658203125,1.4726672452300786,-1.9184370823085306,-1.7602663357421755
1733768361347110700,4.743110595703125,0.359116220498085,-1.667906324213743,-1.4428735799908636
1733768361357070600,4.753070556640625,-1.0225613517086953,-1.2923609469622372,-0.8880591385647654
1733768361367030500,4.763030517578125,-2.1296195803552864,-0.9253490047782659,-0.4504463044568896
1733768361376991700,4.77299169921875,-2.861456183812022,-0.6543722555041313,-0.28293489809334277
1733768361386951700,4.78295166015625,-3.501580133733153,-0.3695160339593887,-0.2562020817294717
1733768361396911600,4.79291162109375,-3.786549168002605,-0.37219898943305013,-0.24623477793391793
1733768361406871600,4.80287158203125,-3.4025229626536366,-0.9961948113739489,-0.12763269270062447
1733768361416832800,4.812832763671875,-2.4968892966926095,-1.8957775067329405,0.1472714591503143
1733768361426792700,4.822792724609375,-1.7354694558769463,-2.5155004736602304,0.43873014770001173
1733768361436752600,4.832752685546875,-1.8364235466189682,-2.6714918303608894,0.896998816345632
1733768361446713600,4.842713623046875,-1.8698001849114894,-2.5810890903800723,1.2680521428748965
1733768361456673500,4.852673583984375,-2.1844150003820655,-2.2248633306264876,1.668439992699027
1733768361466633500,4.862633544921875,-3.4848090316742657,-0.7641781996130943,2.5653593140676616
1733768361476594700,4.8725947265625,-2.553057758638263,1.5462778403639792,3.1451173503533005
1733768361486554600,4.8825546875,-0.4266378511071205,3.9564673432469366,2.3583929724112154
1733768361496514600,4.8925146484375,1.0717821864735335,5.554728468826413,0.41780280274450776
1733768361506475800,4.902475830078125,1.9748475363165139,6.619892187008261,-1.136730240267515
1733768361516435700,4.912435791015625,3.0265643284261223,6.823986772620677,-2.3013830912053583
1733768361526396000,4.92239599609375,3.4925907715916633,5.058136207005381,-2.613287478673458
1733768361536355800,4.93235595703125,3.5993168698638676,1.3962661425948142,-2.8676959549844265
1733768361546316500,4.942316650390625,3.386512908095121,-0.4994254394203424,-3.5603166926011443
1733768361556276700,4.95227685546875,2.564838212803006,-1.482470846363902,-4.101268028369546
1733768361566236700,4.962236572265625,1.6531062299668788,-2.4308459219425913,-4.8640159029185766
1733768361576197600,4.97219775390625,2.252830364960432,-1.8889274947077035,-4.743769521076977
1733768361586157800,4.98215771484375,2.396508183532953,-1.7801292663365602,-3.896001184107363
1733768361596117800,4.99211767578125,2.3228356290787455,-1.5719301680147646,-3.52537338951379
1733768361606078700,5.00207861328125,2.6227830367714167,-0.6981862627893686,-3.6062174430325626
1733768361616039000,5.012038818359375,3.074716072654724,0.2297340537816286,-3.8457366855084896
1733768361625998800,5.021998779296875,3.463967319175601,0.9534212530523538,-3.698989250232279
1733768361635958800,5.031958740234375,3.341391909864545,1.2474778491407632,-2.862332966646552
1733768361645919700,5.041919677734375,3.1875913412064314,1.133636365905404,-1.7594208248287437
1733768361655879700,5.051879638671875,3.48694545918107,1.1098585999548434,-0.7705736728038638
1733768361665839600,5.061839599609375,3.458067739742994,1.3560802626788615,0.3656820818196982
1733768361675800800,5.07180078125,3.045627340814471,1.4936930821239947,1.7138256332151591
1733768361685760800,5.0817607421875,2.424465280994773,1.547859556597471,2.6750106521368027
1733768361695720700,5.091720703125,1.6857026776671409,1.168596035605669,2.972015868897736
1733768361705682000,5.101681884765625,1.0000433034956455,0.16114508620202542,2.949233835986256
1733768361715641900,5.111641845703125,0.4475824394583702,-0.7556248908013105,3.221168908898532
1733768361725601800,5.121601806640625,0.4053508059937507,-1.04830143070817,3.942024391874671
1733768361735562800,5.131562744140625,-0.027818565773963928,-0.7327052029848098,4.813439269630611
1733768361745522700,5.141522705078125,-1.2695393126927315,-0.43087212767601013,5.706981808042526
1733768361755482600,5.151482666015625,-2.8818495680212974,0.25450901407599447,5.866669681173563
1733768361765442800,5.16144287109375,-4.043231434464454,1.3005799092531203,5.158571680700779
1733768361775403800,5.17140380859375,-4.684415414832532,1.6086977639198303,4.550659563076496
1733768361785363700,5.18136376953125,-5.1460617432177065,1.1457324618905782,3.9166432823807
1733768361795324000,5.191323974609375,-5.0020285353362555,0.24735212805867193,2.990115589211881
1733768361805284900,5.201284912109375,-4.711281502187251,-0.5982686754882335,1.8798691589832304
1733768361815244800,5.211244873046875,-4.873668697404861,-0.6921399683624505,0.7183549713972955
1733768361825204700,5.221204833984375,-5.36440989511013,-0.33653146372437476,-0.32889220101758837
1733768361835165700,5.231165771484375,-6.552676261347532,0.22886019355654716,-1.7241754700548946
1733768361845125600,5.241125732421875,-6.215768365526199,0.3636345747053623,-1.4538266434207558
1733768361855085800,5.2510859375,-5.259296492731571,0.3229056739538908,-0.638604193007946
1733768361865046800,5.261046875,-5.048171862351894,0.21705694303810597,-0.853026549758762
1733768361875006700,5.2710068359375,-4.726734215123951,0.08458674717843533,-1.1984949878502635
1733768361884967000,5.280966796875,-4.217611557553708,0.2919716065078974,-1.2053203768908978
1733768361894926800,5.2909267578125,-3.767819917613268,0.6324556072503328,-0.9281501067388802
1733768361904887600,5.300887451171875,-3.2145199724033473,0.9210229582726955,-0.3973025971598923
1733768361914847700,5.31084765625,-2.3292577710807323,1.3683020308703184,0.13488134865462778
1733768361924807700,5.3208076171875,-1.4832302864290774,1.9603139840513466,0.6520652206707745
1733768361934768600,5.3307685546875,-0.8826341909065842,2.0762077236413954,1.3426524796985089
1733768361944728800,5.340728759765625,-0.21229835033416747,2.000192989975214,1.859405339886248
1733768361954688800,5.350688720703125,-0.06484466648474335,1.5472674359232186,2.5402494227305055
1733768361964649700,5.360649658203125,-0.02350274840146303,0.7979477827459573,3.1709213614344596
1733768361974610000,5.37060986328125,0.12973214919790624,0.2074041485518217,3.527759115606546
1733768361984569900,5.38056982421875,0.4220739041924476,0.17745090883672238,3.9724221604868766
1733768361994530600,5.390530517578125,0.649947132538259,0.741709178173542,4.350263831982017
1733768362004490800,5.40049072265625,0.22351327957063913,1.6835042908400297,4.559574106416106
1733768362014450700,5.41045068359375,-0.7561515450239181,3.298843392470479,4.6347395297765726
1733768362024411600,5.42041162109375,-1.641992130756378,5.066352246686816,4.728145543226599
1733768362034371800,5.430371826171875,-2.3485107530832288,6.459502303087711,4.804607436138391
1733768362044331800,5.440331787109375,-2.694002645115554,7.4062868946045635,4.85865759075582
1733768362054291700,5.450291748046875,-2.8029025802955028,6.6501780196785925,4.28803066316992
1733768362064253000,5.4602529296875,-2.8231296680271623,3.856436943221092,2.623381002664566
1733768362074212900,5.470212890625,-2.8070304738804697,1.2532593551516533,0.590208630086109
1733768362084172800,5.4801728515625,-2.5046646068692207,-0.6208177764266729,-1.2398419474348426
1733768362094133800,5.4901337890625,-2.0815400245800615,-1.8508856410831211,-2.657344647064805
1733768362104093700,5.50009375,-1.8686159435629843,-2.84189632781744,-3.756685360136628
1733768362114053600,5.5100537109375,-1.0483714272044597,-2.833738740324974,-4.824684009483456
1733768362124014800,5.520014892578125,-0.7227132396720349,-2.4260101723492142,-4.935217683345079
1733768362133974800,5.529974853515625,0.0012273498378694058,-1.011776995909214,-5.280806898272037
1733768362143934700,5.539934814453125,0.430154334795475,0.45512744801044464,-5.367827010077238
1733768362153896000,5.54989599609375,0.6532160712063312,1.5195669435709713,-5.594371327906846
1733768362163856000,5.55985595703125,0.993483944980055,1.9047037405103444,-5.714336262458563
1733768362173815800,5.56981591796875,1.0669126076757907,1.9037673364430665,-5.179068525284529
1733768362183776800,5.57977685546875,0.9125614193975925,1.281626202458143,-4.123887564195693
1733768362193736700,5.58973681640625,1.053693060618639,0.1868079352468252,-2.9477433051675557
1733768362203696600,5.599696533203125,1.5521920328438281,-0.6817804869115353,-2.2535423126220704
1733768362213656600,5.609656494140625,2.1331693817913533,-1.034971993535757,-1.9711656329333782
1733768362223617800,5.61961767578125,2.7130302939295765,-1.0016770421773196,-1.8912572528295217
1733768362233577700,5.62957763671875,3.095439711731672,-0.8023164993494749,-1.7472130851626395
1733768362243537700,5.63953759765625,3.372102105426788,-0.7320365099430084,-1.540077232158184
1733768362253499000,5.649498779296875,3.3910943906664848,-0.6738724902659654,-1.3161676467463372
1733768362263458800,5.659458740234375,3.3385131395578385,-0.6575538081496953,-1.0306968004345893
1733768362273418800,5.669418701171875,3.219636584764719,-0.650704380646348,-0.7286893184069544
1733768362283379700,5.679379638671875,3.099188835132122,-0.6711182231217623,-0.43037564939595757
1733768362293339600,5.689339599609375,2.971170942506194,-0.7030337028205395,-0.14802505399659274
1733768362303299600,5.699299560546875,2.878994763112068,-0.7980518276423215,0.06254384219646454
1733768362313260800,5.7092607421875,2.8565853629052635,-0.9197562993377446,0.1491271700195968
1733768362323220700,5.719220703125,2.8464117594152687,-0.986560137066245,0.14906959461346267
1733768362333180700,5.7291806640625,2.8022955543130634,-1.1314438242971896,0.11659779620617627
1733768362343142000,5.739141845703125,2.6796844891667364,-1.220980302837491,0.08326938096955418
1733768362353101800,5.749101806640625,2.4966549034148455,-1.0649065285503863,0.06395575482100248
1733768362363061800,5.759061767578125,2.2994155905246734,-0.7533768196135759,-0.0931271234434098
1733768362373022000,5.76902197265625,2.1195003374010324,-0.42282209221124645,-0.28588351876586676
1733768362382982700,5.778982666015625,1.912498339909315,-0.06798106481432914,-0.49906858880668875
1733768362392942600,5.788942626953125,1.7765315341055392,0.1313736327946186,-0.7387151109240949
1733768362402902800,5.79890283203125,1.630738915336132,0.10358137050569056,-0.8797074167396872
1733768362412863700,5.80886376953125,1.5394507708229124,-0.13315817812383174,-0.9858784384123981
1733768362422823700,5.81882373046875,1.4376444471657275,-0.4911807581663131,-1.0650175877094268
1733768362432784000,5.828783935546875,1.3678840977191924,-0.8981523702949284,-1.0815101650878787
1733768362442744800,5.838744873046875,1.431073252081871,-1.116998534837365,-1.0312982003938407
1733768362452704800,5.848704833984375,1.4715759428620339,-1.3362515266150234,-0.9328327846623956
1733768362462665000,5.8586650390625,1.0382680394064634,-1.424338390868902,-0.6811037566937506
1733768362472625700,5.868625732421875,0.8151999463200569,-1.1914882508933544,-0.5620221808478236
1733768362482585600,5.878585693359375,0.8024141145050525,-0.8398124095290899,-0.5405483079254627
1733768362492545800,5.8885458984375,0.7485317176699638,-0.5116460385680198,-0.38360944124162194
1733768362502505700,5.898505615234375,0.6349831529665738,-0.18865619346201418,-0.1346512662257999
1733768362512466700,5.908466796875,0.46368433701880274,-0.06389408776164054,0.050545215236395595
1733768362522427000,5.918427001953125,0.1467968639085069,0.05089548997879028,0.24931005719341337
1733768362532387000,5.928386962890625,-0.32323413872327655,0.023557985720038414,0.511038208867982
1733768362542348000,5.93834814453125,-0.7280535047214478,-0.322002587634325,0.7106434471718966
1733768362552308000,5.948307861328125,-1.1519857501316815,-0.46027124063968655,0.9090949123308062
1733768362562268000,5.958267822265625,-1.7331471504092215,-0.39531098495125766,1.2065884971305727
1733768362572229000,5.96822900390625,-2.397492518395185,-0.2959749969303608,1.45780533779338
1733768362582189000,5.97818896484375,-2.937268088382482,-0.3703828799217939,1.5232209360338747
1733768362592149000,5.98814892578125,-3.2217946395814416,-0.2336240469574928,1.565646557700634
1733768362602110200,5.998110107421875,-2.712197934758663,-0.20467267776131629,1.6232659491069614
1733768362612070100,6.008070068359375,-1.906103085914254,-0.3164794402986765,1.7260075077876447
1733768362622030000,6.018030029296875,-1.194329611799121,-0.5419669425517321,1.809902473309636
1733768362631991000,6.027990966796875,-0.7848830609243362,-0.4705646711170673,1.7873548336759209
1733768362641951000,6.037950927734375,-0.555339049822092,-0.1178401974827051,1.7801131919845938
1733768362651911000,6.047910888671875,-0.35872115676589306,0.2855447883307934,1.5044915395140648
1733768362661870800,6.057870849609375,-0.1666869382381439,0.5763268927931785,0.9539084520474076
1733768362671832000,6.06783203125,0.08046360283382237,0.4044634286999702,0.6609283260840922
1733768362681792000,6.0777919921875,0.28274733963198956,-0.17051204948425291,0.6728291917581111
1733768362691752000,6.087751953125,0.17386377106495202,-0.8427046238392591,0.7463626300025731
1733768362701713200,6.097713134765625,0.0937164676386863,-1.2022533905357122,0.8053961259905248
1733768362711673000,6.107673095703125,0.17492621266469358,-1.4084142610281705,0.8954067979138344
1733768362721633000,6.117633056640625,0.3410509869754314,-1.4914040944039821,0.8890601323008537
1733768362731594000,6.127593994140625,0.38886253946423527,-1.392232357034087,0.7158820784777402
1733768362741554000,6.137553955078125,0.10367438255138695,-1.2556950578659771,0.5211027624929323
1733768362751513900,6.147513916015625,-0.22259645698666572,-1.2855857537388802,0.3104036275163293
1733768362761475000,6.15747509765625,-0.3784761700063944,-1.5382359882056713,-0.05024491711556911
1733768362771435000,6.16743505859375,-0.42486024697534736,-1.8733944100111721,-0.5734401949083432
1733768362781395000,6.17739501953125,-0.46609424770474434,-2.0439654962062836,-1.0798521687477827
1733768362791356200,6.187356201171875,-0.5019739548593759,-1.8956477428734302,-1.4782380310997365
1733768362801316000,6.197316162109375,-0.48120530759692187,-0.7026923420369625,-1.7409806205138563
1733768362811276000,6.207276123046875,-0.04917356155700981,1.7472592623919248,-2.088506064200401
1733768362821236200,6.217236328125,0.20078728769533336,4.5778415845125915,-2.640928349792957
1733768362831197000,6.227197021484375,0.15009126581139862,7.191334814891219,-3.457944697885215
1733768362841156900,6.237156982421875,-0.09466785007938743,8.117851109883189,-3.993104590770602
1733768362851117000,6.247116943359375,-0.5174959336400031,6.017448856183886,-3.353379869300127
1733768362861078000,6.257078125,-0.8619366361189633,2.2839321901887653,-2.373179330393672
1733768362871038000,6.267037841796875,-0.9350000456988811,-1.1954121463388203,-2.039219762983918
1733768362880998100,6.276998046875,-0.5929775833427906,-3.0964906820893288,-1.9599610789604485
1733768362890959000,6.286958984375,-0.06962583634667098,-3.7589620728969573,-2.1332726960353554
1733768362900919000,6.2969189453125,0.5134183089375496,-4.167489682295918,-2.0851878795631227
1733768362910879200,6.306879150390625,1.3730629616618155,-4.298659901472926,-1.44766885144338
1733768362920840000,6.31683984375,2.09231247074604,-3.5970512630194422,-1.002370723529905
1733768362930799900,6.3267998046875,2.7628070090115067,-1.7081255218774078,-0.6012700492613017
1733768362940760000,6.336760009765625,3.8836633883208034,0.71148121317029,0.1525282836999744
1733768362950721000,6.346720947265625,4.506215441194176,2.07386788251698,0.6666468498613685
1733768362960681000,6.356680908203125,4.58453962084651,2.4864134953856465,0.856254133503139
1733768362970641200,6.36664111328125,4.6150651074916125,2.4655232675701377,0.9142515644416213
1733768362980601000,6.37660107421875,5.047376328060031,2.2179297319710254,1.0156151127673685
1733768362990562000,6.38656201171875,5.114491715955734,1.5916437532663343,1.636660414339602
1733768363000522200,6.396522216796875,4.480447962731123,0.6163438458830118,2.3998319211281833
1733768363010482200,6.406482177734375,3.9912364588111635,-0.12910042716562747,2.780921926894784
1733768363020443000,6.41644287109375,3.323580943363905,-0.46147009503543374,2.933669771629572
1733768363030403000,6.426403076171875,2.448432432037592,-0.1617863067150116,2.837932684883475
1733768363040363000,6.436363037109375,1.5882903511852025,0.11691899098455905,2.673290404215455
1733768363050324000,6.446323974609375,0.8591770352125168,-0.41149055085778236,2.4351493182249366
1733768363060284200,6.4562841796875,0.3414718427360058,-1.106996780782938,2.409389584676921
1733768363070244000,6.466244140625,-0.21406592626227064,-1.3082733863651752,2.4498550121866165
1733768363080205000,6.476205078125,-1.0132312863707542,-1.1495277625203133,2.3408403645858167
1733768363090165200,6.486165283203125,-1.8393302278459072,-0.7383557760924101,2.2100131136275825
1733768363100125200,6.496125244140625,-2.375824291944504,-0.056173722642660136,1.8225811914883554
1733768363110086000,6.5060859375,-2.755479442602396,0.46640696691572664,1.3241533848032354
1733768363120046000,6.516046142578125,-3.0592589758038518,0.9081278208643198,0.8409375411015003
1733768363130006000,6.526006103515625,-3.2621523689329623,1.03588034055233,0.22042751544974742
1733768363139967000,6.535967041015625,-3.4173055212438106,0.8143085504382849,-0.44506760709322984
1733768363149927200,6.54592724609375,-3.6285692678332326,0.3198199828982353,-0.9343684697970748
1733768363159887000,6.55588720703125,-3.761405374395847,-0.34427345615327354,-1.1393579584226012
1733768363169848000,6.56584814453125,-3.64886503688693,-0.9396616077691317,-1.28523153347373
1733768363179808300,6.575808349609375,-3.569190027147531,-0.8447709087193012,-1.525168124578893
1733768363189768200,6.585768310546875,-3.3658725633874536,-0.6453975064098835,-1.5882320451267062
1733768363199728000,6.59572802734375,-3.235246826350689,-0.5713087723702192,-1.3245052669808268
1733768363209689000,6.605689208984375,-3.004082447504997,-0.4294096539080143,-0.9578021715503185
1733768363219649000,6.61564892578125,-2.739894043196738,-0.24933307274281977,-0.6067584175445139
1733768363229609000,6.62560888671875,-2.382747223075479,-0.05329670590162277,-0.3349630453638732
1733768363239570200,6.635570068359375,-1.8246131357073783,0.07753507510125636,-0.24444267035275696
1733768363249530000,6.645530029296875,-1.0697511921025813,0.3729267191857099,-0.2730425957627594
1733768363259490000,6.655489990234375,-0.3363036463178694,0.5314566544532776,-0.23450521370619534
1733768363269451300,6.665451171875,0.11149988854527473,0.4177303220301866,0.023912498246133326
1733768363279411200,6.6754111328125,0.4273461455069482,0.356053910318017,0.44189248418845234
1733768363289371100,6.68537109375,0.8126897170647979,0.675424980404973,0.5996209668800234
1733768363299332000,6.69533203125,1.5714441380634903,1.098087498140335,0.8414058162003755
1733768363309292000,6.7052919921875,2.801524569940567,0.9948591788560152,1.4007751444518566
1733768363319252000,6.715251953125,3.0190967690244315,0.9801432557612657,2.214656847780198
1733768363329213200,6.725213134765625,1.670470914004743,1.7458149088025092,3.0434999733969565
1733768363339173000,6.735173095703125,-0.4084025217145681,3.3264404244482515,3.4476989059418437
1733768363349133000,6.745133056640625,-1.971693456199765,4.664528518840671,3.6875001802295446
1733768363359094000,6.755093994140625,-2.931832034808397,5.612226133549213,4.10133466386497
1733768363369054000,6.765053955078125,-3.527252042867243,6.717896634164452,4.895190208861232
1733768363379014000,6.775013916015625,-4.093458231401443,7.740922753840684,5.6988160372436045
1733768363388975000,6.78497509765625,-4.641136829598247,6.580684796735644,5.738701472908258
1733768363398935000,6.79493505859375,-4.868669281682372,2.9742706620872017,4.496816036947071
1733768363408895000,6.80489501953125,-4.876069036544859,0.2710930691301823,2.3298703500211237
1733768363418855000,6.81485498046875,-4.781281797869503,-0.624047844389081,0.20650332725457846
1733768363428816100,6.824816162109375,-4.418664875774085,-0.9017600393980741,-1.2814634131118654
1733768363438776000,6.834776123046875,-3.9601358026266094,-0.9884861366927623,-2.467305767072737
1733768363448736000,6.844736083984375,-3.574587502276897,-0.9862848272562026,-3.4093680062428113
1733768363458697000,6.854697021484375,-3.030384763497114,-0.9750181678324937,-3.9661172151237722
1733768363468657000,6.864656982421875,-1.9579975238025187,-0.33961832382380963,-4.160574788340926
1733768363478616800,6.874616943359375,-0.816660082000494,0.46973172742426395,-4.322234253805876
1733768363488578000,6.884578125,0.2111246303796768,0.8239403021365403,-4.488617240661382
1733768363498538000,6.8945380859375,0.7842797612689435,0.6518897910386323,-3.981849329523742
1733768363508498000,6.904497802734375,1.5244117532536388,1.3571855935722588,-3.8535061504662034
1733768363518459100,6.914459228515625,2.1617139237523078,1.3238795362979172,-3.5860616669714447
1733768363528419800,6.924419921875,2.279408575284481,0.38797932688891884,-2.6520857036232948
1733768363538379800,6.9343798828125,2.2488626303732393,-0.3682563892871141,-1.866332216539979
1733768363548340700,6.9443408203125,2.0292671087682246,-0.43142333181798453,-1.2229507261276245
1733768363558300700,6.95430078125,2.1183692875444886,-0.07617021648883819,-0.5021260766811668
1733768363568260600,6.964260498046875,2.3260440697312355,0.16319441994726658,0.06333090092092752
1733768363578221800,6.974221923828125,2.6607635155975817,0.23439503132998943,0.6351148895874619
1733768363588181800,6.984181640625,3.1185446929872036,0.4848106386125087,1.159793135946989
1733768363598141700,6.9941416015625,3.289108180397749,0.5734791021466255,1.4885010664388536
1733768363608103000,7.00410302734375,3.246297797197103,0.30982348954081534,1.621052949232608
1733768363618062800,7.014062744140625,2.9904186638116834,-0.14743570980131626,1.6523283774621784
1733768363628022800,7.024022705078125,2.6482085699290034,-0.5210626862108707,1.6017182802960275
1733768363637983700,7.033983642578125,2.4582243427336214,-0.6069295363277196,1.491587049755454
1733768363647943700,7.043943603515625,2.460411623644829,-0.6947486895561218,1.276326342484355
1733768363657903600,7.053903564453125,2.4652614017635583,-0.3833452373474836,1.2576309943646191
1733768363667863800,7.06386376953125,2.419403321430087,0.016577040791511535,1.1696057971701026
1733768363677824800,7.07382470703125,2.307631630206108,-0.02840133409798145,1.0555350352235138
1733768363687784700,7.08378466796875,2.199487481829524,-0.42216625865101814,0.8470552202641963
1733768363697745000,7.093744873046875,2.0042858122467995,-0.899949190583825,0.7324293086528778
1733768363707705900,7.103705810546875,1.7961650398582218,-1.2726274879664181,0.6074070907115936
1733768363717665800,7.113665771484375,1.5494851119726896,-1.4369903671711683,0.42374563679695126
1733768363727625700,7.123625732421875,1.378975985097885,-1.391635560184717,0.18541881897598503
1733768363737586700,7.133586669921875,1.2856447904497383,-1.1577052237570284,0.06412475471235811
1733768363747546600,7.143546630859375,1.2381722606569527,-0.9775468095272779,-0.08287468256354331
1733768363757506800,7.1535068359375,1.266715633574128,-0.6252841081857681,-0.23892829084545372
1733768363767467800,7.1634677734375,1.3886638508975504,-0.14435118778944014,-0.4191152735825628
1733768363777427700,7.173427734375,1.4658464592993259,0.2653179928600788,-0.6331587870836257
1733768363787388000,7.183387939453125,1.5129495712578296,0.667670128494501,-0.729060709002614
1733768363797348900,7.193348876953125,1.5428642325282096,0.749905928632617,-0.764863259267807
1733768363807308800,7.203308837890625,1.441737269437313,0.5400117168307305,-0.6422700220391154
1733768363817268700,7.213268798828125,1.3748960223078728,0.18062895435094833,-0.5002133018624038
1733768363827229700,7.223229736328125,1.3636515747159719,-0.2222480819404125,-0.4795574673246592
1733768363837189600,7.233189697265625,1.0963433578867465,-0.6436182217776775,-0.48877830013446505
1733768363847149800,7.24314990234375,0.885832986947894,-0.9265496127396822,-0.5037652221903205
1733768363857110800,7.25311083984375,0.8332681755173951,-1.053166990917921,-0.5650806551029905
1733768363867070700,7.26307080078125,0.6790718124747276,-0.9836310978770255,-0.5676081642866134
1733768363877031000,7.273031005859375,0.1888555154263973,-1.2583020254939794,-0.5030065127775073
1733768363886991600,7.28299169921875,-0.31750352264940734,-1.2444880196750163,-0.7033785707354545
1733768363896951600,7.29295166015625,-1.1413006899882108,-1.1860557044506073,-1.1579048379823564
1733768363906911700,7.302911865234375,-1.8870248759567736,-1.1497568951010704,-1.6509566507175564
1733768363916872700,7.312872802734375,-1.9863164403140543,-1.1608382610857486,-1.8593463031753896
1733768363926832600,7.32283251953125,-1.633709455579519,-1.1647206554770468,-1.8200939047172664
1733768363936792800,7.332792724609375,-0.9486141450315714,-1.1204092200636864,-1.7044982712909578
1733768363946753800,7.34275390625,-0.08448270228207111,-1.1383365064203739,-1.2295204599067568
1733768363956713700,7.352713623046875,0.5480307726353406,-1.1109008024841547,-0.8243900917306541
1733768363966674000,7.362673828125,0.7485691270709037,-1.1343056434690952,-0.3586857201263308
1733768363976634600,7.372634521484375,0.8767120343159883,-1.2116823131382464,0.11865819933470338
1733768363986594600,7.382594482421875,0.8255623503804206,-1.1929787817120552,0.5862006365537643
1733768363996554800,7.3925546875,0.5262865583389997,-1.059627126842737,1.0906021108210087
1733768364006514700,7.4025146484375,0.017045900412276386,-0.812829125535488,1.4684922976329922
1733768364016475600,7.4124755859375,-0.5317484039414674,-0.5334124646961689,1.6954811443597078
1733768364026435800,7.422435791015625,-0.8646898072846233,-0.43566754525899887,1.7741490228831767
1733768364036395800,7.432395751953125,-1.2188994049102067,-0.5271154103785753,1.7966092764943837
1733768364046356700,7.442356689453125,-1.5921113707780836,-0.7729016042947768,1.8051923959225415
1733768364056317000,7.45231689453125,-1.8462860383331774,-1.016347957086563,1.8886352337628602
1733768364066276900,7.46227685546875,-2.23423964625895,-1.0850281100809573,2.034436912621558
1733768364076237600,7.472237548828125,-2.5431150412946937,-1.209387480199337,1.9654238744109869
1733768364086197800,7.48219775390625,-2.700185425403714,-1.1178706414967774,1.5231687674552201
1733768364096157700,7.49215771484375,-3.135339175921678,-0.9891875629603862,0.9248775878742337
1733768364106118700,7.50211865234375,-3.9307957263737916,-0.8544073365926742,0.5691799436479806
1733768364116078800,7.512078857421875,-3.1982424990803002,-0.5085036488890647,0.275862493755389
1733768364126038800,7.522038818359375,-1.1280172839146108,0.6012859774827957,-0.450042692092061
1733768364135999700,7.531999755859375,0.4835796355128288,3.2242291732519863,-1.3386039349600671
1733768364145960000,7.5419599609375,1.8274831381857395,6.352595587551593,-1.8545073387116193
1733768364155920000,7.551919921875,2.942929182884097,8.124853682121634,-2.007509450468421
1733768364165880600,7.561880615234375,3.4178853669583797,7.8253189468830815,-2.3948124855309723
1733768364175840800,7.5718408203125,3.382882442638278,4.515609877005219,-2.8138579818129537
1733768364185800700,7.58180078125,3.006212445271015,0.6504220565736294,-3.437926284468174
1733768364195761700,7.59176171875,2.467277417761087,-1.5774544843941927,-4.157008912552893
1733768364205721900,7.601721923828125,1.7719138111770152,-3.047093321713805,-4.30007882836014
1733768364215681800,7.611681884765625,1.3465782748401165,-3.7741555503755806,-3.878889890308678
1733768364225642800,7.621642822265625,1.2852426393896341,-3.9081186151415106,-3.2093142204537988
1733768364235603000,7.63160302734375,1.4031266760140657,-3.704664665520191,-2.512635147356987
1733768364245563000,7.64156298828125,2.103326032191515,-2.588454066190123,-2.2227567137360573
1733768364255523600,7.651523681640625,3.3588118312209843,-0.6057336045414209,-2.078935102778673
1733768364265483800,7.66148388671875,4.277049542689324,0.9509984098196029,-1.6204408086836337
1733768364275443700,7.671443603515625,4.535404126277566,1.399224407878518,-1.1818202588379383
1733768364285404700,7.68140478515625,4.7045805432438845,1.4743325480937957,-0.9221677443936467
1733768364295364900,7.69136474609375,5.0032420027792455,1.592405385288596,-0.7695818852875381
1733768364305324800,7.70132470703125,5.048678642830252,1.1823042429625987,-0.2425668300108984
1733768364315285800,7.71128564453125,4.225013065981865,0.4994260239422321,0.6046396718248724
1733768364325246000,7.721245849609375,3.175797443038225,-0.15135434454977512,1.1071097396381198
1733768364335206000,7.731205810546875,2.1105811178863045,-0.4427712397843599,1.4295128708973526
1733768364345166600,7.74116650390625,1.3504378728777169,-0.34962826118469237,1.6362208538785576
1733768364355126800,7.751126708984375,0.7430681915670633,-0.28648703761696814,1.789407966813445
1733768364365086700,7.761086669921875,0.15716390761137009,-0.3468132037639618,1.9073451949298381
1733768364375047700,7.771047607421875,-0.4977601365566253,-0.9674556236237287,2.0300822245433925
1733768364385007900,7.7810078125,-0.9149801709771156,-1.5238298617124557,1.8419468400850891
1733768364394967800,7.7909677734375,-1.4652724588036536,-1.2810182996928692,1.599099037708342
1733768364404928800,7.8009287109375,-2.1981997801065445,-0.6470166320443153,1.22946814519763
1733768364414888700,7.810888671875,-2.7579659987211227,0.34344869576692577,0.9697174310758709
1733768364424849000,7.820848876953125,-3.1283529702961443,1.1443202570050954,0.9490677340179681
1733768364434809600,7.8308095703125,-3.5510406224727626,1.225019933617115,1.0056731260761618
1733768364444769500,7.84076953125,-3.8481250419497486,0.8318751867890357,1.0885142716962843
1733768364454729700,7.850729736328125,-3.883472249662876,0.3583405599504709,1.0569882297065107
1733768364464690700,7.860690673828125,-3.6125755798876282,-0.11072715060710907,0.9558382510662078
1733768364474650600,7.870650634765625,-3.3369606494188306,-0.6138923610776662,0.693291111158952
1733768364484610800,7.88061083984375,-3.1561341266691683,-0.9752852943360805,0.48081955968234685
1733768364494571800,7.89057177734375,-3.0133824830308553,-1.2186240951001643,0.4224659357173368
1733768364504531700,7.90053173828125,-2.873120318120718,-1.287124215352535,0.3204178757261485
1733768364514492000,7.910491943359375,-2.845133410042524,-0.945796749523282,0.07764584199935197
1733768364524452600,7.92045263671875,-2.6503344760417935,-0.6838894418895244,-0.0018076339438557623
1733768364534412000,7.930412109375,-2.2233001729629933,-0.8093611571639776,0.0409819256644696
1733768364544372000,7.9403720703125,-1.7219500490903854,-0.6089806236386299,0.16726093873381614
1733768364554333000,7.9503330078125,-1.1850129173994064,-0.150060213086009,0.26335984452962874
1733768364564292900,7.96029296875,-0.7304992904383689,0.12143676066994666,0.2347688696110621
1733768364574252800,7.970252685546875,-0.22046996635198593,0.30725334679186345,0.0031087796702980995
1733768364584214000,7.980214111328125,0.26916648498177526,0.3162865480750799,-0.2062599469527602
1733768364594174000,7.990174072265625,0.6666074676990509,0.06310615225434303,-0.2965998508304357
1733768364604134000,8.0001337890625,0.9260871097944676,-0.09855039060115814,-0.14187774688061325
1733768364614094800,8.0100947265625,1.0152138384900986,0.16125672988295553,0.050031603158451614
1733768364624054800,8.0200546875,1.0505414647199214,0.6702899556040763,0.2160479851912707
1733768364634014700,8.0300146484375,1.0508218890964984,1.1081757614344359,0.511524458014965
1733768364643976000,8.039975830078125,0.8447920976378023,1.7729747184067963,0.9455701742257923
1733768364653935900,8.049935791015624,0.5312834898434579,2.4143852010071276,1.4167556806549428
1733768364663895800,8.059895751953125,-0.09577274258136749,2.968975478288531,2.09629452611953
1733768364673857000,8.06985693359375,-0.757847973678261,4.1222979569166895,2.9054467167079445
1733768364683817000,8.07981689453125,-1.3070309850886463,6.329865284827351,3.873107799775898
1733768364693777000,8.08977685546875,-1.8849452932037412,8.41119458926618,4.728104334433376
1733768364703737900,8.09973779296875,-2.557797646641731,8.406576281815767,4.849359601056576
1733768364713697800,8.10969775390625,-3.3234602395936843,5.050736744403839,3.9369320371717214
1733768364723657700,8.11965771484375,-3.7298923380181193,0.7434639128863811,2.5889582163199782
1733768364733619000,8.129618896484375,-3.6711890968978405,-1.4973767390727997,1.0951698571279644
1733768364743579000,8.139578857421874,-3.7306396492540834,-2.04242352746129,-0.6167893246281891
1733768364753538800,8.149538818359375,-4.975541510426998,-2.210455450567603,-2.995468348416686
1733768364763500000,8.1595,-5.7615118551313875,-0.6509042871326207,-5.463715487992763
1733768364773460000,8.1694599609375,-6.249003111129999,0.44686932275295255,-6.114566583633422
1733768364783420000,8.179419921875,-6.104882224965095,0.3642623512148857,-5.10547254319787
1733768364793380900,8.189380859375,-4.875655195046961,0.46984044849574563,-4.091217174476385
1733768364803340800,8.1993408203125,-2.3949064474247392,0.6134849493205548,-3.3964304909974334
1733768364813300700,8.20930078125,-0.8000655055522918,0.8721084129780531,-2.993976064032316
1733768364823262000,8.219261962890625,0.13147541266866028,1.2608780134618283,-3.046741147275269
1733768364833222000,8.229221923828124,1.306531511133909,1.6648492747306822,-3.0829958252221346
1733768364843181800,8.239181884765625,2.2821043902397156,1.8139502873957156,-2.870574725291133
1733768364853143000,8.24914306640625,3.3428859478145836,1.6357137811392544,-2.411072861588746
1733768364863103000,8.25910302734375,4.188134410917758,1.358472126251459,-1.7395746992386876
1733768364873063000,8.26906298828125,4.526911607742309,0.937659620296955,-1.031876438673213
1733768364883024000,8.27902392578125,4.78890600913763,0.5039379484087229,-0.299813698310405
1733768364892983800,8.28898388671875,4.9710307550042865,-0.018947277054190633,0.2353784894093871
1733768364902943700,8.29894384765625,4.905771808630227,-0.5958516774743795,0.7929322926715016
1733768364912905000,8.308905029296875,4.666440489941835,-1.0199573797553778,1.2283709976106882
1733768364922865000,8.318864990234376,4.1445027744621035,-1.2893734555840493,1.4338023847848176
1733768364932824800,8.328824951171875,3.451340477314591,-1.5406436338692902,1.5952404625840484
1733768364942785000,8.338784912109375,2.747304903975129,-1.7529215259373188,1.545980757113546
1733768364952746000,8.34874609375,2.258607779318094,-1.6052064146727323,1.4091849531397223
1733768364962706000,8.358705810546875,2.1131886700361964,-1.1711311070412396,1.2615335547611117
1733768364972665900,8.368665771484375,2.126675343596935,-0.7184452069640159,0.9933714245162903
1733768364982626800,8.378626708984376,2.173878408798575,-0.3572042493969202,0.6569084959834813
1733768364992586800,8.388586669921875,2.0955003070019185,0.030479893937706944,0.32532157598920164
1733768365002546700,8.398546630859375,1.9250234749615192,0.22727497019171713,0.0055799190241843455
1733768365012508000,8.4085078125,1.7102308235935866,0.0927659619808197,-0.15206526929810643
1733768365022467800,8.4184677734375,1.5940052217006682,-0.22448972338736056,-0.24001995853967964
1733768365032427800,8.428427734375,1.5607335050873457,-0.4871791213095188,-0.35421792706251143
1733768365042389000,8.438388916015626,1.6020761538229882,-0.6812742909550666,-0.41990562024265526
1733768365052349000,8.448348876953125,1.5703478672593831,-0.8282786236017942,-0.4591536347866058
1733768365062308900,8.458308837890625,1.1420230859786271,-1.0178817425251006,-0.3946122620973736
1733768365072269800,8.468269775390626,0.8788627095438539,-0.9955822324335575,-0.44292818391174077
1733768365082229800,8.478229736328124,0.5109926161605864,-0.8284305992931127,-0.4817721476994455
1733768365092189700,8.488189697265625,0.060656421014666555,-0.7104080309808254,-0.3633355186935514
1733768365102151000,8.49815087890625,-1.2865969766080378,-0.504735820788145,-0.7087224159814417
1733768365112110800,8.50811083984375,-5.148306307274103,-0.04729483513832092,-1.7515319712750612
1733768365122070800,8.51807080078125,-5.525823276859522,-0.7687281180024147,-2.1243815335713325
1733768365132032000,8.528031982421876,-3.490888059327006,-1.7775889342039823,-1.8822298967652022
1733768365141992000,8.537991943359375,-1.499428995427489,-1.4771931982219217,-2.3889238658837972
1733768365151952000,8.547951904296875,0.1844187020227313,-1.0116273583054542,-2.458987728321552
1733768365161912800,8.557912841796876,1.4400743046611546,-0.7989508223086595,-2.144799906091392
1733768365171872800,8.567872802734374,2.231757766315341,-0.5585153417706489,-2.116677388934791
1733768365181832700,8.577832763671875,2.6050708544701338,-0.3269002965480089,-1.9636568647384642
1733768365191794000,8.5877939453125,2.8998914206683635,-0.2041577139765024,-1.7867071834221482
1733768365201753900,8.59775390625,3.188810069346428,-0.09447101233303547,-1.6218816551417112
1733768365211713800,8.6077138671875,3.3347587554603813,-0.14470540805459023,-1.327776982127875
1733768365221675000,8.617675048828126,3.338291605761647,-0.37861294812858104,-0.9282327435210347
1733768365231635000,8.627635009765624,3.2945167614430186,-0.5835048215985298,-0.5134917029673234
1733768365241595000,8.637594970703125,3.0924083812117575,-0.7606447647899389,-0.12148410694301127
1733768365251555800,8.647555908203126,2.398289221730828,-1.044638232025504,0.28652620058357714
1733768365261515800,8.657515869140624,1.091268319644779,-0.37788755646348,0.6337967927262187
1733768365271475700,8.667475830078125,0.12740925920829177,0.12622282590270043,0.5548376761712134
1733768365281437000,8.67743701171875,-0.6265957753062248,0.017446809363365172,0.15665259708836674
1733768365291396900,8.68739697265625,-1.5487375084757804,-0.17531565037369726,-0.07599120666012167
1733768365301356800,8.697356689453125,-2.243070018446445,-0.37394963249266144,-0.25716939239166675
1733768365311318000,8.707318115234376,-2.4082995974831283,-0.5880751982539892,-0.5205275564208627
1733768365321278000,8.71727783203125,-1.973657449749112,-0.8045745074093341,-0.5489530020467936
1733768365331238000,8.72723779296875,-1.192614478444308,-0.9576450082272291,-0.3755103059381246
1733768365341198800,8.73719873046875,-0.44151860937476156,-1.0648936690688133,-0.09151442754976451
1733768365351158800,8.74715869140625,-0.05171206705868244,-1.0982733761012553,0.12826719121187924
1733768365361118700,8.75711865234375,0.14868176433965563,-0.9433476028054952,0.2726975817173719
1733768365371080000,8.767079833984376,0.3755390936411917,-0.7333896781176328,0.31481516034826634
1733768365381039900,8.777039794921874,0.5867288982115686,-0.8246148403972386,0.14837752069607377
1733768365390999800,8.786999755859375,0.671679948657751,-0.9946025737464428,-0.1263414838463068
1733768365400961000,8.7969609375,0.6705798784613609,-1.1096814898222684,-0.4207300883680582
1733768365410921000,8.8069208984375,0.5380488923251628,-1.2452198410809039,-0.646831119409576
1733768365420881000,8.816880859375,0.12301438525021076,-1.1969377484709023,-0.8325011366676539
1733768365430841900,8.826841796875,-0.5573305159002542,-1.028534069442749,-0.8445669105798006
1733768365440801800,8.8368017578125,0.17506021430790422,-1.141042258247733,-1.0123988541346043
1733768365450761700,8.84676171875,-0.28553704341575503,-0.819528330913186,-1.547375718603283
1733768365460723000,8.856722900390626,-1.2843623494237661,0.5078501534163952,-1.6873625737033784
1733768365470683000,8.866682861328124,-1.7563281195104121,3.2435821084976193,-2.2599203232213854
1733768365480642800,8.876642822265625,-2.1078473090082404,6.553393469706178,-3.3060581461548804
1733768365490604000,8.88660400390625,-1.51050568523705,8.228017703998088,-4.200312339967489
1733768365500564000,8.89656396484375,-0.9730939217716454,7.480211377993226,-4.158758386568725
1733768365510524000,8.90652392578125,-1.1182224506091325,4.050943616276979,-3.0680326493680474
1733768365520484900,8.91648486328125,-0.4087829723995179,-0.5592991856247186,-2.0805152115769685
1733768365530444300,8.9264443359375,0.4651368008494377,-3.237489636841416,-2.06937290918529
1733768365540404500,8.936404541015625,0.9499011891674249,-4.464694513282179,-2.394925590516627
1733768365550365400,8.946365478515625,1.3421990368425845,-4.685258003136515,-2.87414206238389
1733768365560325400,8.956325439453124,1.6217783408977091,-4.111905157718062,-3.2594097922265526
1733768365570285600,8.96628564453125,1.879191113591194,-2.857017909103632,-3.3634146488413212
1733768365580246500,8.97624658203125,2.085358413824439,-0.9061977295845747,-3.3750065946966408
1733768365590206500,8.98620654296875,2.173455799472332,0.7998667681097984,-3.3032711457848545
1733768365600166700,8.996166748046875,2.19398815376088,1.8305390186250208,-3.0976258235991
1733768365610127400,9.00612744140625,2.153729939261079,2.0591636498600243,-2.739493937963247
1733768365620087300,9.01608740234375,2.202545700356364,1.757859566861391,-2.14178260409683
1733768365630047500,9.026047607421875,2.289826508924365,1.338382108902931,-1.673335363525152
1733768365640008400,9.036008544921875,2.3548598298490044,1.2350567589849233,-1.2502896916911006
1733768365649968400,9.045968505859374,2.4958459251195193,1.4270201772987843,-0.6427873239114881
1733768365659928600,9.055928466796875,2.6952771950960157,1.4811498268932104,0.205908795427531
1733768365669889500,9.0658896484375,2.8982559284210203,1.315935299295187,1.0973178289420902
1733768365679849500,9.075849365234374,3.092670247018337,0.9814151753932238,1.9611554033115506
1733768365689809700,9.0858095703125,3.187777803689241,0.43392859263718125,2.648565420542657
1733768365699770400,9.095770263671875,3.4235470459818838,-0.32838848927915093,3.1421602541133757
1733768365709730300,9.105730224609376,3.226171539491415,-1.1847557277679444,3.5143235877111554
1733768365719690500,9.1156904296875,2.230052715963125,-1.5113181706637142,3.6990485792040824
1733768365729651500,9.1256513671875,0.9110030840396881,-1.1531523827582597,3.3685090493708847
1733768365739611400,9.135611328125,-0.2378010221148841,-0.739594377976656,2.63815333212167
1733768365749571600,9.145571533203125,-0.6512672752261162,-0.2706634455412626,1.9181907063320278
1733768365759532500,9.155532470703125,-0.5311474423736333,0.18358546606898307,1.361941263666749
1733768365769492500,9.165492431640626,-0.15042086309194563,0.38486207165122027,0.8670936535559595
1733768365779452700,9.17545263671875,-0.12206570622324943,0.20466157184541225,0.6841836025305091
1733768365789413400,9.185413330078125,-0.2515232762634754,0.07548048065900802,0.5348142943181097
1733768365799373300,9.195373291015626,-0.47741526766419407,0.3086293113201856,0.13808701282814145
1733768365809333500,9.20533349609375,-0.8824807539105415,0.02860007154047489,0.06475801111459732
1733768365819294500,9.21529443359375,-1.1902806286692618,-0.427073319914937,0.20275062365755436
1733768365829254400,9.22525439453125,-1.3271195411324501,-0.43808045161962506,0.31172318568229673
1733768365839214600,9.235214599609375,-1.421371357756853,-0.17269991491734982,0.4302504521137103
1733768365849175600,9.245175537109375,-1.4633926364064216,0.11171557712256908,0.7647370025396346
1733768365859135500,9.255135498046876,-1.450271289026737,0.4358423173040151,1.1615975550204514
1733768365869095700,9.265095703125,-1.5222037218153477,0.7396680277347564,1.4586518716201184
1733768365879056400,9.275056396484375,-1.7257704841613768,0.8147311597645283,1.7689982159912585
1733768365889016300,9.285016357421876,-2.114835122068971,0.5138087695598602,2.22623871063292
1733768365898976500,9.2949765625,-2.6688778484702107,0.0845616127371788,2.56813257817328
1733768365908937500,9.3049375,-3.3168788153767585,-0.44444180334508415,2.776408248862624
1733768365918897400,9.3148974609375,-3.8194495670855044,-0.9763520467847585,2.876332850426435
1733768365928857600,9.324857666015625,-4.2144940100550645,-1.2025760466188191,2.904380841042101
1733768365938818600,9.334818603515625,-4.897345341068506,-1.2112047587543726,2.9885706978574396
1733768365948778500,9.344778564453126,-5.510135878384113,-0.6342185252696275,3.43883726183325
1733768365958738700,9.35473876953125,-5.193797307860851,0.6526379790574312,3.316590646085143
1733768365968699400,9.364699462890625,-4.611565574938059,2.432130701056123,1.9476316126108169
1733768365978659300,9.374659423828126,-3.8530584066987035,3.4468975264310835,0.1819972835620865
1733768365988619500,9.38461962890625,-2.800741310608387,2.832798244604468,-1.2440110498130321
1733768365998580500,9.39458056640625,-1.571990958291292,2.33364519238472,-2.69022429562062
1733768366008540400,9.40454052734375,-0.19767361265420913,2.58525263980031,-4.37721467501074
1733768366018500600,9.41450048828125,0.9543915593892335,2.2558505895644423,-4.835144905482232
1733768366028461600,9.424461669921875,2.513452308958769,3.5104549295842644,-6.62783876209855
1733768366038421500,9.43442138671875,4.188267097386718,5.048118086338043,-8.87916515223682
1733768366048381400,9.44438134765625,4.020960565945506,3.8503281049519775,-8.530402567970752
1733768366058342400,9.45434228515625,3.307684870573878,1.8194933084756135,-7.830942047461867
1733768366068302300,9.46430224609375,2.779944021773338,0.40856151166856286,-7.133394667097925
1733768366078262500,9.474262451171874,2.8684137478649614,0.34991116977930065,-6.741848587638139
1733768366088223500,9.484223388671875,3.0275545085072517,0.8529179748177528,-6.375993414273858
1733768366098183400,9.494183349609376,2.7381542137920856,0.6774439190119504,-5.328203440219164
1733768366108143600,9.5041435546875,2.317090363425016,0.09303951822519302,-4.134058537337184
1733768366118104600,9.5141044921875,2.0098358475893736,-0.21413316454589365,-3.2883401186347005
1733768366128064500,9.524064453125,1.926571873447299,-0.4766214869379997,-2.615379482516646
1733768366138024400,9.5340244140625,2.0712170757472514,-0.8537877433896064,-2.096127060598135
1733768366147985400,9.5439853515625,2.1829846753180027,-1.297743809044361,-1.787037146028876
1733768366157945300,9.5539453125,2.246099595400691,-1.4936691167265177,-1.4460197690621017
1733768366167905500,9.563905517578124,2.3379963733315465,-1.7206144165724515,-1.1299044859007
1733768366177866500,9.573866455078125,2.438877837228775,-1.8842337839335201,-0.7212734161272645
1733768366187826400,9.583826416015626,2.4683435856878755,-1.8096604812473058,-0.2843271927019581
1733768366197786600,9.59378662109375,2.6391853055179118,-1.581653689649701,0.16230861355606466
1733768366207747600,9.60374755859375,2.9600679492115973,-1.4213538221001625,0.443519172074832
1733768366217707500,9.61370751953125,3.1779800477743145,-1.053698905837536,0.647032121874392
1733768366227667500,9.62366748046875,2.9503672239303587,-0.44620004518926143,1.0444383255392313
1733768366237628400,9.63362841796875,2.933669771629572,-0.45998424039185043,1.4554954534158109
1733768366247588400,9.64358837890625,2.8436241745233533,-0.6943219885766506,1.710631659479439
1733768366257548500,9.653548583984374,2.9130946011126038,-0.9903595293492078,1.7874854743182658
1733768366267509500,9.663509521484375,2.831902172547579,-1.0266267745167017,1.6713637711912392
1733768366277469400,9.673469482421876,2.5320553026199337,-0.7710615293860436,1.4871686487913132
1733768366287429600,9.6834296875,2.1306044997394085,-0.39611119541823864,1.1138868325576186
1733768366297390300,9.693390380859375,1.6114982082933187,-0.14150515070855615,0.6349550228506327
1733768366307350300,9.703350341796876,0.08598791921325027,0.37398002763092514,-0.24855386853124944
1733768366317310500,9.713310546875,-1.2494694613493977,0.49524493886530396,-0.4344339848760515
1733768366327271400,9.723271484375,-1.2519490032054483,0.146449621373415,-0.13430245278812944
1733768366337231400,9.7332314453125,-2.123581469234824,0.06443593955338,-0.5240755677586421
1733768366347191600,9.743191650390624,-2.9695547394812105,-0.19746201573014258,-0.39349392559193075
1733768366357152500,9.753152587890625,-2.9166444025486706,-0.8822948759496212,0.13048201771713794
1733768366367112400,9.763112548828126,-2.3940340485043823,-1.4850760604262352,0.39240496131144464
1733768366377072600,9.77307275390625,-1.604891941896081,-1.6800427522093058,0.4919315765336156
1733768366387033300,9.783033447265625,-1.0147462940435856,-1.693552222123742,0.21232235226426271
1733768366396993300,9.7929931640625,-0.4849133683346212,-1.5747499016106128,0.02671360020674765
1733768366406953500,9.802953369140624,-0.2660895617544651,-1.3132464986026287,0.010014321275055409
1733768366416914400,9.81291455078125,-0.32002566153816875,-1.0251257223039865,0.05086838277615607
1733768366426874400,9.822874267578126,-0.48203547481074926,-0.8231202179253101,0.059868412442132826
1733768366436834600,9.83283447265625,-0.7049503500968217,-0.48756373671293257,0.03277414235472679
1733768366446795500,9.84279541015625,-1.2825357185184956,-0.16330080293118954,0.03583360299058258
1733768366456755500,9.85275537109375,-1.921229197245091,0.061197103762626645,0.10250826138146221
1733768366466715600,9.862715576171874,-2.4559891310274597,0.24008359836041926,0.20327479366213083
1733768366476676400,9.87267626953125,-2.984766337138414,0.2583902394235134,0.42060295485705135
1733768366486636300,9.88263623046875,-3.3468285479605195,0.02289747598469257,0.7971759946558624
1733768366496596500,9.892596435546874,-3.417823407638073,-0.27588965575695035,1.1287140340071171
1733768366506557400,9.902557373046875,-3.122277449774742,-0.6983651264876127,1.4004513193249701
1733768366516517400,9.912517333984376,-2.6543723532557486,-1.100662901586294,1.612976464152336
1733768366526477600,9.9224775390625,-2.1895009253442286,-1.2851730812847613,1.6937562202632426
1733768366536438800,9.932438720703125,-1.8065208680473266,-1.217404782438278,1.7178266855500637
1733768366546398700,9.942398681640626,-1.5296604675620793,-1.0493488939344882,1.7399971624344586
1733768366556358700,9.952358642578124,-1.1172738446474075,-0.9214917448282242,1.6649828379824756
1733768366566319600,9.962319580078125,-0.7928874306164682,-0.8740554553925991,1.5300548737071453
1733768366576279600,9.972279541015626,-0.4592622097276151,-0.9561743511527776,1.4264341941043734
1733768366586239500,9.982239501953124,-0.1645528488188982,-1.0648808095872402,1.4481222942993044
1733768366596200700,9.99220068359375,0.09508373740389943,-1.1682365546435116,1.6258485129460691
1733768366606160600,10.00216064453125,0.33547245619073507,-1.3584171811938286,1.6918081549353896
1733768366616120600,10.01212060546875,0.47966100076436996,-1.521969913059473,1.6442837488248943
1733768366626081800,10.022081787109375,0.5028918003566563,-1.4556582427620888,1.4680366628199815
1733768366636041700,10.032041748046876,0.3896091200478375,-0.4581494261801243,1.011887908937782
1733768366646001700,10.042001708984374,0.5447825844943524,2.1615210315287112,0.4714072594210505
1733768366655962600,10.051962646484375,0.8226723280273377,5.676453398787975,0.3740132723134011
1733768366665922600,10.061922607421875,-0.2043769096851349,8.235012092930077,0.34960984874516726
1733768366675882500,10.071882568359374,-2.866518143376708,7.651492073762417,0.36768531140089034
1733768366685843700,10.08184375,-4.5025452282488345,3.721355103558302,-0.022790216217935085
1733768366695803600,10.0918037109375,-3.7637960689246652,-0.7798837182670831,-0.3101268198689446
1733768366705763600,10.101763671875,-2.8708061959594486,-3.9629631350070236,-1.0208286096319557
1733768366715724800,10.111724853515625,-2.1150766757398842,-5.015339267808199,-2.1881860433533786
1733768366725684700,10.121684814453126,-1.3500082492887973,-4.353938721102476,-3.898261530254781
1733768366735644700,10.131644775390624,-0.5406693039566278,-2.56098913615942,-5.759433879813551
1733768366745605600,10.141605712890625,0.11501405241237952,-0.8000508925050497,-6.715184452596306
1733768366755565600,10.151565673828125,0.6500730970054864,0.12956862919926643,-6.597006401461362
1733768366765525500,10.161525390625,1.1544009215146303,0.4604875137388706,-6.02831453359127
1733768366775486700,10.17148681640625,1.881854195320606,0.7934317666262388,-5.416401948153973
1733768366785446700,10.18144677734375,2.569873868882656,1.1910574582606552,-5.0365574124038215
1733768366795406600,10.191406494140624,3.0221348215460777,1.2482920881330966,-4.585023312710225
1733768366805367800,10.201367919921875,3.309721344837546,1.0002613301604986,-3.8428734050318596
1733768366815327700,10.21132763671875,3.512871343076229,0.8294967672199011,-3.027394934031367
1733768366825287700,10.22128759765625,3.8510476513981815,0.734107470998168,-2.0949679536908863
1733768366835248600,10.23124853515625,4.3881203921675676,0.7188128712326288,-1.0994036953054367
1733768366845208600,10.24120849609375,4.5678848386436695,0.5173281758576631,-0.16599157638512552
1733768366855168500,10.25116845703125,4.4471068341434,0.16487316681444644,0.7671868068445473
1733768366865129700,10.261129638671875,4.091806372541189,0.07722177136838436,1.6312652772977947
1733768366875089700,10.271089599609375,3.6307390130877493,0.2894774516046047,2.261073292648792
1733768366885049600,10.281049560546874,3.4110932226002215,0.8576181153327226,2.88656315253973
1733768366895010800,10.2910107421875,3.462466851484775,1.3026958784937859,3.7786446784883734
1733768366904970800,10.300970703125,2.61050515447855,1.2984452353119849,4.349052994887531
1733768366914930700,10.3109306640625,0.9404805229365825,1.0575988358855246,4.636953114172816
1733768366924891600,10.3208916015625,-0.3828420005330816,0.6882400383144617,4.539954921449721
1733768366934851600,10.3308515625,-1.0871627840220928,0.4100017736047506,4.205276976637542
1733768366944811500,10.3408115234375,-1.5168237823426722,0.3803630066663027,3.774503048638999
1733768366954772700,10.350772705078125,-1.8720330585300922,0.43008068503737445,3.347157926045358
1733768366964732700,10.360732666015625,-2.2269757927358147,0.41348610858917234,3.0619477764964103
1733768366974692600,10.370692626953126,-2.666099031406641,0.41926001581549643,2.809021647697687
1733768366984653800,10.38065380859375,-3.125259680455923,0.6605337007433175,2.608932206073403
1733768366994613800,10.39061376953125,-3.4491385833561417,0.8487094172120094,2.3188813384950158
1733768367004573700,10.40057373046875,-3.6298189756333827,0.7482318579405546,2.081300078344345
1733768367014534700,10.41053466796875,-3.550104218405485,0.46569969542920586,1.8295630131997167
1733768367024494600,10.42049462890625,-3.2008699249744414,0.27269699719548224,1.508016206508875
1733768367034454500,10.43045458984375,-2.6739175962030886,0.07370236507058144,1.2933363678656518
1733768367044415700,10.440415771484375,-2.2575110701225696,-0.24850714331269264,0.9322833340860903
1733768367054375700,10.450375732421875,-2.0738040235005317,-0.8191495607286691,0.4075773229368031
1733768367064335600,10.460335693359376,-1.8213094179868696,-1.322714584171772,-0.025045009407401085
1733768367074296800,10.470296875,-1.5560044307388365,-1.6202514235913752,-0.6116199591662734
1733768367084256800,10.4802568359375,-1.3441058933772145,-1.6862480365902184,-1.0073249118711798
1733768367094216700,10.490216796875,-1.1499802555281669,-1.6985989841192959,-1.2080622960101812
1733768367104177700,10.500177734375,-0.9411259081680328,-0.931915523687005,-1.760157030148804
1733768367114137600,10.5101376953125,-0.754423844448477,0.12691431529819966,-2.0402333239406345
1733768367124097500,10.52009765625,-0.6374468396663665,0.27074937025904655,-1.4771366457290946
1733768367134058800,10.530058837890625,-0.7868165862701832,0.21611235566437242,-0.6174854171335696
1733768367144018700,10.540018798828125,-1.0114555088698864,0.5789461353808641,0.08748232248947024
1733768367153978600,10.549978515625,-1.133400657453388,1.2512404165446758,0.43738370152711864
1733768367163939800,10.55993994140625,-1.2366003351651131,1.8087468735337255,0.6823392898380756
1733768367173899800,10.569899658203125,-1.3614170936621726,2.0307395194083453,1.017330173056945
1733768367183859700,10.579859619140626,-1.511632058918476,2.0704764865130185,1.4914805206410586
1733768367193820700,10.589820556640625,-1.6068179415225983,3.3127667038828132,1.9743769961953161
1733768367203780600,10.599780517578125,-1.527577816069126,6.224591723451018,2.242364938917011
1733768367213740500,10.609740478515626,-1.4701137613549828,8.304736202019452,2.0799344890795646
1733768367223701800,10.61970166015625,-2.2326750272907314,7.295377373167872,1.5596780046850443
1733768367233661700,10.62966162109375,-4.389714675621688,3.3601246673852203,0.4096346938580274
1733768367243621600,10.63962158203125,-8.45621855686307,-0.513930350112915,-0.25460487566590306
1733768367253582600,10.64958251953125,-6.167959151124954,-2.526495914927125,0.4099826305128634
1733768367263542500,10.65954248046875,-4.244211102926731,-2.0129536873489617,-0.5243114588737487
1733768367273502500,10.66950244140625,-3.9217128407299517,-0.8728560164749621,-2.1156021609187126
1733768367283463700,10.679463623046875,-2.999454203182459,-0.16443243730962276,-3.2149300145089623
1733768367293423600,10.689423583984375,-1.633849740833044,-0.030281741017103195,-3.9775381883263585
1733768367303383600,10.699383544921876,-0.3923169907670468,-0.0030213936477899547,-3.892951733408868
1733768367313344800,10.7093447265625,0.759470606444031,-0.20930676730275152,-3.4619086330801245
1733768367323304700,10.7193046875,1.5452233628749847,-0.053018473482131956,-3.3584809918314216
1733768367333264600,10.7292646484375,2.1630045480847357,0.17431962507367132,-3.3200995309889314
1733768367343225600,10.7392255859375,2.670720261466503,-0.04541384369730949,-3.078599051567912
1733768367353185500,10.749185546875,3.560624443376064,-0.15330430957376956,-2.965532936619222
1733768367363145500,10.7591455078125,4.0463089422136544,-0.29782325514554975,-2.4711072051823137
1733768367373106700,10.769106689453125,4.11666550398767,-0.5278332032591104,-1.7625014013178646
1733768367383066600,10.779066650390625,4.091351029989123,-0.7976461694508791,-1.0673219191290437
1733768367393026600,10.789026611328126,4.104882127213478,-1.1128706412523983,-0.28799261987432834
1733768367402987800,10.79898779296875,3.8974832393586634,-1.3212386664003133,0.5822324635751545
1733768367412947700,10.80894775390625,3.26870252122879,-1.394196350583434,1.3379029470838606
1733768367422907600,10.81890771484375,2.6540485281288624,-1.3543641064107417,1.7865403024226425
1733768367432868600,10.82886865234375,2.104763371518254,-1.1884943297743797,2.055582430372387
1733768367442828500,10.83882861328125,1.7496417736142873,-0.7539537427186965,2.1700020057566465
1733768367452788500,10.84878857421875,1.4190589891612528,-0.20267419742047785,2.4058014970570802
1733768367462749700,10.858749755859375,1.0707909104138613,0.21348843690156935,2.485723175033927
1733768367472709600,10.868709716796875,0.6665986998707055,0.4041647380143404,2.369260111123323
1733768367482669600,10.878669677734376,0.2778536493062973,0.19629531003832815,2.1791788532942533
1733768367492630800,10.888630859375,-0.1437117117089685,-0.2082230637192726,1.8686254420436919
1733768367502590700,10.8985908203125,-0.484847463491559,-0.44954117231070995,1.4522447810567916
1733768367512550700,10.908550537109376,-0.6912491570025682,-0.5213607923746109,0.9948730612508953
1733768367522511600,10.91851171875,-0.7145254031717777,-0.5204799178868532,0.5914468666441738
1733768367532471300,10.92847119140625,-0.5919195987224578,-0.5185790527015924,0.19912264241874217
1733768367542431200,10.93843115234375,-0.4873556469202041,-0.5711988822549581,-0.1881027973629534
1733768367552392400,10.948392333984375,-0.3933376390516758,-0.6858434985667466,-0.490695166606456
1733768367562352400,10.958352294921875,-0.3298492094814777,-0.7983814979881048,-0.74302756729573
1733768367572312300,10.968312255859376,-0.2916740848660469,-0.8889356291383504,-0.8885567128233611
1733768367582273500,10.9782734375,-0.2345996139913797,-0.8864140017062425,-0.9567074351161717
1733768367592233500,10.9882333984375,-0.32331659284234043,-0.6874398278474807,-0.9487858483366668
1733768367602193400,10.998193359375,-0.5685024827778339,-0.7044879932820797,-0.8609653799340128
1733768367612154400,11.008154296875,-0.8373439735889434,-0.6649889265865088,-0.8086440949358046
1733768367622114300,11.0181142578125,-1.0734493159681557,-0.5142898310750723,-0.7492343129813671
1733768367632074200,11.02807421875,-1.4603858558058738,-0.11931786881983279,-0.5911448149576782
1733768367642035200,11.03803515625,-1.9351018013834953,0.1438268716543913,-0.3344448667086661
1733768367651995400,11.047995361328125,-2.4673516520410774,0.14166414066255092,0.0054449675329029555
1733768367661955300,11.057955322265625,-3.887461027038097,0.20546119779050348,0.5809023840151727
1733768367671916300,11.067916259765624,-4.244025809487701,0.20383739598095416,0.7010241165637969
1733768367681876500,11.07787646484375,-3.0305028369188305,-0.06285831497311592,0.3791166598670184
1733768367691836400,11.08783642578125,-2.4299673855423927,-0.25335984404087064,0.33502325111851095
1733768367701797000,11.097797119140624,-1.954039726087451,0.01822597704231739,0.11341463612541555
1733768367711757300,11.10775732421875,-1.4313462238043546,0.330258959326148,-0.07928367233425378
1733768367721717200,11.11771728515625,-0.8941028026431799,0.35090018081665036,-0.07651333083808422
1733768367731678200,11.12767822265625,-0.354043118484877,0.054009238085150714,-0.007014774132892489
1733768367741638400,11.137638427734375,0.09959438322875648,-0.3945943611145019,0.18000015492811797
1733768367751598300,11.147598388671875,0.509888965767622,-0.6770014359414577,0.4038572795003652
1733768367761559300,11.157559326171874,0.899825783399865,-0.7828355538100004,0.5318284834403544
1733768367771519500,11.16751953125,1.3216916708648203,-0.7390040108680724,0.5681154562216252
1733768367781479400,11.1774794921875,1.7321289132773876,-0.6360790584445,0.49157121878862375
1733768367791440100,11.187440185546874,1.9539491251945496,-0.4253068947643041,0.33971053215190766
1733768367801400300,11.197400390625,2.0454688865065576,-0.2763818231880665,0.0975084072675556
1733768367811360300,11.2073603515625,1.9908464849591254,-0.3367863152682781,-0.15898666605912148
1733768367821321200,11.2173212890625,1.7844219950944185,-0.5101970088034868,-0.2894396038122475
1733768367831281400,11.227281494140625,1.5113117409229277,-0.6783528505504131,-0.4460433202575892
1733768367841241300,11.237241455078125,1.2251344999074936,-0.7752537203788756,-0.7109126195020973
1733768367851202300,11.247202392578124,0.9722878660857677,-0.7582301048636436,-0.9583177929222583
1733768367861162500,11.25716259765625,0.6775164727915078,-0.6158744748055934,-1.1251397557169198
1733768367871122400,11.267122314453125,-0.24080372932851313,-0.454815313321352,-0.9508367164518684
1733768367881083100,11.277083251953124,-1.209992971811816,-0.28176293170452116,-0.5389637786803767
1733768367891043300,11.287043212890625,-1.5167396111905573,-0.3780044608414173,-0.4751152470935136
1733768367901003300,11.297003173828125,-1.9170874212652445,-0.7310936761349439,-0.3369962316919118
1733768367910964200,11.306964111328124,-2.2253952455461024,-0.8959107288479804,0.006721234546415507
1733768367920924400,11.31692431640625,-2.1570447628974914,-0.9662678751438856,0.3527501925975084
1733768367930884400,11.32688427734375,-1.906112438264489,-1.016174354085326,0.7599388084776699
1733768367940845300,11.33684521484375,-1.5253531257569788,-0.9791565828114748,1.0882682610459624
1733768367950805500,11.346805419921875,-1.052517514033243,-0.8046738761305808,1.1972849544733761
1733768367960765400,11.356765380859375,-0.5043845231324434,-0.5317600213140249,1.120477755255252
1733768367970726100,11.36672607421875,0.05584463681876659,-0.4138274693727493,0.9993617509722709
1733768367980686300,11.376686279296875,0.4365635442506522,-0.5580126529455185,0.8717880949825048
1733768367990646300,11.386646240234375,0.6916279271870851,-0.9021300417542457,0.7257317107103765
1733768368000607200,11.396607177734374,0.9240192174792289,-1.2017886956334114,0.524773523427546
1733768368010567400,11.4065673828125,1.0266712712455541,-1.3142320025086403,0.43575127801969643
1733768368020527400,11.41652734375,0.7938708156306297,-0.827902191504836,0.7404210380591452
1733768368030488300,11.42648828125,0.13996449713781475,0.5257002828836441,1.2697269442193209
1733768368040448500,11.436448486328125,-0.7483108414608984,2.732108503887057,1.0510947146885097
1733768368050408400,11.446408447265625,-0.9888193872351199,5.103319749078154,-1.3197995735079049
1733768368060369200,11.456369140625,-0.9540180499017238,5.781327147191763,-3.497732518394291
1733768368070329300,11.466329345703125,-0.9013672406882047,5.160090853092074,-4.467535874187946
1733768368080289300,11.476289306640625,-0.6509475417524576,3.666717504441738,-5.24971267182827
1733768368090250200,11.486250244140624,-0.5160469038754701,0.9966548301011323,-5.442352966490388
1733768368100210400,11.49621044921875,-0.005825381685234606,-1.3204700201153754,-5.371950227487087
1733768368110170400,11.50617041015625,0.3955412500431761,-2.476122402995825,-5.67834608066678
1733768368120131300,11.51613134765625,0.5280255474934354,-3.327764366528392,-5.872081184828281
1733768368130091500,11.526091552734375,0.9955237802445888,-3.654980889418721,-5.486514764299988
1733768368140051500,11.536051513671875,1.9478192441374063,-3.311974092200398,-5.113915377372503
1733768368150012200,11.54601220703125,3.4394641615599393,-2.11267896694839,-5.042206231945753
1733768368159972400,11.555972412109375,4.51939407171905,-0.10233750792443752,-4.982987150257825
1733768368169932300,11.565932373046875,4.7484728764623405,1.243655075982213,-4.5515988897532225
1733768368179893200,11.575893310546874,4.611703522104024,1.2082704588681459,-3.5319340632036327
1733768368189853400,11.585853515625,4.526414179614186,0.6632879678875208,-2.371106908033788
1733768368199813400,11.5958134765625,4.104242660266161,0.23021803790628909,-1.2518886513203382
1733768368209774300,11.6057744140625,3.501723926118016,0.08035188608765602,-0.275602217117697
1733768368219734500,11.615734619140625,2.7629385264366864,0.3447551021903753,0.6910379254046827
1733768368229694500,11.625694580078125,2.044918851408362,1.0146119270741938,1.7848416818112134
1733768368239655200,11.6356552734375,1.6044325076907873,1.503998787561059,2.961296029701829
1733768368249615400,11.645615478515625,1.4690017084598541,1.6467121450155973,4.032694550620019
1733768368259575300,11.6555751953125,2.402872457867861,2.0061936916947363,5.3896717621386045
1733768368269536300,11.665536376953124,1.7846248241901397,1.524838161972165,6.975096787020564
1733768368279496400,11.675496337890625,-0.624963863255456,0.6980483156234025,7.8278505111873145
1733768368289456400,11.685456298828125,-2.365318095499277,0.45146483384966846,7.139277879917621
1733768368299417300,11.695417236328124,-3.41657837601304,0.235781517252326,5.846711181250214
1733768368309377500,11.70537744140625,-3.803108673137426,-0.20103169091045855,4.495578019584715
1733768368319337500,11.71533740234375,-3.9841082143664357,-0.43252457105815406,3.6568092738896607
1733768368329298200,11.725298095703126,-3.958887263870239,-0.44652503935992716,2.799676019464433
1733768368339258400,11.73525830078125,-3.8957507164776324,-0.2822562681794166,2.0937707067303357
1733768368349219300,11.74521923828125,-3.7994858064651487,0.05844751279354095,1.3622940226271747
1733768368359179300,11.75517919921875,-3.6952304822206496,0.16908756963908672,0.5536965433120727
1733768368369139500,11.765139404296875,-3.4951275965929027,0.05008534263968467,-0.08961071282029151
1733768368379100400,11.775100341796875,-3.286259220707416,-0.375539532032609,-0.6061182199448347
1733768368389060400,11.785060302734376,-2.9263188243448734,-0.7990478529423475,-1.1577006206471472
1733768368399020500,11.7950205078125,-2.514953361171484,-0.8919710513114929,-1.5661492465257645
1733768368408981200,11.804981201171875,-2.148475671994686,-0.801305276480317,-2.090825300928205
1733768368418941200,11.814941162109376,-1.84897147802487,-0.6657184099048375,-2.339093813179433
1733768368428901400,11.8249013671875,-1.3143278640985487,-0.2878577414482832,-2.2106819527998565
1733768368438862300,11.8348623046875,-0.7878281014002859,0.15957272231876848,-1.762003242537379
1733768368448822300,11.844822265625,-0.4098692332662642,0.18654314683079717,-1.2567051116913557
1733768368458782500,11.854782470703125,0.1309855102598667,-0.11596095960736275,-0.7230860185071826
1733768368468743400,11.864743408203125,0.6568984129808842,-0.18603519730865956,-0.606256240176037
1733768368478703400,11.874703369140626,0.5836192417584359,-0.2141840179502964,-0.49453803270496427
1733768368488663600,11.88466357421875,0.03918853944167495,-0.22207740154862401,-0.09589527298249303
1733768368498624300,11.894624267578125,-0.7532664911068976,0.21716975576281547,0.28130853900052605
1733768368508584200,11.904584228515626,-1.3567515860691666,0.601462503093481,0.8817897029064595
1733768368518544400,11.91454443359375,-1.8014453183487056,1.2139455818951128,1.8728490510880946
1733768368528505300,11.92450537109375,-2.2154083967998623,1.9660937364965676,2.8788807813435793
1733768368538466000,11.934466064453124,-2.565228088903427,2.6133400856435296,3.7082916238456964
1733768368548426000,11.944426025390625,-2.8771590721175073,3.3958880546838044,4.254930065339804
1733768368558386700,11.95438671875,-3.3292709716990587,4.867397946572304,4.126144987733662
1733768368568347000,11.964346923828124,-3.666880878309905,6.456188648495078,3.048563102005422
1733768368578306800,11.974306884765625,-3.8392704121038315,7.255221888390183,1.3127518469534813
1733768368588267800,11.984267822265625,-3.9718814777389166,6.678244422733783,-0.8173554438535123
1733768368598228000,11.99422802734375,-4.272073215581476,4.655629173070192,-2.704553265224397
1733768368608188000,12.00418798828125,-4.5966602667510505,3.0159821441352364,-4.031229738764464
1733768368618148900,12.01414892578125,-4.563737655836343,1.980126938024163,-4.702178450538217
1733768368628109000,12.024109130859374,-4.103357694125175,0.7188035188823938,-4.874546357022226
1733768368638069000,12.034069091796875,-3.096626291167736,-0.3114730103135109,-4.47301109072864
1733768368648029700,12.04402978515625,-2.078081846950203,-1.100905478170514,-3.428834046474099
1733768368657990000,12.053989990234374,-1.1461867815293372,-1.3817863663434982,-2.546475457638502
1733768368667949800,12.06394970703125,-0.31816110977530476,-1.2087708096057175,-1.8569832273058593
1733768368677910800,12.073910888671875,0.611218136899732,-0.6588286503911018,-1.2215781226001678
1733768368687871000,12.08387109375,1.401484754025936,-0.001371288353204727,-0.6919828781045972
1733768368697831000,12.093830810546875,2.1649556821525096,0.5709767639368772,-0.1232989012800157
1733768368707792000,12.1037919921875,2.980235123449564,1.0194394933611155,0.5602081171631813
1733768368717752000,12.113751953125,3.5438662007987496,1.2596107700049877,0.67827481687814
1733768368727712000,12.1237119140625,3.9914451331257816,1.218654490238428,0.6004952654965221
1733768368737672700,12.133672607421875,4.616884724134207,0.6796218475729227,0.7138938272699713
1733768368747633000,12.1436328125,4.690025363668799,-0.24828794760406017,1.1133698229461908
1733768368757592800,12.1535927734375,4.300156277510523,-1.0198533348590135,1.5175053348660468
1733768368767553800,12.1635537109375,3.6317414681285616,-1.5771920340657233,1.864537003686279
1733768368777514000,12.173513916015626,3.051332858979702,-1.8238965118706225,2.086592924055457
1733768368787474000,12.183473876953125,2.527428811863065,-1.853198594200611,2.3800128296755254
1733768368797435000,12.193434814453125,2.022974146103859,-1.8641244773626326,2.542130414171517
1733768368807395000,12.20339501953125,1.625406906658411,-1.7057856807529925,2.4072728847838936
1733768368817355000,12.21335498046875,1.1953700607627629,-1.4519956286013125,1.9907855485521255
1733768368827315700,12.223315673828125,0.8924006749004125,-1.1774071185708046,1.5211452988035976
1733768368837276000,12.23327587890625,0.6512737049669027,-0.9823165081471205,1.048900419514626
1733768368847235800,12.24323583984375,0.4709762475926429,-0.8057745308488607,0.5610036514550447
1733768368857196800,12.25319677734375,0.40418052010536193,-0.7247703183323144,0.1205175269331783
1733768368867157000,12.263156982421876,0.47981765263080595,-0.6753314569026231,-0.3225081990689039
1733768368877117000,12.273116943359375,0.6874322290629148,-0.602175035277009,-0.8192595969744026
1733768368887078000,12.283077880859375,0.6776654528081417,-0.4935784669578075,-1.264654609391093
1733768368897038000,12.2930380859375,0.6942237888991832,-0.3508335453212261,-1.6603538630075751
1733768368906998000,12.302998046875,0.7132628358900547,-0.15804244401156903,-1.9977252846874296
1733768368916958700,12.312958740234375,0.8018442056626081,0.13991349760293958,-2.2760206864118575
1733768368926919000,12.3229189453125,0.9529232404023409,0.32319267420172687,-2.552830671884119
1733768368936878800,12.33287890625,1.0254548811931163,0.23221418015956877,-2.757979442724585
1733768368946839800,12.34283984375,0.9899690687268972,-0.0009948562562465666,-2.924530771884322
1733768368956799700,12.3527998046875,0.7972451874345541,-0.34081484013199803,-3.001575433120131
1733768368966760000,12.362760009765625,0.6291477978765964,-0.48657998637259003,-2.899754642546177
1733768368976721000,12.372720947265625,0.395214063915424,-0.6939297743886709,-2.756691741001606
1733768368986680800,12.382680908203126,-0.2077694016676396,-0.8894096763908863,-2.3700106372296807
1733768368996641000,12.39264111328125,-1.1097311741828917,-0.8700035496532916,-1.9839248690024016
1733768369006601700,12.402601806640625,-2.8771161097586155,-0.5169043974876404,-1.4255531734861433
1733768369016561700,12.412561767578126,-3.627680794560909,-0.2973953851222992,-1.153733032190427
1733768369026521900,12.42252197265625,-2.6970395285934208,-0.654648734357953,-0.9251522400971501
1733768369036482800,12.43248291015625,-1.9859891080558298,-1.1231120492815971,-0.41751982108466323
1733768369046442800,12.44244287109375,-0.6452589747220278,-0.3834142109304666,-1.022923097693175
1733768369056403000,12.45240283203125,0.6518151183672249,-0.37069384556710716,-0.7586861780680716
1733768369066364000,12.462364013671875,1.1932769609410314,-0.6695645639389753,-0.3298940350038931
1733768369076323800,12.47232373046875,1.209988441767171,-0.8194166872322559,0.10239796940740198
1733768369086284000,12.482283935546874,1.2626812634915112,-1.1767588837951422,0.6231468769613653
1733768369096244700,12.49224462890625,1.0945915457833557,-1.0403267985671758,1.072509770095721
1733768369106204700,12.50220458984375,0.6773323483962566,-0.9088105424314736,1.6226296970300376
1733768369116164900,12.512164794921874,0.034275779089331625,-0.7369564306885004,2.1831901347622273
1733768369126125800,12.522125732421875,-0.3176270028986037,-0.6442623649001121,2.276202911110967
1733768369136085800,12.532085693359376,-0.42301045439019797,-0.5393886164963245,2.0173305872589347
