time,seconds_elapsed,z,y,x
1733768356635898400,0.0318984375,0.04721338301897049,-0.21018977463245392,-0.031300466507673264
1733768356645858300,0.0418583984375,0.03956285119056702,-0.21021655201911926,-0.02216142788529396
1733768356655818500,0.051818603515625,0.029857756569981575,-0.22244444489479065,-0.017504625022411346
1733768356665778400,0.0617783203125,0.027341818436980247,-0.2223292887210846,-0.013796485960483551
1733768356675739400,0.071739501953125,0.013665420934557915,-0.2327430546283722,-0.011822018772363663
1733768356685699600,0.081699462890625,0.0038908924907445908,-0.23902185261249542,-0.020496340468525887
1733768356695659500,0.091659423828125,0.008100018836557865,-0.21287600696086884,-0.04657268524169922
1733768356705619500,0.101619384765625,0.004880746826529503,-0.18326236307621002,-0.07894428819417953
1733768356715580400,0.111580322265625,0.0026069399900734425,-0.13002310693264008,-0.0998130813241005
1733768356725540400,0.121540283203125,-0.002760478062555194,-0.09152935445308685,-0.10674181580543518
1733768356735500300,0.131500244140625,0.0016798102296888828,-0.07701326161623001,-0.11403435468673706
1733768356745460500,0.14146044921875,0.012677473947405815,-0.09127584099769592,-0.12421435862779617
1733768356755421400,0.15142138671875,0.024606304243206978,-0.13454820215702057,-0.14131905138492584
1733768356765381400,0.16138134765625,0.046889420598745346,-0.17882949113845825,-0.13515034317970276
1733768356775341600,0.171341552734375,0.06364522874355316,-0.2219255566596985,-0.15044088661670685
1733768356785301500,0.181301513671875,0.0876733735203743,-0.24596305191516876,-0.16852356493473053
1733768356795262500,0.191262451171875,0.10875682532787323,-0.25242123007774353,-0.17464883625507355
1733768356805222400,0.201222412109375,0.11690840870141983,-0.26294055581092834,-0.178855299949646
1733768356815182300,0.211182373046875,0.10154862701892853,-0.28743550181388855,-0.17460890114307404
1733768356825142300,0.221142333984375,0.08671994507312775,-0.3122515380382538,-0.1599646359682083
1733768356835103500,0.231103515625,0.05186875909566879,-0.361370325088501,-0.13603267073631287
1733768356845063400,0.2410634765625,0.03133063390851021,-0.3650335669517517,-0.12169985473155975
1733768356855023400,0.2510234375,0.03097216971218586,-0.3517449200153351,-0.11515646427869797
1733768356864983300,0.2609833984375,0.040659308433532715,-0.3222677707672119,-0.11123091727495193
1733768356874944500,0.270944580078125,0.05474689602851868,-0.2752544581890106,-0.1084391251206398
1733768356884904400,0.280904541015625,0.0631038099527359,-0.2288263440132141,-0.11032649129629135
1733768356894864400,0.290864501953125,0.07370345294475555,-0.19712939858436584,-0.10512027889490128
1733768356904824600,0.300824462890625,0.05785239860415459,-0.18824335932731628,-0.08490119129419327
1733768356914785300,0.310785400390625,0.020429661497473717,-0.2324126958847046,-0.06651419401168823
1733768356924745200,0.3207451171875,-0.005522086285054684,-0.27585119009017944,-0.058405570685863495
1733768356934705400,0.330705322265625,-0.024231325834989548,-0.32426294684410095,-0.048841893672943115
1733768356944666400,0.340666259765625,-0.032669901847839355,-0.34235626459121704,-0.06083241105079651
1733768356954626300,0.350626220703125,-0.02890845388174057,-0.3311459422111511,-0.08111424744129181
1733768356964586500,0.36058642578125,-0.03385750949382782,-0.34633880853652954,-0.10855899006128311
1733768356974546400,0.37054638671875,-0.03197412192821503,-0.36270153522491455,-0.13355836272239685
1733768356984506400,0.38050634765625,-0.029770852997899055,-0.38003239035606384,-0.1621631681919098
1733768356994467600,0.390467529296875,-0.03261883556842804,-0.3970281481742859,-0.18371054530143738
1733768357004427500,0.400427490234375,-0.028103217482566833,-0.41016972064971924,-0.19338707625865936
1733768357014387500,0.410387451171875,-0.038286082446575165,-0.3832337260246277,-0.20055709779262543
1733768357024348400,0.420348388671875,-0.05992639809846878,-0.34195151925086975,-0.1884586215019226
1733768357034308400,0.430308349609375,-0.08544081449508667,-0.33136439323425293,-0.17210735380649567
1733768357044268300,0.440268310546875,-0.09319092333316803,-0.3205723762512207,-0.13652943074703217
1733768357054228200,0.450228271484375,-0.08861534297466278,-0.37153008580207825,-0.08595573157072067
1733768357064189400,0.460189453125,-0.0880240648984909,-0.5489622354507446,-0.028550593182444572
1733768357074149400,0.4701494140625,-0.051005326211452484,-0.7284942269325256,0.047501031309366226
1733768357084109300,0.480109375,0.0015004882588982582,-0.8715850114822388,0.1276436448097229
1733768357094069500,0.490069580078125,0.015480220317840576,-0.9427223205566406,0.191295325756073
1733768357104030500,0.500030517578125,0.016353141516447067,-0.9606173038482666,0.25189724564552307
1733768357113990400,0.509990478515625,0.008137023076415062,-0.9471281170845032,0.2909485101699829
1733768357123950600,0.51995068359375,-0.012279631569981575,-0.8571006059646606,0.322448194026947
1733768357133910500,0.52991064453125,-0.04985576868057251,-0.7508823275566101,0.36325502395629883
1733768357143871200,0.539871337890625,-0.11489397287368774,-0.619204580783844,0.4250566065311432
1733768357153831400,0.54983154296875,-0.1621807962656021,-0.5055469870567322,0.4323856234550476
1733768357163791400,0.559791259765625,-0.18059712648391724,-0.36709848046302795,0.3522116243839264
1733768357173751300,0.569751220703125,-0.1847894787788391,-0.1468649059534073,0.28164106607437134
1733768357183712500,0.57971240234375,-0.13406261801719666,-0.32629889249801636,0.026047833263874054
1733768357193672400,0.58967236328125,0.009653538465499878,-0.2692015469074249,-0.07853689789772034
1733768357203632400,0.59963232421875,0.14063003659248352,0.5306347012519836,-0.16241689026355743
1733768357213592300,0.60959228515625,0.4026421904563904,0.9099130630493164,-0.21623431146144867
1733768357223553500,0.619553466796875,0.6492846608161926,0.8989383578300476,-0.1455785483121872
1733768357233513500,0.629513427734375,0.6478177905082703,1.1690055131912231,-0.13042916357517242
1733768357243473400,0.639473388671875,0.4264189898967743,1.2695914506912231,-0.03213823214173317
1733768357253433300,0.649433349609375,0.16541507840156555,1.4101762771606445,-0.004159593489021063
1733768357263394300,0.659394287109375,0.07196281105279922,1.308409333229065,0.010401365347206593
1733768357273354200,0.669354248046875,0.12707799673080444,1.058462381362915,0.03870996832847595
1733768357283314400,0.679314453125,0.23074230551719666,0.8014096021652222,0.0005895472131669521
1733768357293274400,0.6892744140625,0.3163996934890747,0.5898252129554749,-0.06756793707609177
1733768357303235300,0.6992353515625,0.372430682182312,0.4764598309993744,-0.13916710019111633
1733768357313195500,0.709195556640625,0.44461992383003235,0.3998209834098816,-0.13668078184127808
1733768357323155500,0.719155517578125,0.5676651000976562,0.2671980857849121,-0.1025991439819336
1733768357333115400,0.729115478515625,0.6747944355010986,0.23215408623218536,-0.04703868180513382
1733768357343076400,0.739076416015625,0.7202376127243042,0.20625291764736176,0.019415410235524178
1733768357353036300,0.749036376953125,0.7168498039245605,0.1213390976190567,0.08950182050466537
1733768357362996200,0.758996337890625,0.6884733438491821,0.022449439391493797,0.20277437567710876
1733768357372956400,0.768956298828125,0.6560890078544617,-0.09823383390903473,0.2744045853614807
1733768357382917400,0.77891748046875,0.6387970447540283,-0.26209133863449097,0.3167760372161865
1733768357392877300,0.788877197265625,0.6240503191947937,-0.44490882754325867,0.3712669610977173
1733768357402837500,0.79883740234375,0.5824593901634216,-0.611064612865448,0.427509069442749
1733768357412797400,0.80879736328125,0.5077095031738281,-0.6574957370758057,0.446675568819046
1733768357422758400,0.81875830078125,0.4637146294116974,-0.6002864837646484,0.44156765937805176
1733768357432718600,0.828718505859375,0.459407776594162,-0.4737527668476105,0.41074129939079285
1733768357442678500,0.838678466796875,0.4793698191642761,-0.2620406746864319,0.322376012802124
1733768357452638500,0.848638427734375,0.5467318296432495,-0.0544467531144619,0.1931391805410385
1733768357462599400,0.858599365234375,0.6774153709411621,0.207193523645401,0.02930038422346115
1733768357472559400,0.868559326171875,0.8057304620742798,0.5431371927261353,-0.1629079431295395
1733768357482519300,0.878519287109375,0.948269248008728,0.8782591223716736,-0.3430808484554291
1733768357492480500,0.88848046875,1.0532417297363281,1.000361680984497,-0.6055316925048828
1733768357502440400,0.8984404296875,1.1175556182861328,0.9142811298370361,-0.9356111884117126
1733768357512400400,0.908400390625,1.1870659589767456,0.8244537711143494,-1.0715216398239136
1733768357522361000,0.918361083984375,1.2336061000823975,0.9352031350135803,-0.09500601887702942
1733768357532322000,0.928322021484375,1.075243592262268,0.1910163313150406,0.3103606402873993
1733768357542282000,0.938281982421875,0.7465957403182983,-0.7431347370147705,-1.1168147325515747
1733768357552242000,0.948241943359375,0.39038407802581787,0.0303907860070467,-1.5941804647445679
1733768357562202000,0.9582021484375,0.2013821005821228,1.821649193763733,-1.099907636642456
1733768357572163000,0.9681630859375,0.22906139492988586,3.294426918029785,-0.778724730014801
1733768357582123000,0.978123046875,0.22153015434741974,3.8603463172912598,-0.8794162273406982
1733768357592083200,0.988083251953125,-0.03483425825834274,3.901978015899658,-0.9366843104362488
1733768357602043100,0.998043212890625,-0.41171491146087646,3.6012985706329346,-0.8783953189849854
1733768357612004000,1.008004150390625,-0.7938889265060425,3.0694267749786377,-0.7795499563217163
1733768357621964300,1.01796435546875,-1.2496922016143799,2.2629547119140625,-0.6667689681053162
1733768357631924200,1.02792431640625,-1.7809706926345825,1.283481240272522,-0.3971193730831146
1733768357641884200,1.03788427734375,-2.243861436843872,0.35012444853782654,-0.016718102619051933
1733768357651845000,1.04784521484375,-2.71830415725708,-0.5551119446754456,0.27536433935165405
1733768357661805000,1.05780517578125,-3.0714528560638428,-1.485357642173767,0.32461029291152954
1733768357671765000,1.067764892578125,-3.045764446258545,-2.7468879222869873,-0.017565177753567696
1733768357681725000,1.077724853515625,-2.4664487838745117,-3.5965099334716797,-0.8945083022117615
1733768357691686100,1.08768603515625,-1.567883849143982,-3.837383508682251,-1.798806071281433
1733768357701646000,1.09764599609375,-0.7484132051467896,-3.6072046756744385,-2.242856740951538
1733768357711606000,1.10760595703125,-0.4685821235179901,-1.4648112058639526,-1.6972806453704834
1733768357721566200,1.117566162109375,-0.46133744716644287,0.8160837888717651,-0.7308334112167358
1733768357731527200,1.127527099609375,-0.06190164014697075,0.6630279421806335,-0.6585283279418945
1733768357741487000,1.137487060546875,0.48044970631599426,0.029463689774274826,-0.7596376538276672
1733768357751447300,1.147447265625,0.831835925579071,-0.386197954416275,-0.6288162469863892
1733768357761408000,1.157407958984375,1.0370709896087646,-0.5284820795059204,-0.3455903232097626
1733768357771368000,1.167367919921875,1.23743736743927,-0.7080300450325012,-0.20882394909858704
1733768357781328100,1.177328125,1.3434041738510132,-0.8222899436950684,-0.2321087270975113
1733768357791288000,1.1872880859375,1.2087219953536987,-0.6986865401268005,-0.39672163128852844
1733768357801249000,1.1972490234375,0.9663322567939758,-0.4235911965370178,-0.6013931632041931
1733768357811209200,1.207209228515625,0.7175589799880981,-0.1712859719991684,-0.8807321190834045
1733768357821169200,1.217169189453125,0.6979309320449829,0.017836539074778557,-1.0357643365859985
1733768357831129000,1.227129150390625,0.6450527906417847,0.21914808452129364,-1.2097039222717285
1733768357841090300,1.23709033203125,0.30080512166023254,0.16427449882030487,-1.376025915145874
1733768357851050200,1.24705029296875,-0.06571962684392929,0.08415702730417252,-1.3489210605621338
1733768357861010200,1.25701025390625,-0.2921660244464874,0.048028700053691864,-1.1912606954574585
1733768357870970000,1.26697021484375,-0.46504032611846924,0.0926760584115982,-1.02176833152771
1733768357880931000,1.27693115234375,-0.6068260669708252,0.09161122143268585,-0.8701848983764648
1733768357890891000,1.28689111328125,-0.6673442721366882,0.029215488582849503,-0.6969960331916809
1733768357900851000,1.296850830078125,-0.6565544009208679,-0.08847019821405411,-0.5397473573684692
1733768357910811100,1.30681103515625,-0.6096406579017639,-0.21185657382011414,-0.47260990738868713
1733768357920772000,1.316772216796875,-0.5725938677787781,-0.3401429057121277,-0.5195674896240234
1733768357930732000,1.32673193359375,-0.5631758570671082,-0.43253302574157715,-0.6286484599113464
1733768357940692200,1.336692138671875,-0.5766915082931519,-0.4436720609664917,-0.7347216010093689
1733768357950652200,1.346652099609375,-0.5940790176391602,-0.41760504245758057,-0.8071313500404358
1733768357960613000,1.356613037109375,-0.58064866065979,-0.3487527370452881,-0.8734270334243774
1733768357970573300,1.3665732421875,-0.5516924262046814,-0.22260944545269012,-0.9566987156867981
1733768357980533200,1.376533203125,-0.5121592879295349,-0.052712418138980865,-1.023472785949707
1733768357990494000,1.386493896484375,-0.47173571586608887,0.10827913135290146,-1.0129170417785645
1733768358000454100,1.3964541015625,-0.4397888481616974,0.22516772150993347,-0.9101995229721069
1733768358010414000,1.4064140625,-0.3816336691379547,0.16917289793491364,-0.7434449195861816
1733768358020374000,1.4163740234375,-0.2598282992839813,-0.04933200031518936,-0.5064729452133179
1733768358030335200,1.426335205078125,-0.0635266825556755,-0.3343959450721741,-0.17489904165267944
1733768358040295200,1.436295166015625,0.12943080067634583,-0.5777585506439209,0.2235197126865387
1733768358050255000,1.446255126953125,0.2858283817768097,-0.6969656348228455,0.6028971672058105
1733768358060215000,1.456215087890625,0.5276203751564026,-0.601283848285675,0.8832014799118042
1733768358070176000,1.466176025390625,0.7527046203613281,-0.225859135389328,1.0142241716384888
1733768358080136000,1.476135986328125,0.879331648349762,0.3732871413230896,0.9151925444602966
1733768358090095900,1.486095947265625,0.8532739877700806,0.9055851101875305,0.5223578810691833
1733768358100056000,1.49605615234375,0.7910390496253967,1.3918284177780151,-0.08031350374221802
1733768358110017000,1.50601708984375,0.8543764352798462,1.8367971181869507,-0.7022292613983154
1733768358119977000,1.51597705078125,0.6342960596084595,1.7949827909469604,-1.3007985353469849
1733768358129937200,1.525937255859375,0.438062846660614,1.191922664642334,-1.7567404508590698
1733768358139898000,1.535898193359375,0.3210459053516388,0.2520906925201416,-1.9424015283584595
1733768358149858000,1.545858154296875,0.15789851546287537,-0.660462498664856,-1.8213281631469727
1733768358159818200,1.555818359375,-0.006265915930271149,-1.3723453283309937,-1.4704127311706543
1733768358169778200,1.565778076171875,-0.1352747678756714,-1.8168195486068726,-1.0740203857421875
1733768358179739000,1.57573876953125,-0.27387845516204834,-2.045351505279541,-0.7759523391723633
1733768358189699000,1.585698974609375,-0.3949766457080841,-2.06687068939209,-0.6264925599098206
1733768358199659000,1.595658935546875,-0.5151329040527344,-1.9077481031417847,-0.6116883754730225
1733768358209619000,1.605618896484375,-0.5814924836158752,-1.5814757347106934,-0.6807186007499695
1733768358219580200,1.615580078125,-0.6154501438140869,-1.1119216680526733,-0.7493084073066711
1733768358229540000,1.6255400390625,-0.6724817156791687,-0.5407774448394775,-0.7179515361785889
1733768358239500000,1.6355,-0.7395650148391724,-0.007506322115659714,-0.5606356263160706
1733768358249460200,1.645460205078125,-0.7103280425071716,0.3760589361190796,-0.36183303594589233
1733768358259421200,1.655421142578125,-0.5499149560928345,0.5732647180557251,-0.18544042110443115
1733768358269381000,1.665381103515625,-0.3272446393966675,0.5884948372840881,-0.03364556282758713
1733768358279341300,1.67534130859375,-0.130980983376503,0.49565601348876953,0.08569075912237167
1733768358289302000,1.685302001953125,-0.028709210455417633,0.3727433979511261,0.18210704624652863
1733768358299262000,1.695261962890625,0.003969866782426834,0.2179618924856186,0.28013601899147034
1733768358309222100,1.70522216796875,0.034967996180057526,0.05513569340109825,0.3886728882789612
1733768358319182000,1.71518212890625,0.09116870909929276,-0.16849853098392487,0.4953330159187317
1733768358329143000,1.72514306640625,0.1390150636434555,-0.42923983931541443,0.5871263146400452
1733768358339103200,1.735103271484375,0.1576639711856842,-0.6506622433662415,0.6687914133071899
1733768358349063200,1.745063232421875,0.16745135188102722,-0.7661222815513611,0.7671651244163513
1733768358359023000,1.755023193359375,0.16344065964221954,-0.7661715745925903,0.8603152632713318
1733768358368984300,1.764984375,0.1514873206615448,-0.6171813011169434,0.9418191909790039
1733768358378944300,1.7749443359375,0.16202077269554138,-0.2906968593597412,1.0091192722320557
1733768358388904200,1.784904296875,0.12008796632289886,0.0731402263045311,1.067081332206726
1733768358398865200,1.794865234375,0.07702349126338959,0.43887844681739807,1.140950083732605
1733768358408825000,1.8048251953125,0.09907659888267517,0.8121412396430969,1.2239872217178345
1733768358418785000,1.814784912109375,0.15086747705936432,1.1597037315368652,1.2684264183044434
1733768358428745000,1.824744873046875,0.17909671366214752,1.4605400562286377,1.2777268886566162
1733768358438706200,1.8347060546875,0.1864977777004242,1.6078705787658691,1.2379108667373657
1733768358448666000,1.844666015625,0.2003757804632187,1.651937484741211,1.1556622982025146
1733768358458626000,1.8546259765625,0.22178944945335388,1.6107819080352783,1.0473419427871704
1733768358468586200,1.864586181640625,0.24111761152744293,1.483235239982605,0.9199162721633911
1733768358478547200,1.874547119140625,0.2425966113805771,1.3771151304244995,0.7940940856933594
1733768358488507100,1.884507080078125,0.21794240176677704,1.3901365995407104,0.6833968758583069
1733768358498467300,1.89446728515625,0.24584218859672546,1.4170833826065063,0.5650507211685181
1733768358508428000,1.904427978515625,0.3014082610607147,1.4222368001937866,0.4319264590740204
1733768358518388000,1.914387939453125,0.34553956985473633,1.4509074687957764,0.3374883532524109
1733768358528347600,1.92434765625,0.36043810844421387,1.4409130811691284,0.28105276823043823
1733768358538307600,1.9343076171875,0.36322569847106934,1.3925585746765137,0.2628134489059448
1733768358548268800,1.944268798828125,0.3477122485637665,1.309141993522644,0.2816776931285858
1733768358558228700,1.954228759765625,0.32498958706855774,1.2011425495147705,0.29517054557800293
1733768358568188700,1.964188720703125,0.30041661858558655,1.098372220993042,0.2926991283893585
1733768358578148900,1.97414892578125,0.2873704433441162,1.0554622411727905,0.27628612518310547
1733768358588109800,1.98410986328125,0.2821791470050812,0.9508492946624756,0.21699777245521545
1733768358598069800,1.99406982421875,0.28428298234939575,0.8211199641227722,0.15383343398571014
1733768358608030000,2.004030029296875,0.2924245595932007,0.7321730256080627,0.09767800569534302
1733768358617990700,2.01399072265625,0.32850924134254456,0.6029643416404724,0.023244695737957954
1733768358627950600,2.02395068359375,0.3514763414859772,0.4412614703178406,-0.04876478388905525
1733768358637910800,2.033910888671875,0.37585005164146423,0.23347458243370056,-0.13828624784946442
1733768358647870700,2.04387060546875,0.36309725046157837,0.10166329890489578,-0.20642003417015076
1733768358657831700,2.053831787109375,0.37697193026542664,-0.024026207625865936,-0.25757893919944763
1733768358667792000,2.0637919921875,0.4596034288406372,0.010233229026198387,-0.18662355840206146
1733768358677751800,2.073751708984375,0.5669342279434204,0.2985341250896454,0.01228963490575552
1733768358687711700,2.083711669921875,0.6204333901405334,0.4057420492172241,0.047731246799230576
1733768358697673000,2.0936728515625,0.6629523038864136,0.12889081239700317,-0.07945678383111954
1733768358707633000,2.1036328125,0.6828575730323792,-0.22888757288455963,-0.14815089106559753
1733768358717592800,2.1135927734375,0.664130449295044,-0.5877596735954285,-0.1469496637582779
1733768358727553800,2.1235537109375,0.5984910130500793,-0.9560673832893372,-0.17864634096622467
1733768358737513700,2.133513671875,0.5501176714897156,-1.3222644329071045,-0.24366676807403564
1733768358747473700,2.1434736328125,0.5451357364654541,-1.5763722658157349,-0.31912052631378174
1733768358757433600,2.15343359375,0.5483361482620239,-1.639503002166748,-0.385347455739975
1733768358767394800,2.163394775390625,0.49643561244010925,-1.487839937210083,-0.4297836124897003
1733768358777354800,2.173354736328125,0.38248568773269653,-1.1317640542984009,-0.40039315819740295
1733768358787314700,2.183314697265625,0.2554909884929657,-0.6887620687484741,-0.30602139234542847
1733768358797276000,2.19327587890625,0.15896736085414886,-0.28886765241622925,-0.20802153646945953
1733768358807235800,2.20323583984375,0.10732121020555496,0.11263184249401093,-0.13954900205135345
1733768358817195800,2.21319580078125,0.18217624723911285,0.6452481746673584,-0.23363390564918518
1733768358827155700,2.22315576171875,0.41789183020591736,1.634397029876709,-0.6055049300193787
1733768358837116700,2.23311669921875,0.5531291365623474,3.443204164505005,-0.8954759240150452
1733768358847076600,2.24307666015625,0.24962227046489716,3.549177885055542,-1.6015493869781494
1733768358857036800,2.253036865234375,0.20938482880592346,3.1752634048461914,-1.5981576442718506
1733768358866996700,2.262996826171875,0.35142290592193604,2.965221881866455,-0.8375816941261292
1733768358876957700,2.272957763671875,0.5763077735900879,2.8222527503967285,0.22323928773403168
1733768358886918000,2.28291796875,0.847301185131073,2.3574702739715576,1.0707184076309204
1733768358896877800,2.2928779296875,0.8068968057632446,1.2133562564849854,1.4778038263320923
1733768358906838500,2.302838623046875,0.41580572724342346,-0.6591999530792236,1.5430684089660645
1733768358916798700,2.312798828125,-0.06833617389202118,-2.4117724895477295,1.3027215003967285
1733768358926758700,2.322758544921875,-0.4186062812805176,-3.457202434539795,0.9158113598823547
1733768358936718600,2.332718505859375,-0.5651399493217468,-4.057093143463135,0.5216020941734314
1733768358946679800,2.3426796875,-0.6210618019104004,-4.069265842437744,0.23251411318778992
1733768358956639700,2.3526396484375,-0.575890839099884,-3.682288408279419,-0.04633330926299095
1733768358966599700,2.362599609375,-0.45711785554885864,-2.9375674724578857,-0.40673887729644775
1733768358976561000,2.372560791015625,-0.3190104365348816,-2.3316800594329834,-0.730914294719696
1733768358986520800,2.382520751953125,-0.21917040646076202,-1.825038194656372,-0.9518429636955261
1733768358996480800,2.392480712890625,-0.18689729273319244,-1.4600048065185547,-1.0918744802474976
1733768359006440700,2.402440673828125,-0.2288157194852829,-1.138322114944458,-1.1731866598129272
1733768359016401700,2.412401611328125,-0.3309732973575592,-0.7182602882385254,-1.2073193788528442
1733768359026361600,2.422361572265625,-0.4106729030609131,-0.05427592247724533,-1.2582927942276
1733768359036321500,2.432321533203125,-0.4321770668029785,0.6998192071914673,-1.394829511642456
1733768359046281700,2.44228173828125,-0.44755974411964417,1.3736701011657715,-1.4948639869689941
1733768359056242700,2.45224267578125,-0.5425146818161011,1.826209545135498,-1.6823492050170898
1733768359066202600,2.46220263671875,-0.6676891446113586,2.1112380027770996,-1.9589309692382812
1733768359076162800,2.472162841796875,-0.6446549296379089,2.230173110961914,-2.145552158355713
1733768359086123800,2.482123779296875,-0.4794960618019104,2.175109624862671,-2.172888994216919
1733768359096083700,2.492083740234375,-0.2701770067214966,1.8772387504577637,-2.0629634857177734
1733768359106044000,2.5020439453125,-0.08577625453472137,1.4621284008026123,-1.848744511604309
1733768359116003800,2.51200390625,0.08225711435079575,0.9977843761444092,-1.6280789375305176
1733768359125964500,2.521964599609375,0.16736401617527008,0.5793644785881042,-1.3955692052841187
1733768359135924700,2.5319248046875,0.20972424745559692,0.3719295561313629,-1.1920109987258911
1733768359145884700,2.541884765625,0.23181010782718658,0.4150458574295044,-1.0152359008789062
1733768359155845600,2.551845703125,0.2122105360031128,0.6483388543128967,-0.7686124444007874
1733768359165805800,2.561805908203125,0.17473852634429932,0.8386898636817932,-0.449607789516449
1733768359175765800,2.571765869140625,0.16179592907428741,0.8167020678520203,-0.15377691388130188
1733768359185725700,2.5817255859375,0.15578970313072205,0.6123214960098267,0.06891421973705292
1733768359195687000,2.59168701171875,0.15505047142505646,0.3294820189476013,0.27121037244796753
1733768359205646800,2.601646728515625,0.14364974200725555,0.013513121753931046,0.47940191626548767
1733768359215606800,2.611606689453125,0.1411331743001938,-0.27088451385498047,0.6403085589408875
1733768359225567700,2.621567626953125,0.18785832822322845,-0.4694860279560089,0.6868968605995178
1733768359235527700,2.631527587890625,0.23754404485225677,-0.5100036859512329,0.6114331483840942
1733768359245487600,2.641487548828125,0.23867322504520416,-0.5076159238815308,0.4031960070133209
1733768359255447600,2.651447509765625,0.15116247534751892,-0.48199695348739624,0.05230128765106201
1733768359265408800,2.66140869140625,0.08570064604282379,-0.30107003450393677,-0.3386824429035187
1733768359275368700,2.67136865234375,0.07607245445251465,0.04675621911883354,-0.7024112939834595
1733768359285328600,2.68132861328125,0.07268092036247253,0.55967116355896,-0.9454466104507446
1733768359295289900,2.691289794921875,0.02716171368956566,1.2173831462860107,-1.062210202217102
1733768359305249800,2.701249755859375,-0.03607238456606865,1.9278985261917114,-1.077589511871338
1733768359315209700,2.711209716796875,-0.13070645928382874,2.5594568252563477,-1.0705223083496094
1733768359325170000,2.721169921875,-0.23352205753326416,2.8957371711730957,-1.0704692602157593
1733768359335130600,2.731130615234375,-0.24403038620948792,2.915943145751953,-1.0651363134384155
1733768359345090600,2.741090576171875,-0.20634211599826813,2.5747337341308594,-1.1283189058303833
1733768359355050800,2.75105078125,-0.14911311864852905,2.008533477783203,-1.062079906463623
1733768359365010700,2.7610107421875,-0.08187068998813629,1.532279372215271,-0.5786448121070862
1733768359374971600,2.7709716796875,0.12483615428209305,1.2548456192016602,0.271066814661026
1733768359384931800,2.780931884765625,0.5056291222572327,1.1840531826019287,1.0355244874954224
1733768359394891800,2.790891845703125,0.9000599384307861,1.1868911981582642,1.518239974975586
1733768359404852700,2.800852783203125,1.1886447668075562,1.2307066917419434,1.6635899543762207
1733768359414813000,2.81081298828125,1.1324228048324585,1.1743634939193726,1.378993272781372
1733768359424772900,2.82077294921875,0.7221502661705017,1.123883605003357,0.7370738387107849
1733768359434732800,2.83073291015625,0.32406726479530334,0.9620150923728943,-0.009360676631331444
1733768359444693800,2.84069384765625,0.35383129119873047,0.3538888692855835,-0.7931199073791504
1733768359454653700,2.85065380859375,0.3858373165130615,-0.2138771265745163,-1.0446996688842773
1733768359464613600,2.860613525390625,0.11937712132930756,-0.30601608753204346,-0.6751236915588379
1733768359474574800,2.870574951171875,-0.2041235715150833,-0.18534134328365326,-0.08406221866607666
1733768359484534800,2.88053466796875,-0.49305418133735657,-0.14421121776103973,0.4357104003429413
1733768359494494700,2.89049462890625,-0.6429335474967957,-0.23769992589950562,0.818084180355072
1733768359504455700,2.90045556640625,-0.6763306856155396,-0.30850353837013245,1.089385747909546
1733768359514415600,2.91041552734375,-0.7223483920097351,-0.3255799412727356,1.3029255867004395
1733768359524375600,2.92037548828125,-0.796613872051239,-0.26949748396873474,1.485421061515808
1733768359534335500,2.93033544921875,-0.7810962796211243,-0.06745217740535736,1.5102076530456543
1733768359544296400,2.94029638671875,-0.7329990863800049,0.22084619104862213,1.388804316520691
1733768359554256600,2.950256591796875,-0.6758732199668884,0.38063284754753113,1.1697028875350952
1733768359564216600,2.960216552734375,-0.5909221172332764,0.30878502130508423,0.9363234639167786
1733768359574177500,2.970177490234375,-0.47322970628738403,0.07047733664512634,0.7167150974273682
1733768359584137700,2.9801376953125,-0.31625980138778687,-0.17928561568260193,0.6118749976158142
1733768359594097700,2.99009765625,-0.1652188003063202,-0.41019493341445923,0.5976203680038452
1733768359604057600,3.0000576171875,0.007105295546352863,-0.541506826877594,0.670184314250946
1733768359614018600,3.0100185546875,0.17121198773384094,-0.5523931384086609,0.8365606069564819
1733768359623978500,3.019978515625,0.2886064946651459,-0.35042062401771545,0.8712946176528931
1733768359633938400,3.0299384765625,0.4287092685699463,0.0036461888812482357,0.7314900159835815
1733768359643899600,3.039899658203125,0.565321683883667,0.4208412766456604,0.6466044187545776
1733768359653859600,3.049859619140625,0.6121921539306641,0.8961126208305359,0.7518945336341858
1733768359663819500,3.059819580078125,0.5944254398345947,1.4278236627578735,0.9798145294189453
1733768359673779700,3.06977978515625,0.5608053207397461,1.8979036808013916,1.1890226602554321
1733768359683740700,3.07974072265625,0.5212522745132446,2.243190050125122,1.2854820489883423
1733768359693700600,3.08970068359375,0.44839057326316833,2.441679000854492,1.2509218454360962
1733768359703660800,3.099660888671875,0.37402552366256714,2.485121250152588,1.0846105813980103
1733768359713621500,3.10962158203125,0.32025018334388733,2.3571345806121826,0.8534181118011475
1733768359723581400,3.11958154296875,0.2790396213531494,2.1433539390563965,0.6776098012924194
1733768359733541600,3.129541748046875,0.21865810453891754,1.9063321352005005,0.6135724186897278
1733768359743501600,3.13950146484375,0.13764819502830505,1.7757667303085327,0.6523083448410034
1733768359753462500,3.149462646484375,0.04787493869662285,1.7460145950317383,0.710119366645813
1733768359763422700,3.159422607421875,-0.017175696790218353,1.4802641868591309,0.6953563690185547
1733768359773382700,3.169382568359375,-0.020874690264463425,1.091428518295288,0.6347742080688477
1733768359783343600,3.179343505859375,-0.0014906052965670824,0.8802714347839355,0.5397680401802063
1733768359793303800,3.1893037109375,0.015664616599678993,0.6875817775726318,0.39634308218955994
1733768359803263700,3.199263671875,0.004309962037950754,0.6167539358139038,0.2497730851173401
1733768359813224400,3.209224365234375,-0.04431309551000595,0.6598430871963501,0.11316218227148056
1733768359823184600,3.2191845703125,-0.05508797615766525,0.6804013252258301,-0.0019100792706012726
1733768359833144600,3.22914453125,-0.012845473363995552,0.6170487999916077,-0.11046452075242996
1733768359843104500,3.2391044921875,0.04654727876186371,0.49968594312667847,-0.21493500471115112
1733768359853065700,3.249065673828125,0.10686402022838593,0.34574460983276367,-0.3478720486164093
1733768359863025700,3.259025634765625,0.17017455399036407,0.23671585321426392,-0.48345863819122314
1733768359872985600,3.268985595703125,0.2073967158794403,0.35748490691185,-0.5622819662094116
1733768359882946800,3.27894677734375,0.20581506192684174,0.6758999228477478,-0.6162525415420532
1733768359892906800,3.28890673828125,0.19455422461032867,1.0537394285202026,-0.6760404109954834
1733768359902866700,3.29886669921875,0.3449660837650299,1.8399648666381836,-0.46579843759536743
1733768359912826600,3.30882666015625,0.6486285924911499,3.105912923812866,-0.013644794002175331
1733768359922787600,3.31878759765625,0.7855110764503479,3.0312747955322266,-0.1322055160999298
1733768359932747500,3.32874755859375,0.7572494149208069,2.1329643726348877,-0.4332096576690674
1733768359942707500,3.33870751953125,0.7006508708000183,1.342140793800354,-0.41984644532203674
1733768359952668700,3.348668701171875,0.6511976718902588,0.6921067833900452,-0.20184843242168427
1733768359962628600,3.358628662109375,0.5536356568336487,0.026037640869617462,-0.028851084411144257
1733768359972588500,3.368588623046875,0.44048014283180237,-0.5123582482337952,0.08963950723409653
1733768359982548700,3.378548828125,0.3165845572948456,-0.8639527559280396,0.18711651861667633
1733768359992509700,3.388509765625,0.19974760711193085,-1.07929265499115,0.24750885367393494
1733768360002469600,3.3984697265625,0.10280881077051163,-1.158551573753357,0.260568231344223
1733768360012429800,3.408429931640625,0.035723377019166946,-1.0970778465270996,0.2591754198074341
1733768360022390500,3.418390625,-0.03496144711971283,-0.9198614358901978,0.24008987843990326
1733768360032350500,3.4283505859375,-0.10736173391342163,-0.6736481785774231,0.1804954707622528
1733768360042310700,3.438310546875,-0.11663912236690521,-0.34941530227661133,0.11151640117168427
1733768360052271600,3.448271728515625,-0.0766340047121048,0.03281427547335625,0.1554405391216278
1733768360062231600,3.4582314453125,-0.016248958185315132,0.3347536027431488,0.2828397750854492
1733768360072191700,3.468191650390625,0.00042415643110871315,0.3536341190338135,0.30774572491645813
1733768360082151700,3.478151611328125,-0.0348864309489727,0.13578595221042633,0.23745104670524597
1733768360092112600,3.488112548828125,-0.08954142034053802,-0.13706928491592407,0.16162952780723572
1733768360102072800,3.49807275390625,-0.1266017109155655,-0.4402739107608795,0.05936706066131592
1733768360112032800,3.50803271484375,-0.13829489052295685,-0.6693360209465027,-0.04467838630080223
1733768360121993500,3.517993408203125,-0.09763933718204498,-0.5954732298851013,-0.04119816794991493
1733768360131953700,3.52795361328125,-0.010739699006080627,-0.05384758859872818,0.13982374966144562
1733768360141913600,3.53791357421875,0.0925280973315239,0.8094136714935303,0.3075381815433502
1733768360151873500,3.54787353515625,0.18406833708286285,1.651611089706421,0.2563837766647339
1733768360161834800,3.557834716796875,0.07812219858169556,1.486711859703064,-0.44191065430641174
1733768360171794700,3.567794677734375,-0.21712292730808258,1.5509920120239258,-1.01057767868042
1733768360181754600,3.577754638671875,-0.44697076082229614,2.045260429382324,-1.214093565940857
1733768360191715800,3.5877158203125,-0.3129656910896301,2.6509602069854736,-0.8682606816291809
1733768360201675800,3.59767578125,0.1288740336894989,3.015303134918213,-0.10938652604818344
1733768360211635700,3.6076357421875,0.4771590530872345,2.9295527935028076,0.6196990609169006
1733768360221596700,3.6175966796875,0.3946109116077423,2.614063024520874,0.9989430904388428
1733768360231556600,3.627556640625,0.14198645949363708,2.082488536834717,0.8639907836914062
1733768360241516500,3.6375166015625,0.08629842102527618,1.0352702140808105,-0.06083904951810837
1733768360251476500,3.6474765625,-0.08364032953977585,0.25846540927886963,-0.9166070222854614
1733768360261437700,3.657437744140625,-0.4182949960231781,-0.074921615421772,-0.9725421667098999
1733768360271397600,3.667397705078125,-0.7042902112007141,-0.6882858872413635,-0.6233761310577393
1733768360281357600,3.677357666015625,-0.9153243899345398,-1.4869396686553955,-0.2046249508857727
1733768360291318500,3.687318603515625,-1.0690021514892578,-2.271125555038452,0.2030940055847168
1733768360301278500,3.697278564453125,-1.1384944915771484,-3.0407655239105225,0.45265644788742065
1733768360311238400,3.70723828125,-1.0550116300582886,-3.7535250186920166,0.451587438583374
1733768360321199600,3.71719970703125,-0.6619795560836792,-4.27513313293457,0.1522875726222992
1733768360331159600,3.72715966796875,-0.16371111571788788,-4.254524230957031,-0.34373384714126587
1733768360341119500,3.737119384765625,0.05489366129040718,-3.578022003173828,-0.8324095010757446
1733768360351079700,3.74707958984375,-0.09442634135484695,-2.0904626846313477,-1.5590332746505737
1733768360361040600,3.75704052734375,-0.2912040948867798,-0.15131422877311707,-2.202414035797119
1733768360371000600,3.76700048828125,-0.23887412250041962,1.500973105430603,-2.3904125690460205
1733768360380960800,3.776960693359375,-0.00926249660551548,2.5052969455718994,-2.126884937286377
1733768360390921500,3.78692138671875,0.19960543513298035,2.940221071243286,-1.6614168882369995
1733768360400881400,3.79688134765625,0.3402371108531952,3.00777530670166,-1.2336807250976562
1733768360410841600,3.806841552734375,0.38847750425338745,2.8716964721679688,-1.0233609676361084
1733768360420802600,3.816802490234375,0.3390052914619446,2.564765214920044,-1.071128010749817
1733768360430762500,3.826762451171875,0.207693949341774,2.0987651348114014,-1.2394723892211914
1733768360440722700,3.83672265625,0.09402119368314743,1.4666149616241455,-1.368646264076233
1733768360450682600,3.8466826171875,0.04593603312969208,0.7736813426017761,-1.366400122642517
1733768360460643600,3.8566435546875,0.03413503244519234,0.2167251855134964,-1.2231513261795044
1733768360470603800,3.866603759765625,0.033391207456588745,-0.19716790318489075,-1.010362148284912
1733768360480563700,3.876563720703125,0.09372751414775848,-0.37502846121788025,-0.7420433163642883
1733768360490524400,3.8865244140625,0.18103456497192383,-0.34671077132225037,-0.446169376373291
1733768360500484600,3.896484619140625,0.2785169184207916,-0.2595931887626648,-0.17185527086257935
1733768360510444500,3.906444580078125,0.37735676765441895,-0.26132887601852417,0.031909067183732986
1733768360520405500,3.916405517578125,0.3990095853805542,-0.2630029320716858,0.21374252438545227
1733768360530365700,3.92636572265625,0.3940025568008423,-0.18947307765483856,0.34223538637161255
1733768360540325600,3.93632568359375,0.43868908286094666,0.015249444171786308,0.4077291786670685
1733768360550285600,3.94628564453125,0.536178469657898,0.31323814392089844,0.4264220595359802
1733768360560246800,3.956246826171875,0.450397253036499,0.5843883752822876,0.3225497305393219
1733768360570206700,3.966206787109375,0.2751125693321228,0.8340210318565369,0.050651665776968
1733768360580166700,3.976166748046875,0.12124631553888321,0.8963285684585571,-0.3961830735206604
1733768360590127600,3.986127685546875,0.044071853160858154,0.806959867477417,-0.8292811512947083
1733768360600087600,3.996087646484375,0.03901904076337814,0.5955855846405029,-1.060860276222229
1733768360610047500,4.006047607421875,0.018955135717988014,0.5590593218803406,-1.073004961013794
1733768360620008700,4.0160087890625,-0.05411987379193306,0.6110623478889465,-1.0064126253128052
1733768360629968600,4.02596875,-0.1015666276216507,0.6433462500572205,-0.9198850989341736
1733768360639928600,4.035928466796875,-0.09895166754722595,0.6564916372299194,-0.8725975155830383
1733768360649888800,4.045888671875,-0.07644091546535492,0.6131396889686584,-0.8940141797065735
1733768360659849700,4.055849609375,-0.09696349501609802,0.5377624034881592,-0.969668447971344
1733768360669809700,4.0658095703125,-0.16468659043312073,0.468288391828537,-1.152226209640503
1733768360679769900,4.075769775390625,-0.28707829117774963,0.5007874965667725,-1.4773321151733398
1733768360689730600,4.08573046875,-0.43109315633773804,0.6439218521118164,-1.8139020204544067
1733768360699690500,4.0956904296875,-0.5589565634727478,0.8230782747268677,-1.908921241760254
1733768360709650700,4.105650634765625,-0.5957763195037842,0.8786501288414001,-1.638717770576477
1733768360719610600,4.115610595703125,-0.5981351137161255,0.898460328578949,-1.1579577922821045
1733768360729571600,4.125571533203125,-0.5181176662445068,0.9105282425880432,-0.5543490052223206
1733768360739531800,4.13553173828125,-0.38872185349464417,0.8354169726371765,0.1707351952791214
1733768360749491700,4.14549169921875,-0.1760791540145874,0.6266772150993347,0.9538588523864746
1733768360759452700,4.15545263671875,0.1947050392627716,0.3986373543739319,1.6704484224319458
1733768360769412900,4.165412841796875,0.5404983162879944,0.2407461255788803,2.2014501094818115
1733768360779372800,4.175372802734375,0.7631521821022034,0.08270028978586197,2.480560064315796
1733768360789333500,4.18533349609375,0.8783119916915894,-0.07439392060041428,2.5330522060394287
1733768360799293700,4.195293701171875,0.8735042214393616,0.051078781485557556,2.3270654678344727
1733768360809253600,4.205253662109375,0.6916194558143616,0.3321017324924469,1.8172035217285156
1733768360819214600,4.215214599609375,0.46429017186164856,0.6400124430656433,1.1795215606689453
1733768360829174800,4.2251748046875,0.265613317489624,1.2277674674987793,0.7046499848365784
1733768360839134700,4.235134765625,0.15817663073539734,1.6881848573684692,0.5189024806022644
1733768360849094700,4.2450947265625,0.14996770024299622,1.9393658638000488,0.6075494289398193
1733768360859055900,4.255055908203125,0.18587589263916016,1.9431347846984863,0.831801176071167
1733768360869015800,4.265015869140625,0.16298891603946686,1.5818201303482056,1.0167145729064941
1733768360878975700,4.274975830078125,0.09323727339506149,0.880776584148407,1.0005214214324951
1733768360888936700,4.284936767578125,-0.061259884387254715,0.16029798984527588,0.9681990742683411
1733768360898896600,4.294896728515625,-0.2618774175643921,-0.2334676831960678,1.118330478668213
1733768360908856600,4.304856689453125,-0.3918914496898651,-0.27602455019950867,1.4025554656982422
1733768360918817800,4.31481787109375,-0.40409615635871887,-0.13960039615631104,1.6597425937652588
1733768360928777700,4.32477783203125,-0.3847113251686096,-0.06822917610406876,1.7639820575714111
1733768360938737700,4.334737548828125,-0.36233943700790405,-0.16385076940059662,1.714916706085205
1733768360948697600,4.344697509765625,-0.33577585220336914,-0.2692701816558838,1.5933970212936401
1733768360958658800,4.354658935546875,-0.3245586156845093,-0.48358914256095886,1.4276397228240967
1733768360968618800,4.36461865234375,-0.32188624143600464,-0.7141081690788269,1.2666927576065063
1733768360978578700,4.37457861328125,-0.3239392936229706,-0.714021623134613,1.1613764762878418
1733768360988539600,4.38453955078125,-0.28275278210639954,-0.5623607635498047,1.0791622400283813
1733768360998499600,4.39449951171875,-0.22665327787399292,-0.3017635643482208,1.038169264793396
1733768361008459500,4.40445947265625,-0.18276852369308472,-0.03565676882863045,1.0260846614837646
1733768361018420700,4.414420654296875,-0.15277068316936493,0.15119725465774536,1.0037424564361572
1733768361028380700,4.424380615234375,-0.0853857770562172,0.21287180483341217,0.9510669112205505
1733768361038340600,4.434340576171875,-0.0076481071300804615,0.235728919506073,0.8533664345741272
1733768361048300800,4.44430078125,0.027125725522637367,0.30004772543907166,0.6121380925178528
1733768361058261800,4.45426171875,0.0637601688504219,0.4597255289554596,0.29205217957496643
1733768361068221700,4.4642216796875,0.1746639907360077,0.7998587489128113,0.05840732529759407
1733768361078181600,4.474181640625,0.33708563446998596,1.2182397842407227,-0.08638421446084976
1733768361088142600,4.484142578125,0.47472456097602844,1.642392873764038,-0.16588178277015686
1733768361098102500,4.4941025390625,0.6104919910430908,2.0140159130096436,-0.23679590225219727
1733768361108062700,4.504062744140625,0.7152613401412964,2.31805682182312,-0.3136366009712219
1733768361118023700,4.514023681640625,0.7746519446372986,2.6203200817108154,-0.3713230490684509
1733768361127983600,4.523983642578125,0.7941030263900757,2.891568422317505,-0.4217444956302643
1733768361137943800,4.53394384765625,0.8502771258354187,3.0671286582946777,-0.4896782636642456
1733768361147904500,4.543904541015625,0.899987518787384,3.1733736991882324,-0.5692731738090515
1733768361157864400,4.553864501953125,0.9001587629318237,3.0486698150634766,-0.6688335537910461
1733768361167824600,4.56382470703125,0.8579649925231934,2.7689366340637207,-0.7357931733131409
1733768361177784600,4.57378466796875,0.7884168028831482,2.4094083309173584,-0.7116100788116455
1733768361187745500,4.58374560546875,0.7245293259620667,2.118873357772827,-0.45727258920669556
1733768361197705700,4.593705810546875,0.6575713753700256,1.6858842372894287,-0.0786544680595398
1733768361207665700,4.603665771484375,0.5720077157020569,0.7311941981315613,0.1589963138103485
1733768361217626600,4.613626708984375,0.4794980585575104,-0.3764616549015045,0.2709446847438812
1733768361227586800,4.6235869140625,0.4230760633945465,-1.1572043895721436,0.391367107629776
1733768361237546800,4.633546630859375,0.38377872109413147,-1.513932704925537,0.5189327597618103
1733768361247507500,4.643507568359375,0.3137775659561157,-1.6053425073623657,0.5804545879364014
1733768361257467600,4.653467529296875,0.21986280381679535,-1.5267325639724731,0.566353976726532
1733768361267427600,4.663427490234375,0.148829385638237,-1.3475769758224487,0.5029244422912598
1733768361277388500,4.673388427734375,0.09630544483661652,-1.0749672651290894,0.40642476081848145
1733768361287348700,4.6833486328125,0.03742365539073944,-0.7683534026145935,0.2809429466724396
1733768361297308700,4.69330859375,-0.02510763332247734,-0.45584821701049805,0.12110376358032227
1733768361307268600,4.7032685546875,-0.07055479288101196,-0.18453726172447205,-0.05403904989361763
1733768361317229800,4.713229736328125,-0.09531687200069427,0.041319847106933594,-0.2030077576637268
1733768361327189800,4.723189697265625,-0.10856839269399643,0.31589579582214355,-0.2648308575153351
1733768361337149700,4.733149658203125,-0.08787856251001358,0.7111371159553528,-0.16403979063034058
1733768361347110700,4.743110595703125,-0.06355338543653488,1.0189152956008911,-0.0051313117146492004
1733768361357070600,4.753070556640625,-0.07685987651348114,0.9439488649368286,0.08817839622497559
1733768361367030500,4.763030517578125,-0.11419517546892166,0.5890184640884399,0.16085225343704224
1733768361376991700,4.77299169921875,-0.15540306270122528,0.11637452989816666,0.24866679310798645
1733768361386951700,4.78295166015625,-0.23078851401805878,-0.44945845007896423,0.2689742147922516
1733768361396911600,4.79291162109375,-0.3349580764770508,-1.1551403999328613,0.13808758556842804
1733768361406871600,4.80287158203125,-0.4245827794075012,-1.809523105621338,-0.09761571884155273
1733768361416832800,4.812832763671875,-0.4900062680244446,-1.9156996011734009,-0.19085219502449036
1733768361426792700,4.822792724609375,-0.5149163603782654,-1.4335576295852661,-0.07252022624015808
1733768361436752600,4.832752685546875,-0.5506913661956787,-0.9372779726982117,-0.11128706485033035
1733768361446713600,4.842713623046875,-0.5645381808280945,0.13410544395446777,0.02316545695066452
1733768361456673500,4.852673583984375,-0.581244170665741,1.4460954666137695,-0.04382236674427986
1733768361466633500,4.862633544921875,-0.6267003417015076,1.5979913473129272,-1.0880507230758667
1733768361476594700,4.8725947265625,-0.6197329759597778,1.1553055047988892,-1.9400849342346191
1733768361486554600,4.8825546875,-0.5157763361930847,0.6659364700317383,-1.7660688161849976
1733768361496514600,4.8925146484375,-0.46585220098495483,0.7644990086555481,-0.8299237489700317
1733768361506475800,4.902475830078125,-0.3475690186023712,1.494813084602356,0.2675071954727173
1733768361516435700,4.912435791015625,-0.12296145409345627,2.1630570888519287,1.1212947368621826
1733768361526396000,4.92239599609375,-0.0030583939515054226,2.58512544631958,1.4849811792373657
1733768361536355800,4.93235595703125,-0.09051714092493057,2.7632930278778076,1.4123101234436035
1733768361546316500,4.942316650390625,-0.04335161671042442,2.2825303077697754,0.5200619697570801
1733768361556276700,4.95227685546875,-0.012815012596547604,1.6502913236618042,-0.596732497215271
1733768361566236700,4.962236572265625,-0.2680361568927765,1.4558359384536743,-1.0028235912322998
1733768361576197600,4.97219775390625,-0.4164743721485138,1.2650190591812134,-0.9530184864997864
1733768361586157800,4.98215771484375,-0.44391217827796936,0.8638063669204712,-0.7163042426109314
1733768361596117800,4.99211767578125,-0.46773892641067505,0.07473672181367874,-0.4980278015136719
1733768361606078700,5.00207861328125,-0.5950119495391846,-0.9644545316696167,-0.3496255874633789
1733768361616039000,5.012038818359375,-0.7864514589309692,-1.93463134765625,-0.2405819147825241
1733768361625998800,5.021998779296875,-0.9220906496047974,-2.9000396728515625,-0.15715724229812622
1733768361635958800,5.031958740234375,-0.9754273295402527,-3.671267032623291,-0.13540028035640717
1733768361645919700,5.041919677734375,-1.0547020435333252,-4.11954402923584,-0.2166089415550232
1733768361655879700,5.051879638671875,-1.0006476640701294,-4.1197686195373535,-0.35494574904441833
1733768361665839600,5.061839599609375,-0.7127530574798584,-3.72658371925354,-0.5580096244812012
1733768361675800800,5.07180078125,-0.3748711347579956,-3.121875047683716,-0.8631466031074524
1733768361685760800,5.0817607421875,-0.19153539836406708,-2.3808186054229736,-1.1327093839645386
1733768361695720700,5.091720703125,-0.19681112468242645,-1.6338529586791992,-1.3521194458007812
1733768361705682000,5.101681884765625,-0.35898151993751526,-0.837431013584137,-1.6881203651428223
1733768361715641900,5.111641845703125,-0.6095636487007141,0.2895630896091461,-2.404432773590088
1733768361725601800,5.121601806640625,-0.7015901803970337,1.4000439643859863,-3.0309927463531494
1733768361735562800,5.131562744140625,-0.37857699394226074,2.1180124282836914,-3.2686233520507812
1733768361745522700,5.141522705078125,0.03826639801263809,2.313340663909912,-3.114932060241699
1733768361755482600,5.151482666015625,0.25072646141052246,2.0480940341949463,-2.684297561645508
1733768361765442800,5.16144287109375,0.32933509349823,1.4911428689956665,-2.083293914794922
1733768361775403800,5.17140380859375,0.4227215051651001,0.8008748888969421,-1.5636011362075806
1733768361785363700,5.18136376953125,0.5599901080131531,0.32305726408958435,-1.315911054611206
1733768361795324000,5.191323974609375,0.6795290112495422,0.22458288073539734,-1.3688498735427856
1733768361805284900,5.201284912109375,0.7121983766555786,0.38417771458625793,-1.5295019149780273
1733768361815244800,5.211244873046875,0.5352808237075806,0.895209550857544,-1.4289355278015137
1733768361825204700,5.221204833984375,0.21496818959712982,1.7195632457733154,-0.9468111395835876
1733768361835165700,5.231165771484375,0.15140146017074585,1.8285011053085327,-0.666754424571991
1733768361845125600,5.241125732421875,0.20734083652496338,1.4525848627090454,-0.3726375997066498
1733768361855085800,5.2510859375,0.17472217977046967,0.9851257801055908,0.052213288843631744
1733768361865046800,5.261046875,0.0825607106089592,0.5421728491783142,0.5006937980651855
1733768361875006700,5.2710068359375,-0.025768427178263664,0.04691065102815628,0.8720703125
1733768361884967000,5.280966796875,-0.10280217975378036,-0.5214583873748779,1.0878068208694458
1733768361894926800,5.2909267578125,-0.15169700980186462,-1.0815656185150146,1.1689786911010742
1733768361904887600,5.300887451171875,-0.18288405239582062,-1.5157065391540527,1.0865048170089722
1733768361914847700,5.31084765625,-0.196904256939888,-1.8346786499023438,0.8092191219329834
1733768361924807700,5.3208076171875,-0.2112049013376236,-1.9546966552734375,0.40972423553466797
1733768361934768600,5.3307685546875,-0.2837913930416107,-1.7970985174179077,-0.03716801106929779
1733768361944728800,5.340728759765625,-0.29917797446250916,-1.4258147478103638,-0.372472882270813
1733768361954688800,5.350688720703125,-0.26019221544265747,-0.7946683168411255,-0.5224775671958923
1733768361964649700,5.360649658203125,-0.20325186848640442,0.020046815276145935,-0.5400378704071045
1733768361974610000,5.37060986328125,-0.1688281148672104,0.9998171329498291,-0.5396807193756104
1733768361984569900,5.38056982421875,-0.1526060849428177,1.9588335752487183,-0.523780882358551
1733768361994530600,5.390530517578125,-0.13580287992954254,2.4927966594696045,-0.4481370151042938
1733768362004490800,5.40049072265625,-0.03455919027328491,2.4634575843811035,-0.3893654942512512
1733768362014450700,5.41045068359375,0.15417158603668213,1.973302960395813,-0.32927072048187256
1733768362024411600,5.42041162109375,0.3704555630683899,1.271049976348877,-0.22233256697654724
1733768362034371800,5.430371826171875,0.6565200686454773,0.6342527270317078,0.009713977575302124
1733768362044331800,5.440331787109375,0.9854128360748291,0.22802722454071045,0.402539998292923
1733768362054291700,5.450291748046875,1.2091845273971558,0.04611734673380852,0.8732721209526062
1733768362064253000,5.4602529296875,1.2210909128189087,-0.10336007922887802,1.261854887008667
1733768362074212900,5.470212890625,1.0794473886489868,-0.2776637077331543,1.4587458372116089
1733768362084172800,5.4801728515625,0.9274914860725403,-0.5484560132026672,1.4054577350616455
1733768362094133800,5.4901337890625,0.8209331035614014,-0.8965660333633423,1.090346097946167
1733768362104093700,5.50009375,0.657650351524353,-0.9696720242500305,0.7816208004951477
1733768362114053600,5.5100537109375,0.6743425130844116,-0.8165554404258728,0.8046936392784119
1733768362124014800,5.520014892578125,0.4967382848262787,-0.4396670460700989,0.8875804543495178
1733768362133974800,5.529974853515625,0.2635260820388794,-0.01723562180995941,1.042721152305603
1733768362143934700,5.539934814453125,-0.03379817679524422,0.38889336585998535,1.1735188961029053
1733768362153896000,5.54989599609375,-0.2913689911365509,0.7731896638870239,1.310002326965332
1733768362163856000,5.55985595703125,-0.4545316994190216,0.9901775121688843,1.4222031831741333
1733768362173815800,5.56981591796875,-0.5719959735870361,0.9882161021232605,1.491127371788025
1733768362183776800,5.57977685546875,-0.5523407459259033,0.9018966555595398,1.5377936363220215
1733768362193736700,5.58973681640625,-0.41443243622779846,0.7571669220924377,1.511128544807434
1733768362203696600,5.599696533203125,-0.31916990876197815,0.5211696028709412,1.3466715812683105
1733768362213656600,5.609656494140625,-0.27540695667266846,0.3210133910179138,1.0940015316009521
1733768362223617800,5.61961767578125,-0.2673644721508026,0.15860716998577118,0.8081595301628113
1733768362233577700,5.62957763671875,-0.2798621654510498,0.05690184608101845,0.5542604327201843
1733768362243537700,5.63953759765625,-0.2969454526901245,-0.01546228863298893,0.38294363021850586
1733768362253499000,5.649498779296875,-0.3261699378490448,-0.06192219629883766,0.30464720726013184
1733768362263458800,5.659458740234375,-0.35512790083885193,-0.15931886434555054,0.30559468269348145
1733768362273418800,5.669418701171875,-0.3766193389892578,-0.27874594926834106,0.3731883764266968
1733768362283379700,5.679379638671875,-0.36326882243156433,-0.4267826974391937,0.4855114817619324
1733768362293339600,5.689339599609375,-0.3153412342071533,-0.5451098680496216,0.6077615022659302
1733768362303299600,5.699299560546875,-0.24976250529289246,-0.6069237589836121,0.6990699768066406
1733768362313260800,5.7092607421875,-0.1975269913673401,-0.599462628364563,0.7365286946296692
1733768362323220700,5.719220703125,-0.13819053769111633,-0.5020796656608582,0.7246153354644775
1733768362333180700,5.7291806640625,-0.06026165932416916,-0.34312915802001953,0.684967041015625
1733768362343142000,5.739141845703125,0.027529276907444,-0.17846205830574036,0.6180858612060547
1733768362353101800,5.749101806640625,0.09602418541908264,-0.02456624060869217,0.5353526473045349
1733768362363061800,5.759061767578125,0.15984570980072021,0.07292954623699188,0.4558882713317871
1733768362373022000,5.76902197265625,0.17165708541870117,0.1384156197309494,0.40816473960876465
1733768362382982700,5.778982666015625,0.1539076715707779,0.16541574895381927,0.3698250949382782
1733768362392942600,5.788942626953125,0.1270614117383957,0.11373071372509003,0.31901490688323975
1733768362402902800,5.79890283203125,0.08629690855741501,0.029154669493436813,0.2648254930973053
1733768362412863700,5.80886376953125,0.03089490905404091,-0.06128761172294617,0.2240317463874817
1733768362422823700,5.81882373046875,-0.023172695189714432,-0.1430211067199707,0.19371731579303741
1733768362432784000,5.828783935546875,-0.0990980863571167,-0.17883902788162231,0.15111179649829865
1733768362442744800,5.838744873046875,-0.1554858386516571,-0.1298341006040573,0.1339821070432663
1733768362452704800,5.848704833984375,-0.18094563484191895,-0.15249839425086975,0.16579224169254303
1733768362462665000,5.8586650390625,-0.21202075481414795,-0.23393413424491882,0.19724923372268677
1733768362472625700,5.868625732421875,-0.24713876843452454,-0.32915255427360535,0.19249388575553894
1733768362482585600,5.878585693359375,-0.2713434100151062,-0.4310849905014038,0.0825677290558815
1733768362492545800,5.8885458984375,-0.2672610580921173,-0.46584615111351013,-0.1110486090183258
1733768362502505700,5.898505615234375,-0.2398076057434082,-0.40272051095962524,-0.29352691769599915
1733768362512466700,5.908466796875,-0.1990436613559723,-0.270378977060318,-0.41360458731651306
1733768362522427000,5.918427001953125,-0.14757543802261353,-0.05493183806538582,-0.45682570338249207
1733768362532387000,5.928386962890625,-0.12837457656860352,0.22541272640228271,-0.4432603716850281
1733768362542348000,5.93834814453125,-0.11979877203702927,0.4612763226032257,-0.38975590467453003
1733768362552308000,5.948307861328125,-0.08177629113197327,0.5997042059898376,-0.26936691999435425
1733768362562268000,5.958267822265625,-0.006411165464669466,0.7719326019287109,-0.061263877898454666
1733768362572229000,5.96822900390625,0.08302044868469238,1.1043002605438232,0.24778583645820618
1733768362582189000,5.97818896484375,0.16099457442760468,1.272978663444519,0.4176839292049408
1733768362592149000,5.98814892578125,0.2420548051595688,1.0734586715698242,0.357004851102829
1733768362602110200,5.998110107421875,0.3251359760761261,0.5964130759239197,0.15772752463817596
1733768362612070100,6.008070068359375,0.3840014338493347,0.10937175899744034,-0.01760995015501976
1733768362622030000,6.018030029296875,0.46627140045166016,-0.3375357389450073,-0.059937648475170135
1733768362631991000,6.027990966796875,0.5560066103935242,-0.6365943551063538,0.07613922655582428
1733768362641951000,6.037950927734375,0.5684211254119873,-0.6863889694213867,0.34280726313591003
1733768362651911000,6.047910888671875,0.4782199263572693,-0.659909188747406,0.569609522819519
1733768362661870800,6.057870849609375,0.3756541311740875,-0.6082571744918823,0.6679600477218628
1733768362671832000,6.06783203125,0.33890169858932495,-0.5471954345703125,0.6786563992500305
1733768362681792000,6.0777919921875,0.38005849719047546,-0.4015674591064453,0.6731050610542297
1733768362691752000,6.087751953125,0.43517473340034485,-0.19167892634868622,0.6166039705276489
1733768362701713200,6.097713134765625,0.4525553286075592,-0.08241130411624908,0.4398733973503113
1733768362711673000,6.107673095703125,0.43177762627601624,-0.06143385171890259,0.18655909597873688
1733768362721633000,6.117633056640625,0.3861224353313446,-0.014127761125564575,-0.017193352803587914
1733768362731594000,6.127593994140625,0.35701224207878113,0.02243610844016075,-0.11204636096954346
1733768362741554000,6.137553955078125,0.34414947032928467,-0.010625970549881458,-0.15086902678012848
1733768362751513900,6.147513916015625,0.3280317485332489,-0.1834786981344223,-0.20013165473937988
1733768362761475000,6.15747509765625,0.3080604672431946,-0.41800713539123535,-0.24086691439151764
1733768362771435000,6.16743505859375,0.29142820835113525,-0.5870624780654907,-0.2555534243583679
1733768362781395000,6.17739501953125,0.28395068645477295,-0.45404815673828125,-0.15104059875011444
1733768362791356200,6.187356201171875,0.24445174634456635,0.04765942692756653,-0.01977844536304474
1733768362801316000,6.197316162109375,0.12801344692707062,0.9134626388549805,0.026443468406796455
1733768362811276000,6.207276123046875,-0.045918405055999756,1.9540544748306274,-0.061588115990161896
1733768362821236200,6.217236328125,-0.2625681459903717,2.7158260345458984,-0.5660321116447449
1733768362831197000,6.227197021484375,-0.333830863237381,2.9741220474243164,-1.2555004358291626
1733768362841156900,6.237156982421875,-0.10618308186531067,3.034130811691284,-1.4268783330917358
1733768362851117000,6.247116943359375,0.1927516907453537,2.983938694000244,-1.0301083326339722
1733768362861078000,6.257078125,0.3052043318748474,2.711165428161621,-0.387209415435791
1733768362871038000,6.267037841796875,0.21310903131961823,2.1573455333709717,0.25900956988334656
1733768362880998100,6.276998046875,-0.11247009038925171,1.3066905736923218,0.8383859395980835
1733768362890959000,6.286958984375,-0.44470423460006714,0.18580465018749237,1.229138731956482
1733768362900919000,6.2969189453125,-0.6919082999229431,-1.0919219255447388,1.3939759731292725
1733768362910879200,6.306879150390625,-0.8544521927833557,-2.630979061126709,1.3681843280792236
1733768362920840000,6.31683984375,-0.8232686519622803,-3.9967877864837646,1.1469446420669556
1733768362930799900,6.3267998046875,-0.6348968744277954,-4.753074645996094,0.6636667251586914
1733768362940760000,6.336760009765625,-0.4439854025840759,-5.013635158538818,0.16390623152256012
1733768362950721000,6.346720947265625,-0.3207566738128662,-4.7065582275390625,-0.15527121722698212
1733768362960681000,6.356680908203125,-0.27831387519836426,-3.9384281635284424,-0.34113165736198425
1733768362970641200,6.36664111328125,-0.28778645396232605,-2.955714225769043,-0.6117578148841858
1733768362980601000,6.37660107421875,-0.2721216082572937,-2.235992908477783,-0.9694384932518005
1733768362990562000,6.38656201171875,-0.21831323206424713,-1.6681866645812988,-1.2202438116073608
1733768363000522200,6.396522216796875,-0.13512133061885834,-1.0317991971969604,-1.2940499782562256
1733768363010482200,6.406482177734375,-0.009493369609117508,-0.3197123408317566,-1.2469903230667114
1733768363020443000,6.41644287109375,0.10338017344474792,0.42633742094039917,-1.1485730409622192
1733768363030403000,6.426403076171875,0.17651936411857605,1.0522949695587158,-1.0791500806808472
1733768363040363000,6.436363037109375,0.17978893220424652,1.4952993392944336,-1.0610957145690918
1733768363050324000,6.446323974609375,0.188328355550766,1.6268850564956665,-1.1708786487579346
1733768363060284200,6.4562841796875,0.18663839995861053,1.5034788846969604,-1.3723164796829224
1733768363070244000,6.466244140625,0.20924490690231323,1.1790165901184082,-1.6245394945144653
1733768363080205000,6.476205078125,0.27309536933898926,0.738804280757904,-1.9226733446121216
1733768363090165200,6.486165283203125,0.35927632451057434,0.3323710560798645,-2.121809720993042
1733768363100125200,6.496125244140625,0.41989120841026306,-0.013370640575885773,-2.117326498031616
1733768363110086000,6.5060859375,0.43066930770874023,-0.3085583448410034,-1.95334792137146
1733768363120046000,6.516046142578125,0.4033195376396179,-0.448932409286499,-1.7036906480789185
1733768363130006000,6.526006103515625,0.34777718782424927,-0.461078017950058,-1.4609168767929077
1733768363139967000,6.535967041015625,0.27459368109703064,-0.45026376843452454,-1.2774593830108643
1733768363149927200,6.54592724609375,0.23699916899204254,-0.367927610874176,-1.1025294065475464
1733768363159887000,6.55588720703125,0.16704408824443817,-0.192657932639122,-0.9191141724586487
1733768363169848000,6.56584814453125,0.010839831084012985,0.012382831424474716,-0.7597580552101135
1733768363179808300,6.575808349609375,-0.14783678948879242,0.33352339267730713,-0.5406875014305115
1733768363189768200,6.585768310546875,-0.2553805708885193,0.6515088081359863,-0.26711854338645935
1733768363199728000,6.59572802734375,-0.29906943440437317,0.9185686707496643,0.06919682770967484
1733768363209689000,6.605689208984375,-0.27067774534225464,1.0610181093215942,0.41621842980384827
1733768363219649000,6.61564892578125,-0.21084673702716827,1.0233358144760132,0.6505517363548279
1733768363229609000,6.62560888671875,-0.16500680148601532,0.8063137531280518,0.6620496511459351
1733768363239570200,6.635570068359375,-0.17883682250976562,0.4580470025539398,0.37207382917404175
1733768363249530000,6.645530029296875,-0.18798212707042694,0.05595548450946808,-0.15089884400367737
1733768363259490000,6.655489990234375,-0.15475280582904816,-0.3641864061355591,-0.7551738023757935
1733768363269451300,6.665451171875,-0.12533818185329437,-0.5044138431549072,-1.2313472032546997
1733768363279411200,6.6754111328125,-0.20612195134162903,-0.37750253081321716,-1.5153597593307495
1733768363289371100,6.68537109375,-0.33126577734947205,0.3447291851043701,-1.5998504161834717
1733768363299332000,6.69533203125,-0.41844940185546875,1.4911017417907715,-1.5620993375778198
1733768363309292000,6.7052919921875,-0.40268775820732117,2.5980117321014404,-1.3621585369110107
1733768363319252000,6.715251953125,-0.312674343585968,3.0054752826690674,-1.1787877082824707
1733768363329213200,6.725213134765625,-0.23611485958099365,2.657480239868164,-1.0614466667175293
1733768363339173000,6.735173095703125,-0.19459135830402374,1.8377810716629028,-0.9369722604751587
1733768363349133000,6.745133056640625,-0.15069420635700226,0.8970263600349426,-0.8156370520591736
1733768363359094000,6.755093994140625,-0.03995361179113388,-0.06301175802946091,-0.732538640499115
1733768363369054000,6.765053955078125,0.07978930324316025,-1.0316654443740845,-0.6127283573150635
1733768363379014000,6.775013916015625,0.2657824754714966,-1.7709472179412842,-0.35553115606307983
1733768363388975000,6.78497509765625,0.5731884837150574,-2.134674549102783,0.12059598416090012
1733768363398935000,6.79493505859375,0.7769576907157898,-2.2898004055023193,0.7248733639717102
1733768363408895000,6.80489501953125,0.8005277514457703,-2.36104679107666,1.1760135889053345
1733768363418855000,6.81485498046875,0.7161521911621094,-2.4325621128082275,1.3788070678710938
1733768363428816100,6.824816162109375,0.5187317728996277,-2.371234893798828,1.4035893678665161
1733768363438776000,6.834776123046875,0.35993802547454834,-2.2010133266448975,1.349857211112976
1733768363448736000,6.844736083984375,0.29491376876831055,-1.926772117614746,1.3463338613510132
1733768363458697000,6.854697021484375,0.21398720145225525,-1.4255084991455078,1.4476089477539062
1733768363468657000,6.864656982421875,0.0714084804058075,-0.6279793381690979,1.645153284072876
1733768363478616800,6.874616943359375,-0.13702555000782013,0.2870759963989258,1.7927286624908447
1733768363488578000,6.884578125,-0.2646668553352356,1.0977108478546143,1.8714377880096436
1733768363498538000,6.8945380859375,-0.5289095044136047,1.7043213844299316,1.783187985420227
1733768363508498000,6.904497802734375,-0.8278408050537109,2.105327844619751,1.6395384073257446
1733768363518459100,6.914459228515625,-0.9474099278450012,2.348778486251831,1.582729697227478
1733768363528419800,6.924419921875,-0.8651323914527893,2.3319785594940186,1.5262707471847534
1733768363538379800,6.9343798828125,-0.7531771659851074,1.8272868394851685,1.4238299131393433
1733768363548340700,6.9443408203125,-0.6157202124595642,0.7278708815574646,1.2546337842941284
1733768363558300700,6.95430078125,-0.5169837474822998,-0.39260151982307434,1.1457983255386353
1733768363568260600,6.964260498046875,-0.4333953261375427,-1.1618326902389526,1.1224013566970825
1733768363578221800,6.974221923828125,-0.34330999851226807,-1.5003563165664673,1.1491613388061523
1733768363588181800,6.984181640625,-0.27065205574035645,-1.573673129081726,1.195833444595337
1733768363598141700,6.9941416015625,-0.22449716925621033,-1.474814772605896,1.2450491189956665
1733768363608103000,7.00410302734375,-0.18100322782993317,-1.340192198753357,1.2843568325042725
1733768363618062800,7.014062744140625,-0.13414610922336578,-1.2099559307098389,1.2965816259384155
1733768363628022800,7.024022705078125,-0.06227324530482292,-1.0452839136123657,1.2638846635818481
1733768363637983700,7.033983642578125,0.02600782737135887,-0.7953743934631348,1.1962443590164185
1733768363647943700,7.043943603515625,0.09607479721307755,-0.5835239291191101,1.0669212341308594
1733768363657903600,7.053903564453125,0.1368865966796875,-0.3376401662826538,0.916784942150116
1733768363667863800,7.06386376953125,0.13722029328346252,-0.05560741573572159,0.7611570358276367
1733768363677824800,7.07382470703125,0.13739736378192902,0.3057633638381958,0.5955204963684082
1733768363687784700,7.08378466796875,0.1683076024055481,0.6518595218658447,0.4030788838863373
1733768363697745000,7.093744873046875,0.2237059772014618,0.9392375349998474,0.2698056101799011
1733768363707705900,7.103705810546875,0.27923980355262756,1.174620509147644,0.2341834306716919
1733768363717665800,7.113665771484375,0.32877039909362793,1.3099976778030396,0.26374003291130066
1733768363727625700,7.123625732421875,0.3611113131046295,1.2803395986557007,0.28436407446861267
1733768363737586700,7.133586669921875,0.393429160118103,1.1795611381530762,0.28958046436309814
1733768363747546600,7.143546630859375,0.4341440796852112,1.0085318088531494,0.2544906735420227
1733768363757506800,7.1535068359375,0.4646432101726532,0.8492027521133423,0.1807706505060196
1733768363767467800,7.1634677734375,0.47776487469673157,0.7127969861030579,0.07888529449701309
1733768363777427700,7.173427734375,0.49880915880203247,0.6021063923835754,-0.07681968063116074
1733768363787388000,7.183387939453125,0.48976531624794006,0.525036096572876,-0.21100305020809174
1733768363797348900,7.193348876953125,0.504549503326416,0.4653721749782562,-0.3019680678844452
1733768363807308800,7.203308837890625,0.5438241958618164,0.4537426829338074,-0.3443259000778198
1733768363817268700,7.213268798828125,0.574255645275116,0.47931283712387085,-0.3637399673461914
1733768363827229700,7.223229736328125,0.5857266783714294,0.48952925205230713,-0.36992114782333374
1733768363837189600,7.233189697265625,0.5589101910591125,0.5837125182151794,-0.369035005569458
1733768363847149800,7.24314990234375,0.4643027186393738,0.8321340084075928,-0.372700572013855
1733768363857110800,7.25311083984375,0.40399670600891113,1.0880320072174072,-0.39210039377212524
1733768363867070700,7.26307080078125,0.3786468803882599,1.2288050651550293,-0.396635502576828
1733768363877031000,7.273031005859375,0.3494955897331238,1.2377934455871582,-0.33182889223098755
1733768363886991600,7.28299169921875,0.2945444583892822,1.2108757495880127,-0.11531415581703186
1733768363896951600,7.29295166015625,0.2103966772556305,0.9602200984954834,0.09997919201850891
1733768363906911700,7.302911865234375,0.13351254165172577,0.3563864231109619,0.2003507912158966
1733768363916872700,7.312872802734375,0.07978639751672745,-0.3654312789440155,0.23466186225414276
1733768363926832600,7.32283251953125,0.019904956221580505,-0.9350859522819519,0.2340562492609024
1733768363936792800,7.332792724609375,-0.03294413536787033,-1.2177281379699707,0.22176751494407654
1733768363946753800,7.34275390625,-0.05825614929199219,-1.3308645486831665,0.1979021430015564
1733768363956713700,7.352713623046875,-0.04220917820930481,-1.388175368309021,0.17065754532814026
1733768363966674000,7.362673828125,-0.013648375868797302,-1.3873090744018555,0.1427585333585739
1733768363976634600,7.372634521484375,0.028797533363103867,-1.3064167499542236,0.13864880800247192
1733768363986594600,7.382594482421875,0.07425583153963089,-1.0263645648956299,0.2232198864221573
1733768363996554800,7.3925546875,0.12433917820453644,-0.5503430962562561,0.3948582112789154
1733768364006514700,7.4025146484375,0.17875182628631592,-0.16877171397209167,0.5043503642082214
1733768364016475600,7.4124755859375,0.23776333034038544,-0.012707764282822609,0.487262099981308
1733768364026435800,7.422435791015625,0.26696649193763733,0.06391403824090958,0.4109572172164917
1733768364036395800,7.432395751953125,0.2443317323923111,0.04514281451702118,0.2442675083875656
1733768364046356700,7.442356689453125,0.2063787579536438,-0.11148913949728012,0.03513799607753754
1733768364056317000,7.45231689453125,0.16686855256557465,-0.2695188522338867,-0.12221565842628479
1733768364066276900,7.46227685546875,0.14025157690048218,-0.3540939390659332,-0.20264604687690735
1733768364076237600,7.472237548828125,0.09557097405195236,-0.40554600954055786,-0.2399003654718399
1733768364086197800,7.48219775390625,0.06621281802654266,-0.3342052400112152,-0.20364435017108917
1733768364096157700,7.49215771484375,0.07525307685136795,-0.28513550758361816,-0.23854641616344452
1733768364106118700,7.50211865234375,0.08311765640974045,-0.6490349173545837,-0.5422812700271606
1733768364116078800,7.512078857421875,0.019925838336348534,-0.7504681944847107,-0.6134182214736938
1733768364126038800,7.522038818359375,-0.11611402034759521,-0.39802759885787964,-0.2987137734889984
1733768364135999700,7.531999755859375,-0.17346306145191193,0.22322191298007965,0.21305155754089355
1733768364145960000,7.5419599609375,-0.043173495680093765,0.8909496665000916,0.7623533010482788
1733768364155920000,7.551919921875,0.19396346807479858,1.5478767156600952,1.1729525327682495
1733768364165880600,7.561880615234375,0.36186912655830383,2.02482271194458,1.2140634059906006
1733768364175840800,7.5718408203125,0.299206018447876,2.2217729091644287,0.8587139844894409
1733768364185800700,7.58180078125,0.15430371463298798,2.07157826423645,0.11113482713699341
1733768364195761700,7.59176171875,-0.028456930071115494,1.6815470457077026,-0.5814560055732727
1733768364205721900,7.601721923828125,-0.26779842376708984,1.2759956121444702,-0.6786523461341858
1733768364215681800,7.611681884765625,-0.41952499747276306,0.6226333975791931,-0.3921374976634979
1733768364225642800,7.621642822265625,-0.4112266004085541,-0.7819970846176147,-0.11213434487581253
1733768364235603000,7.63160302734375,-0.36337733268737793,-2.380497694015503,0.09970390796661377
1733768364245563000,7.64156298828125,-0.31161320209503174,-3.6325721740722656,0.1508949100971222
1733768364255523600,7.651523681640625,-0.26637938618659973,-4.41096305847168,0.04631483182311058
1733768364265483800,7.66148388671875,-0.21418727934360504,-4.456871032714844,0.0020427084527909756
1733768364275443700,7.671443603515625,-0.17445357143878937,-3.915245532989502,-0.08546387404203415
1733768364285404700,7.68140478515625,-0.19801215827465057,-2.934739112854004,-0.31607285141944885
1733768364295364900,7.69136474609375,-0.18565718829631805,-1.9835466146469116,-0.6898990869522095
1733768364305324800,7.70132470703125,-0.13108903169631958,-1.2159115076065063,-1.0113046169281006
1733768364315285800,7.71128564453125,-0.06557153910398483,-0.6474655270576477,-1.1943793296813965
1733768364325246000,7.721245849609375,-0.06499815732240677,-0.22671087086200714,-1.3106367588043213
1733768364335206000,7.731205810546875,-0.08456448465585709,0.09722158312797546,-1.4093669652938843
1733768364345166600,7.74116650390625,-0.06911735236644745,0.42412087321281433,-1.4336645603179932
1733768364355126800,7.751126708984375,0.0009796516969799995,0.7072306871414185,-1.410805583000183
1733768364365086700,7.761086669921875,0.13528180122375488,0.9675717353820801,-1.4681471586227417
1733768364375047700,7.771047607421875,0.22629082202911377,1.2982529401779175,-1.7513700723648071
1733768364385007900,7.7810078125,0.22276799380779266,1.4454426765441895,-2.0524237155914307
1733768364394967800,7.7909677734375,0.13964904844760895,1.440881609916687,-2.123662233352661
1733768364404928800,7.8009287109375,0.023615648970007896,1.2894508838653564,-1.9750711917877197
1733768364414888700,7.810888671875,-0.05954974517226219,1.0345276594161987,-1.6865487098693848
1733768364424849000,7.820848876953125,-0.07716149836778641,0.6987743973731995,-1.3312699794769287
1733768364434809600,7.8308095703125,-0.050384167581796646,0.32913023233413696,-0.9845089316368103
1733768364444769500,7.84076953125,0.02637079916894436,-0.004125211387872696,-0.7617086172103882
1733768364454729700,7.850729736328125,0.10316222161054611,-0.18288910388946533,-0.6735196709632874
1733768364464690700,7.860690673828125,0.08744344860315323,-0.1926053762435913,-0.6537585258483887
1733768364474650600,7.870650634765625,0.059491440653800964,-0.04508569836616516,-0.5965647101402283
1733768364484610800,7.88061083984375,0.08639322966337204,0.18159057199954987,-0.4380105435848236
1733768364494571800,7.89057177734375,0.1362401843070984,0.4066685736179352,-0.18984270095825195
1733768364504531700,7.90053173828125,0.1436232626438141,0.5614195466041565,0.06282258778810501
1733768364514492000,7.910491943359375,0.10128508508205414,0.6290227174758911,0.24856005609035492
1733768364524452600,7.92045263671875,0.06587622314691544,0.6731435656547546,0.38457435369491577
1733768364534412000,7.930412109375,0.06488418579101562,0.6933532953262329,0.5268858075141907
1733768364544372000,7.9403720703125,0.09123749285936356,0.6454678177833557,0.6293940544128418
1733768364554333000,7.9503330078125,0.10731121897697449,0.5206809043884277,0.5868331789970398
1733768364564292900,7.96029296875,0.04721220210194588,0.3489954173564911,0.3691972494125366
1733768364574252800,7.970252685546875,-0.06345511227846146,0.013206325471401215,0.012220975011587143
1733768364584214000,7.980214111328125,-0.11882302910089493,-0.32377302646636963,-0.36628398299217224
1733768364594174000,7.990174072265625,-0.09128162264823914,-0.5234580039978027,-0.6579390168190002
1733768364604134000,8.0001337890625,-0.09364385157823563,-0.5300415754318237,-0.8120593428611755
1733768364614094800,8.0100947265625,-0.14654342830181122,-0.34423011541366577,-0.8799757957458496
1733768364624054800,8.0200546875,-0.23228657245635986,0.01242494024336338,-0.9193466305732727
1733768364634014700,8.0300146484375,-0.3153873085975647,0.5173229575157166,-0.9105556607246399
1733768364643976000,8.039975830078125,-0.3831208050251007,1.0404444932937622,-0.8642597794532776
1733768364653935900,8.049935791015624,-0.4165981113910675,1.3475706577301025,-0.8626965880393982
1733768364663895800,8.059895751953125,-0.3897276222705841,1.5021964311599731,-0.9389389157295227
1733768364673857000,8.06985693359375,-0.3038475513458252,1.6117178201675415,-1.0272181034088135
1733768364683817000,8.07981689453125,-0.22673681378364563,1.7335846424102783,-1.0010877847671509
1733768364693777000,8.08977685546875,-0.13185037672519684,1.7784632444381714,-0.726141631603241
1733768364703737900,8.09973779296875,0.18449588119983673,1.6210895776748657,-0.17753152549266815
1733768364713697800,8.10969775390625,0.6164712905883789,1.3418551683425903,0.48235827684402466
1733768364723657700,8.11965771484375,0.9854066967964172,1.0314298868179321,1.04258131980896
1733768364733619000,8.129618896484375,1.2826831340789795,0.49991708993911743,0.8930819034576416
1733768364743579000,8.139578857421874,1.3362904787063599,-0.16441111266613007,-0.00027947453781962395
1733768364753538800,8.149538818359375,0.7094895243644714,-0.4114800691604614,-0.25224998593330383
1733768364763500000,8.1595,0.02400064840912819,0.013251523487269878,0.31751683354377747
1733768364773460000,8.1694599609375,-0.3196913003921509,0.5088739395141602,1.200262427330017
1733768364783420000,8.179419921875,-0.3944403827190399,0.8803603649139404,1.9092682600021362
1733768364793380900,8.189380859375,-0.3204212486743927,1.3105205297470093,2.361306667327881
1733768364803340800,8.1993408203125,-0.2546081244945526,1.666603446006775,2.6188368797302246
1733768364813300700,8.20930078125,-0.30957746505737305,1.82134211063385,2.7147583961486816
1733768364823262000,8.219261962890625,-0.46662914752960205,1.7733404636383057,2.6303951740264893
1733768364833222000,8.229221923828124,-0.6803513765335083,1.5448673963546753,2.390662670135498
1733768364843181800,8.239181884765625,-0.7964971661567688,1.3067210912704468,2.081834316253662
1733768364853143000,8.24914306640625,-0.7983798384666443,1.0725146532058716,1.7160320281982422
1733768364863103000,8.25910302734375,-0.7207774519920349,0.727462649345398,1.3265753984451294
1733768364873063000,8.26906298828125,-0.6275265216827393,0.3336885869503021,0.9562549591064453
1733768364883024000,8.27902392578125,-0.5592244267463684,0.17916558682918549,0.7095615863800049
1733768364892983800,8.28898388671875,-0.44641435146331787,0.2766433656215668,0.5823590159416199
1733768364902943700,8.29894384765625,-0.3131987750530243,0.5341656804084778,0.5290923118591309
1733768364912905000,8.308905029296875,-0.23379768431186676,0.786707878112793,0.547137439250946
1733768364922865000,8.318864990234376,-0.1702972650527954,0.9510976076126099,0.6342009902000427
1733768364932824800,8.328824951171875,-0.11867158114910126,0.9615680575370789,0.748314619064331
1733768364942785000,8.338784912109375,-0.03846755996346474,0.883418619632721,0.8221232891082764
1733768364952746000,8.34874609375,0.057366639375686646,0.7676966786384583,0.8118668794631958
1733768364962706000,8.358705810546875,0.13928893208503723,0.6801713705062866,0.7225122451782227
1733768364972665900,8.368665771484375,0.1930174082517624,0.6295740008354187,0.5555473566055298
1733768364982626800,8.378626708984376,0.21329738199710846,0.4511682689189911,0.22330838441848755
1733768364992586800,8.388586669921875,0.24542726576328278,0.3679465651512146,-0.1190028190612793
1733768365002546700,8.398546630859375,0.3078339099884033,0.42490091919898987,-0.2948071360588074
1733768365012508000,8.4085078125,0.39043015241622925,0.6431591510772705,-0.28564053773880005
1733768365022467800,8.4184677734375,0.46151259541511536,0.9478745460510254,-0.20569591224193573
1733768365032427800,8.428427734375,0.5180466771125793,1.2850255966186523,-0.1738130748271942
1733768365042389000,8.438388916015626,0.5378395318984985,1.5040956735610962,-0.2430824339389801
1733768365052349000,8.448348876953125,0.556605875492096,1.5868855714797974,-0.3722478747367859
1733768365062308900,8.458308837890625,0.5712756514549255,1.5387502908706665,-0.5047638416290283
1733768365072269800,8.468269775390626,0.5829952955245972,1.5337803363800049,-0.5708541870117188
1733768365082229800,8.478229736328124,0.5935640931129456,1.577415108680725,-0.5451130867004395
1733768365092189700,8.488189697265625,0.4656340777873993,2.1135659217834473,0.019298434257507324
1733768365102151000,8.49815087890625,0.20249992609024048,2.5131449699401855,0.9276305437088013
1733768365112110800,8.50811083984375,0.1267535388469696,1.5861263275146484,1.0958209037780762
1733768365122070800,8.51807080078125,0.20366401970386505,0.3193647265434265,0.9274482131004333
1733768365132032000,8.528031982421876,0.2101709097623825,-0.5448884963989258,0.7761468887329102
1733768365141992000,8.537991943359375,0.19004939496517181,-0.9985030889511108,0.6927332282066345
1733768365151952000,8.547951904296875,0.19483093917369843,-1.145650863647461,0.6335508823394775
1733768365161912800,8.557912841796876,0.16816896200180054,-1.129792332649231,0.5720832347869873
1733768365171872800,8.567872802734374,0.1627572476863861,-1.0564110279083252,0.5118945837020874
1733768365181832700,8.577832763671875,0.15436722338199615,-0.9569464325904846,0.423237144947052
1733768365191794000,8.5877939453125,0.1214137151837349,-0.8354366421699524,0.314966082572937
1733768365201753900,8.59775390625,0.09616108983755112,-0.689093828201294,0.20962342619895935
1733768365211713800,8.6077138671875,0.10481417924165726,-0.5048943161964417,0.10836151987314224
1733768365221675000,8.617675048828126,0.13171450793743134,-0.21211516857147217,-0.009776841849088669
1733768365231635000,8.627635009765624,0.17450778186321259,0.30482304096221924,-0.07787972688674927
1733768365241595000,8.637594970703125,0.2188001424074173,1.402398705482483,0.054327577352523804
1733768365251555800,8.647555908203126,0.27904847264289856,2.459426164627075,0.1835251897573471
1733768365261515800,8.657515869140624,0.2842903733253479,2.7397451400756836,0.06144615635275841
1733768365271475700,8.667475830078125,0.2361096441745758,2.4010024070739746,-0.092967689037323
1733768365281437000,8.67743701171875,0.1790090799331665,1.8222967386245728,-0.12800289690494537
1733768365291396900,8.68739697265625,0.15367555618286133,1.1286752223968506,-0.07438873499631882
1733768365301356800,8.697356689453125,0.14153394103050232,0.45182591676712036,-0.02957732416689396
1733768365311318000,8.707318115234376,0.13138632476329803,-0.04117708280682564,-0.032617226243019104
1733768365321278000,8.71727783203125,0.1468566358089447,-0.26221174001693726,-0.08444713801145554
1733768365331238000,8.72723779296875,0.17005446553230286,-0.24420180916786194,-0.1282942295074463
1733768365341198800,8.73719873046875,0.14302045106887817,-0.07397869229316711,-0.12397988885641098
1733768365351158800,8.74715869140625,0.1436140537261963,0.07981809228658676,-0.08798903971910477
1733768365361118700,8.75711865234375,0.17634670436382294,0.20122893154621124,-0.029343565925955772
1733768365371080000,8.767079833984376,0.21792684495449066,0.34031742811203003,0.011003164574503899
1733768365381039900,8.777039794921874,0.2256673127412796,0.5121933817863464,0.019237393513321877
1733768365390999800,8.786999755859375,0.18491284549236298,0.6679373979568481,-0.02055799774825573
1733768365400961000,8.7969609375,0.1056089699268341,0.7511588335037231,-0.11201786994934082
1733768365410921000,8.8069208984375,0.020351596176624298,0.9863439202308655,-0.11992080509662628
1733768365420881000,8.816880859375,-0.031103072687983513,1.2534606456756592,-0.23009204864501953
1733768365430841900,8.826841796875,-0.15599001944065094,1.2311756610870361,-0.5969423651695251
1733768365440801800,8.8368017578125,-0.2541149854660034,1.3680884838104248,-0.7941572070121765
1733768365450761700,8.84676171875,-0.2060636729001999,1.6005356311798096,-0.9570856690406799
1733768365460723000,8.856722900390626,-0.16039499640464783,2.00339937210083,-0.9335790276527405
1733768365470683000,8.866682861328124,-0.2730705440044403,2.4211933612823486,-0.6802756786346436
1733768365480642800,8.876642822265625,-0.3675035536289215,2.329937219619751,-0.6187553405761719
1733768365490604000,8.88660400390625,-0.23124106228351593,1.9421948194503784,-0.7629779577255249
1733768365500564000,8.89656396484375,0.020453225821256638,1.5862692594528198,-0.8941708207130432
1733768365510524000,8.90652392578125,0.21831682324409485,1.7050224542617798,-0.6720000505447388
1733768365520484900,8.91648486328125,0.32859620451927185,2.0505640506744385,-0.15468183159828186
1733768365530444300,8.9264443359375,0.3059196472167969,2.3755545616149902,0.2948286533355713
1733768365540404500,8.936404541015625,0.11268096417188644,2.553844928741455,0.499313086271286
1733768365550365400,8.946365478515625,-0.15638843178749084,2.6205601692199707,0.5357673168182373
1733768365560325400,8.956325439453124,-0.38683632016181946,2.5746116638183594,0.507844090461731
1733768365570285600,8.96628564453125,-0.46591195464134216,2.402489185333252,0.4164808392524719
1733768365580246500,8.97624658203125,-0.4728601276874542,1.7959173917770386,0.1822507530450821
1733768365590206500,8.98620654296875,-0.4953213930130005,0.7258204221725464,-0.14826275408267975
1733768365600166700,8.996166748046875,-0.4891689419746399,-0.4067263603210449,-0.46143025159835815
1733768365610127400,9.00612744140625,-0.44409888982772827,-1.3946995735168457,-0.6788498163223267
1733768365620087300,9.01608740234375,-0.4243512749671936,-2.128770589828491,-0.7016563415527344
1733768365630047500,9.026047607421875,-0.4601375162601471,-2.634859085083008,-0.5215337872505188
1733768365640008400,9.036008544921875,-0.5287133455276489,-2.883391857147217,-0.21651425957679749
1733768365649968400,9.045968505859374,-0.5906859636306763,-2.923588991165161,0.059453949332237244
1733768365659928600,9.055928466796875,-0.5633898973464966,-2.7493152618408203,0.17031069099903107
1733768365669889500,9.0658896484375,-0.42643165588378906,-2.3819124698638916,0.08327426761388779
1733768365679849500,9.075849365234374,-0.28964290022850037,-1.7906289100646973,-0.19951428472995758
1733768365689809700,9.0858095703125,-0.36875849962234497,-0.6523955464363098,-0.8780099749565125
1733768365699770400,9.095770263671875,-0.4318663775920868,0.8352637887001038,-1.5589884519577026
1733768365709730300,9.105730224609376,-0.2038421779870987,2.136461019515991,-1.7689062356948853
1733768365719690500,9.1156904296875,0.13883207738399506,2.9584176540374756,-1.4694063663482666
1733768365729651500,9.1256513671875,0.293788880109787,3.3054733276367188,-0.92270427942276
1733768365739611400,9.135611328125,0.2855179011821747,3.390906810760498,-0.4005202054977417
1733768365749571600,9.145571533203125,0.23811206221580505,3.417356014251709,-0.11164019256830215
1733768365759532500,9.155532470703125,0.20025628805160522,3.464449405670166,-0.12523935735225677
1733768365769492500,9.165492431640626,0.2208181917667389,3.4475319385528564,-0.3242492377758026
1733768365779452700,9.17545263671875,0.1862865835428238,3.3777201175689697,-0.5983484387397766
1733768365789413400,9.185413330078125,0.04989100992679596,3.1932108402252197,-0.8280171155929565
1733768365799373300,9.195373291015626,-0.058564357459545135,2.887455940246582,-0.8873670101165771
1733768365809333500,9.20533349609375,-0.09073072671890259,2.4790313243865967,-0.8326049447059631
1733768365819294500,9.21529443359375,-0.12038981914520264,2.010460615158081,-0.7809665203094482
1733768365829254400,9.22525439453125,-0.1856878101825714,1.5309799909591675,-0.8092843294143677
1733768365839214600,9.235214599609375,-0.2473706156015396,1.1305848360061646,-0.9360635876655579
1733768365849175600,9.245175537109375,-0.285205215215683,0.9371170997619629,-1.1557964086532593
1733768365859135500,9.255135498046876,-0.31779247522354126,1.1101235151290894,-1.3641469478607178
1733768365869095700,9.265095703125,-0.3212719261646271,1.644400954246521,-1.4590409994125366
1733768365879056400,9.275056396484375,-0.22904425859451294,2.313997745513916,-1.4377199411392212
1733768365889016300,9.285016357421876,-0.08105550706386566,2.9489901065826416,-1.3300881385803223
1733768365898976500,9.2949765625,0.07226347923278809,3.4396581649780273,-1.1926250457763672
1733768365908937500,9.3049375,0.20313824713230133,3.787348508834839,-1.059122920036316
1733768365918897400,9.3148974609375,0.28577321767807007,4.066282749176025,-0.8835572004318237
1733768365928857600,9.324857666015625,0.3356098234653473,4.37732458114624,-0.4873209595680237
1733768365938818600,9.334818603515625,0.509536862373352,4.070540428161621,-0.08417351543903351
1733768365948778500,9.344778564453126,0.7255831956863403,3.1862316131591797,0.33468660712242126
1733768365958738700,9.35473876953125,0.8322063088417053,2.3536489009857178,0.910077691078186
1733768365968699400,9.364699462890625,0.8716763854026794,1.8257417678833008,1.5301105976104736
1733768365978659300,9.374659423828126,0.9529839754104614,1.5239896774291992,2.023681163787842
1733768365988619500,9.38461962890625,1.0209145545959473,1.497380256652832,2.341890811920166
1733768365998580500,9.39458056640625,1.0524567365646362,1.8113741874694824,2.4808552265167236
1733768366008540400,9.40454052734375,1.226916790008545,2.5568158626556396,2.545642614364624
1733768366018500600,9.41450048828125,0.9510220885276794,3.633066177368164,2.2767884731292725
1733768366028461600,9.424461669921875,0.33077120780944824,4.58223295211792,1.7059440612792969
1733768366038421500,9.43442138671875,-0.16825458407402039,4.807655334472656,1.1045680046081543
1733768366048381400,9.44438134765625,-0.24587123095989227,4.486580848693848,0.6309618949890137
1733768366058342400,9.45434228515625,-0.07862046360969543,3.9611353874206543,0.308679461479187
1733768366068302300,9.46430224609375,-0.15988759696483612,3.7352747917175293,0.18561790883541107
1733768366078262500,9.474262451171874,-0.4451896548271179,3.8299014568328857,0.2501039505004883
1733768366088223500,9.484223388671875,-0.5605130791664124,4.019807815551758,0.3613438010215759
1733768366098183400,9.494183349609376,-0.5616825222969055,4.148950099945068,0.39784935116767883
1733768366108143600,9.5041435546875,-0.5827682018280029,4.086751461029053,0.340741902589798
1733768366118104600,9.5141044921875,-0.5992358326911926,3.8526370525360107,0.2649182379245758
1733768366128064500,9.524064453125,-0.611567497253418,3.6444714069366455,0.25597506761550903
1733768366138024400,9.5340244140625,-0.6317044496536255,3.4354472160339355,0.28016188740730286
1733768366147985400,9.5439853515625,-0.6676928997039795,3.1332802772521973,0.3097109794616699
1733768366157945300,9.5539453125,-0.697458028793335,2.7499454021453857,0.30816739797592163
1733768366167905500,9.563905517578124,-0.7061513066291809,2.2144477367401123,0.26973074674606323
1733768366177866500,9.573866455078125,-0.6925231218338013,1.6005581617355347,0.21912430226802826
1733768366187826400,9.583826416015626,-0.6602219939231873,1.0317981243133545,0.18237784504890442
1733768366197786600,9.59378662109375,-0.6459514498710632,0.7336528897285461,0.15768848359584808
1733768366207747600,9.60374755859375,-0.6847972273826599,0.6301013231277466,0.14481449127197266
1733768366217707500,9.61370751953125,-0.6576220989227295,0.6082639098167419,0.1638001650571823
1733768366227667500,9.62366748046875,-0.5733396410942078,0.6980879902839661,0.14593473076820374
1733768366237628400,9.63362841796875,-0.4889283776283264,0.8957328796386719,0.07631675899028778
1733768366247588400,9.64358837890625,-0.3847774863243103,1.2728246450424194,-0.044063545763492584
1733768366257548500,9.653548583984374,-0.28042685985565186,1.7788081169128418,-0.1824059784412384
1733768366267509500,9.663509521484375,-0.16326285898685455,2.3683993816375732,-0.31989139318466187
1733768366277469400,9.673469482421876,-0.07730507105588913,2.945502281188965,-0.4373660981655121
1733768366287429600,9.6834296875,-0.025962097570300102,3.6489157676696777,-0.42113348841667175
1733768366297390300,9.693390380859375,-0.0884326696395874,4.691409587860107,-0.054516345262527466
1733768366307350300,9.703350341796876,-0.13349208235740662,4.625463485717773,-0.08477853238582611
1733768366317310500,9.713310546875,-0.14232419431209564,3.9469311237335205,-0.268010675907135
1733768366327271400,9.723271484375,-0.24424788355827332,3.2724037170410156,-0.2644255459308624
1733768366337231400,9.7332314453125,-0.30751022696495056,2.5530574321746826,-0.13912911713123322
1733768366347191600,9.743191650390624,-0.30343443155288696,1.7754218578338623,0.016742702573537827
1733768366357152500,9.753152587890625,-0.2606757879257202,1.1599081754684448,0.11769435554742813
1733768366367112400,9.763112548828126,-0.25336793065071106,0.7261015176773071,0.21391846239566803
1733768366377072600,9.77307275390625,-0.31687846779823303,0.42017996311187744,0.22072602808475494
1733768366387033300,9.783033447265625,-0.4276158809661865,0.32136741280555725,0.1717342883348465
1733768366396993300,9.7929931640625,-0.5136740803718567,0.4463232159614563,0.11400946229696274
1733768366406953500,9.802953369140624,-0.5453941822052002,0.7583063244819641,0.04537178948521614
1733768366416914400,9.81291455078125,-0.5457438826560974,1.064774751663208,-0.07312609255313873
1733768366426874400,9.822874267578126,-0.5278974175453186,1.2272404432296753,-0.2593052387237549
1733768366436834600,9.83283447265625,-0.45782485604286194,1.3542492389678955,-0.3643040955066681
1733768366446795500,9.84279541015625,-0.3841767907142639,1.4279719591140747,-0.37367480993270874
1733768366456755500,9.85275537109375,-0.3420224189758301,1.4229966402053833,-0.27080008387565613
1733768366466715600,9.862715576171874,-0.3349544107913971,1.3284989595413208,-0.05407746136188507
1733768366476676400,9.87267626953125,-0.31198304891586304,1.120096206665039,0.1964929699897766
1733768366486636300,9.88263623046875,-0.29374873638153076,0.7845459580421448,0.3836824595928192
1733768366496596500,9.892596435546874,-0.2962859272956848,0.3885706067085266,0.47891417145729065
1733768366506557400,9.902557373046875,-0.3263249099254608,0.09465053677558899,0.513268768787384
1733768366516517400,9.912517333984376,-0.3827578127384186,-0.06278302520513535,0.5285806655883789
1733768366526477600,9.9224775390625,-0.41527655720710754,-0.1875738501548767,0.5276107788085938
1733768366536438800,9.932438720703125,-0.38179290294647217,-0.251437246799469,0.5287367701530457
1733768366546398700,9.942398681640626,-0.3468639850616455,-0.21353712677955627,0.5064676403999329
1733768366556358700,9.952358642578124,-0.31567519903182983,-0.0940203070640564,0.4447256922721863
1733768366566319600,9.962319580078125,-0.2796241044998169,0.10859499871730804,0.3380230963230133
1733768366576279600,9.972279541015626,-0.23557034134864807,0.3972683250904083,0.21253228187561035
1733768366586239500,9.982239501953124,-0.1600903570652008,0.714658260345459,0.04049000144004822
1733768366596200700,9.99220068359375,-0.06603045016527176,0.9300307631492615,-0.18166902661323547
1733768366606160600,10.00216064453125,0.05693645030260086,0.9356334209442139,-0.43399301171302795
1733768366616120600,10.01212060546875,0.20042118430137634,0.7851182222366333,-0.6079200506210327
1733768366626081800,10.022081787109375,0.33016690611839294,0.6971140503883362,-0.6947814226150513
1733768366636041700,10.032041748046876,0.5292257070541382,0.9909486174583435,-0.8771418929100037
1733768366646001700,10.042001708984374,0.7842623591423035,1.7802597284317017,-1.2290750741958618
1733768366655962600,10.051962646484375,0.7816705703735352,3.049024820327759,-1.5579900741577148
1733768366665922600,10.061922607421875,0.4494378864765167,4.196264743804932,-1.9337199926376343
1733768366675882500,10.071882568359374,0.16193290054798126,4.355766296386719,-2.134742259979248
1733768366685843700,10.08184375,0.3611076772212982,4.211632251739502,-1.7201672792434692
1733768366695803600,10.0918037109375,0.9370855093002319,3.9605796337127686,-1.0740936994552612
1733768366705763600,10.101763671875,1.476402997970581,3.5155246257781982,-0.7523765563964844
1733768366715724800,10.111724853515625,1.6357502937316895,3.0566813945770264,-0.6977108716964722
1733768366725684700,10.121684814453126,1.3052020072937012,2.7048256397247314,-0.6602635383605957
1733768366735644700,10.131644775390624,0.7174040079116821,2.4792025089263916,-0.4321843385696411
1733768366745605600,10.141605712890625,0.1847730129957199,2.2866716384887695,0.03386645391583443
1733768366755565600,10.151565673828125,-0.18031227588653564,1.8040657043457031,0.5318278074264526
1733768366765525500,10.161525390625,-0.3916776478290558,1.0405833721160889,0.8280696868896484
1733768366775486700,10.17148681640625,-0.5555605888366699,0.024578098207712173,0.8723841309547424
1733768366785446700,10.18144677734375,-0.7196160554885864,-1.089613437652588,0.7451034188270569
1733768366795406600,10.191406494140624,-0.8567326068878174,-2.1241140365600586,0.5661554932594299
1733768366805367800,10.201367919921875,-0.9285933375358582,-2.980818271636963,0.41695404052734375
1733768366815327700,10.21132763671875,-0.9222944378852844,-3.5186824798583984,0.2870218753814697
1733768366825287700,10.22128759765625,-0.8357039093971252,-3.766303062438965,0.07933327555656433
1733768366835248600,10.23124853515625,-0.7655277848243713,-3.765859365463257,-0.15219449996948242
1733768366845208600,10.24120849609375,-0.7087623476982117,-3.51796293258667,-0.3649471402168274
1733768366855168500,10.25116845703125,-0.6189285516738892,-3.119563579559326,-0.5733147263526917
1733768366865129700,10.261129638671875,-0.5241992473602295,-2.5182461738586426,-0.7488373517990112
1733768366875089700,10.271089599609375,-0.5079960227012634,-1.4168074131011963,-1.2849210500717163
1733768366885049600,10.281049560546874,-0.509961724281311,0.2972571551799774,-2.0713939666748047
1733768366895010800,10.2910107421875,-0.3936612010002136,2.0274314880371094,-2.405667781829834
1733768366904970800,10.300970703125,-0.1624709963798523,3.1536691188812256,-2.2291371822357178
1733768366914930700,10.3109306640625,0.06793450564146042,3.6606974601745605,-1.7987828254699707
1733768366924891600,10.3208916015625,0.1524236500263214,3.644442558288574,-1.349068522453308
1733768366934851600,10.3308515625,0.07299379259347916,3.32450270652771,-1.0285680294036865
1733768366944811500,10.3408115234375,-0.030494393780827522,2.840301752090454,-0.9287949204444885
1733768366954772700,10.350772705078125,-0.050908587872982025,2.269256830215454,-1.060227394104004
1733768366964732700,10.360732666015625,-0.053603000938892365,1.6345736980438232,-1.2689756155014038
1733768366974692600,10.370692626953126,-0.0315706729888916,1.0056105852127075,-1.3475357294082642
1733768366984653800,10.38065380859375,0.02532227709889412,0.5703692436218262,-1.1716492176055908
1733768366994613800,10.39061376953125,0.12733305990695953,0.26009315252304077,-0.8275080919265747
1733768367004573700,10.40057373046875,0.21771228313446045,0.1263965219259262,-0.4705456793308258
1733768367014534700,10.41053466796875,0.2707022428512573,0.19742995500564575,-0.23371261358261108
1733768367024494600,10.42049462890625,0.34056442975997925,0.35524460673332214,-0.14507649838924408
1733768367034454500,10.43045458984375,0.3766624629497528,0.558740496635437,-0.10149727761745453
1733768367044415700,10.440415771484375,0.37983906269073486,0.6802408695220947,-0.025814076885581017
1733768367054375700,10.450375732421875,0.38055410981178284,0.7769517302513123,0.05255503207445145
1733768367064335600,10.460335693359376,0.37618696689605713,0.8446401357650757,0.04925904795527458
1733768367074296800,10.470296875,0.4161836504936218,0.9274167418479919,0.014997214078903198
1733768367084256800,10.4802568359375,0.4100017845630646,1.1274369955062866,0.008383519947528839
1733768367094216700,10.490216796875,0.2132224142551422,1.2644984722137451,-0.055850327014923096
1733768367104177700,10.500177734375,-0.1370256394147873,1.239260196685791,-0.219636008143425
1733768367114137600,10.5101376953125,-0.3527696430683136,1.004868507385254,-0.42507413029670715
1733768367124097500,10.52009765625,-0.38219743967056274,0.5864483714103699,-0.5803601145744324
1733768367134058800,10.530058837890625,-0.34812575578689575,0.037370845675468445,-0.6664702296257019
1733768367144018700,10.540018798828125,-0.3327830731868744,-0.4827704429626465,-0.7024905681610107
1733768367153978600,10.549978515625,-0.3556060791015625,-0.8540414571762085,-0.6824201941490173
1733768367163939800,10.55993994140625,-0.3923110067844391,-1.0930348634719849,-0.6213274002075195
1733768367173899800,10.569899658203125,-0.33474916219711304,-1.2064088582992554,-0.5881044864654541
1733768367183859700,10.579859619140626,-0.19418856501579285,-1.1123425960540771,-0.7354027628898621
1733768367193820700,10.589820556640625,-0.1187095195055008,-0.4063529670238495,-1.1448330879211426
1733768367203780600,10.599780517578125,-0.09464281797409058,1.041661024093628,-1.488513708114624
1733768367213740500,10.609740478515626,-0.12684069573879242,2.984386920928955,-1.192083477973938
1733768367223701800,10.61970166015625,-0.06969472765922546,5.559503078460693,0.017981665208935738
1733768367233661700,10.62966162109375,0.44468817114830017,7.5715227127075195,1.2773034572601318
1733768367243621600,10.63962158203125,1.171494722366333,6.999231815338135,1.1294511556625366
1733768367253582600,10.64958251953125,1.409195065498352,6.007602214813232,0.9809808731079102
1733768367263542500,10.65954248046875,1.248689889907837,4.669407844543457,0.9849472045898438
1733768367273502500,10.66950244140625,0.8627169728279114,3.2364132404327393,1.1333599090576172
1733768367283463700,10.679463623046875,0.42494553327560425,2.1774682998657227,1.3802531957626343
1733768367293423600,10.689423583984375,0.16264653205871582,1.2873414754867554,1.5775423049926758
1733768367303383600,10.699383544921876,0.06350935995578766,0.5468209981918335,1.7240114212036133
1733768367313344800,10.7093447265625,-0.07783791422843933,-0.0019654217176139355,1.8028929233551025
1733768367323304700,10.7193046875,-0.25081315636634827,-0.3778271973133087,1.7996596097946167
1733768367333264600,10.7292646484375,-0.363538920879364,-0.6072769165039062,1.7041118144989014
1733768367343225600,10.7392255859375,-0.4332541525363922,-0.7175819873809814,1.4531422853469849
1733768367353185500,10.749185546875,-0.4973343312740326,-0.701319694519043,1.1325507164001465
1733768367363145500,10.7591455078125,-0.5723331570625305,-0.6225817799568176,0.8421796560287476
1733768367373106700,10.769106689453125,-0.6614598035812378,-0.4692734181880951,0.5868717432022095
1733768367383066600,10.779066650390625,-0.7268231511116028,-0.25741738080978394,0.37287625670433044
1733768367393026600,10.789026611328126,-0.68601393699646,-0.14762619137763977,0.20495010912418365
1733768367402987800,10.79898779296875,-0.5669190883636475,-0.132757768034935,0.1103774756193161
1733768367412947700,10.80894775390625,-0.41481658816337585,-0.23121829330921173,0.0734383687376976
1733768367422907600,10.81890771484375,-0.28945890069007874,-0.2970011234283447,0.03504650294780731
1733768367432868600,10.82886865234375,-0.1931169182062149,-0.3411824405193329,-0.07943693548440933
1733768367442828500,10.83882861328125,-0.09039418399333954,-0.35459673404693604,-0.278103232383728
1733768367452788500,10.84878857421875,-0.02506071887910366,-0.23370704054832458,-0.4746732711791992
1733768367462749700,10.858749755859375,0.038092225790023804,-0.01208692230284214,-0.5977791547775269
1733768367472709600,10.868709716796875,0.13929608464241028,0.24122576415538788,-0.6012894511222839
1733768367482669600,10.878669677734376,0.2492835372686386,0.44386813044548035,-0.48399150371551514
1733768367492630800,10.888630859375,0.3218703866004944,0.5609390735626221,-0.2916627824306488
1733768367502590700,10.8985908203125,0.3491080403327942,0.5810890197753906,-0.09412549436092377
1733768367512550700,10.908550537109376,0.36236897110939026,0.5464836359024048,0.04675333574414253
1733768367522511600,10.91851171875,0.3567742109298706,0.4879007339477539,0.11624851822853088
1733768367532471300,10.92847119140625,0.3358849287033081,0.3832654058933258,0.11833377927541733
1733768367542431200,10.93843115234375,0.32510367035865784,0.29008007049560547,0.07178033888339996
1733768367552392400,10.948392333984375,0.30848821997642517,0.2368895262479782,0.004864152055233717
1733768367562352400,10.958352294921875,0.2854045331478119,0.22619418799877167,-0.07290414720773697
1733768367572312300,10.968312255859376,0.26255062222480774,0.24600596725940704,-0.16183879971504211
1733768367582273500,10.9782734375,0.24420006573200226,0.24606876075267792,-0.22459939122200012
1733768367592233500,10.9882333984375,0.24737270176410675,0.20770405232906342,-0.25552719831466675
1733768367602193400,10.998193359375,0.25061526894569397,0.15615932643413544,-0.2601652145385742
1733768367612154400,11.008154296875,0.24813108146190643,0.14446325600147247,-0.23818455636501312
1733768367622114300,11.0181142578125,0.24060335755348206,0.14400345087051392,-0.24230244755744934
1733768367632074200,11.02807421875,0.23333585262298584,0.14900512993335724,-0.26056718826293945
1733768367642035200,11.03803515625,0.24162557721138,0.4661077558994293,-0.13867074251174927
1733768367651995400,11.047995361328125,0.2902889549732208,1.4585678577423096,0.293888658285141
1733768367661955300,11.057955322265625,0.2984054386615753,1.5785690546035767,0.25908032059669495
1733768367671916300,11.067916259765624,0.34654659032821655,1.008142352104187,0.08405362069606781
1733768367681876500,11.07787646484375,0.44933459162712097,0.3279324471950531,0.11261063814163208
1733768367691836400,11.08783642578125,0.49648797512054443,-0.22347158193588257,0.3376546800136566
1733768367701797000,11.097797119140624,0.4723353087902069,-0.6367064118385315,0.6212068796157837
1733768367711757300,11.10775732421875,0.410684734582901,-0.9342381954193115,0.8363375663757324
1733768367721717200,11.11771728515625,0.337331622838974,-1.162575125694275,0.9486016631126404
1733768367731678200,11.12767822265625,0.3015672564506531,-1.3705354928970337,0.9614013433456421
1733768367741638400,11.137638427734375,0.29637983441352844,-1.522749662399292,0.9219372272491455
1733768367751598300,11.147598388671875,0.3006044328212738,-1.5729990005493164,0.8801668286323547
1733768367761559300,11.157559326171874,0.3191719651222229,-1.4546540975570679,0.8301587700843811
1733768367771519500,11.16751953125,0.3544788360595703,-1.1588200330734253,0.7694382071495056
1733768367781479400,11.1774794921875,0.3904590904712677,-0.7677626609802246,0.6701876521110535
1733768367791440100,11.187440185546874,0.3780759274959564,-0.32271116971969604,0.5363073348999023
1733768367801400300,11.197400390625,0.357070654630661,0.0813734382390976,0.3719337582588196
1733768367811360300,11.2073603515625,0.41074666380882263,0.34177547693252563,0.18484030663967133
1733768367821321200,11.2173212890625,0.49400007724761963,0.4631885588169098,0.011564718559384346
1733768367831281400,11.227281494140625,0.5276504755020142,0.5258489847183228,-0.1354798525571823
1733768367841241300,11.237241455078125,0.5299445986747742,0.5844573974609375,-0.261418879032135
1733768367851202300,11.247202392578124,0.5211843848228455,0.7503816485404968,-0.29222792387008667
1733768367861162500,11.25716259765625,0.5282596349716187,1.2721829414367676,-0.12525416910648346
1733768367871122400,11.267122314453125,0.4821307063102722,1.388352394104004,-0.07643309980630875
1733768367881083100,11.277083251953124,0.4044961929321289,0.9842585325241089,-0.14901025593280792
1733768367891043300,11.287043212890625,0.33966368436813354,0.5184199810028076,-0.11240217089653015
1733768367901003300,11.297003173828125,0.3135823905467987,0.04041377082467079,-0.03293195739388466
1733768367910964200,11.306964111328124,0.2780419588088989,-0.39863789081573486,0.023909220471978188
1733768367920924400,11.31692431640625,0.25542014837265015,-0.7141299843788147,0.05365459620952606
1733768367930884400,11.32688427734375,0.2348450869321823,-0.8817568421363831,0.06085258722305298
1733768367940845300,11.33684521484375,0.20686259865760803,-0.9190104007720947,0.056987594813108444
1733768367950805500,11.346805419921875,0.17830072343349457,-0.8965085744857788,0.01796269603073597
1733768367960765400,11.356765380859375,0.1680777221918106,-0.8647255301475525,-0.07127977907657623
1733768367970726100,11.36672607421875,0.16744521260261536,-0.8621808886528015,-0.15772706270217896
1733768367980686300,11.376686279296875,0.18369607627391815,-0.8285168409347534,-0.21979111433029175
1733768367990646300,11.386646240234375,0.20034323632717133,-0.790135383605957,-0.2891440987586975
1733768368000607200,11.396607177734374,0.22860611975193024,-0.6748140454292297,-0.34931105375289917
1733768368010567400,11.4065673828125,0.272396981716156,-0.35683873295783997,-0.38554149866104126
1733768368020527400,11.41652734375,0.3248612582683563,0.36815527081489563,-0.3543231785297394
1733768368030488300,11.42648828125,0.2544400990009308,1.1441655158996582,-0.3798533082008362
1733768368040448500,11.436448486328125,0.020234370604157448,1.1889008283615112,-0.6923577785491943
1733768368050408400,11.446408447265625,-0.05940799415111542,1.2404390573501587,-0.8460528254508972
1733768368060369200,11.456369140625,0.1167275682091713,1.4418381452560425,-0.7865525484085083
1733768368070329300,11.466329345703125,0.4267573356628418,1.67252516746521,-0.5776544809341431
1733768368080289300,11.476289306640625,0.6363563537597656,1.8271533250808716,-0.28561678528785706
1733768368090250200,11.486250244140624,0.5107446312904358,1.9256149530410767,0.050940196961164474
1733768368100210400,11.49621044921875,0.13916373252868652,1.8626958131790161,0.44056424498558044
1733768368110170400,11.50617041015625,-0.2558067739009857,1.4300479888916016,0.8165149092674255
1733768368120131300,11.51613134765625,-0.547396183013916,0.6761656999588013,1.1151777505874634
1733768368130091500,11.526091552734375,-0.7067927718162537,-0.49647822976112366,1.214036464691162
1733768368140051500,11.536051513671875,-0.7217959761619568,-1.4336984157562256,1.0258411169052124
1733768368150012200,11.54601220703125,-0.7864964008331299,-1.970894694328308,0.6595142483711243
1733768368159972400,11.555972412109375,-0.8980616331100464,-2.3503339290618896,0.20309096574783325
1733768368169932300,11.565932373046875,-0.8896633982658386,-2.5442028045654297,-0.22036762535572052
1733768368179893200,11.575893310546874,-0.8317989706993103,-2.5388243198394775,-0.5611230731010437
1733768368189853400,11.585853515625,-0.7545825242996216,-2.6191205978393555,-0.7819268107414246
1733768368199813400,11.5958134765625,-0.7026650309562683,-2.778472423553467,-0.866998016834259
1733768368209774300,11.6057744140625,-0.724958062171936,-3.128012180328369,-0.8550729155540466
1733768368219734500,11.615734619140625,-0.8032600283622742,-3.4976208209991455,-0.7739453315734863
1733768368229694500,11.625694580078125,-0.8142884373664856,-3.614936351776123,-0.710077166557312
1733768368239655200,11.6356552734375,-0.8019216060638428,-3.157789945602417,-1.029215693473816
1733768368249615400,11.645615478515625,-0.9721604585647583,-1.4511266946792603,-2.2879793643951416
1733768368259575300,11.6555751953125,-0.8712208867073059,0.1443490982055664,-3.193918466567993
1733768368269536300,11.665536376953124,-0.4154980778694153,0.9595254063606262,-3.212952136993408
1733768368279496400,11.675496337890625,-0.018801840022206306,1.1598634719848633,-2.670093536376953
1733768368289456400,11.685456298828125,0.14039207994937897,1.1649363040924072,-1.8922125101089478
1733768368299417300,11.695417236328124,0.26530662178993225,1.1833831071853638,-1.1650044918060303
1733768368309377500,11.70537744140625,0.4419754147529602,1.136059045791626,-0.7162836790084839
1733768368319337500,11.71533740234375,0.6238842606544495,1.0736664533615112,-0.5680328607559204
1733768368329298200,11.725298095703126,0.7074664831161499,0.8863263726234436,-0.6143404245376587
1733768368339258400,11.73525830078125,0.7298598289489746,0.6910409927368164,-0.6638754606246948
1733768368349219300,11.74521923828125,0.7269375324249268,0.5927610397338867,-0.6073768138885498
1733768368359179300,11.75517919921875,0.6688248515129089,0.49269139766693115,-0.43587297201156616
1733768368369139500,11.765139404296875,0.6034210920333862,0.45023369789123535,-0.2011270374059677
1733768368379100400,11.775100341796875,0.5730778574943542,0.3417428135871887,0.014996999874711037
1733768368389060400,11.785060302734376,0.5237950086593628,0.135597363114357,0.1964634656906128
1733768368399020500,11.7950205078125,0.3767353296279907,0.033483367413282394,0.4028409421443939
1733768368408981200,11.804981201171875,0.1832103282213211,0.03970291465520859,0.586014986038208
1733768368418941200,11.814941162109376,0.05856047570705414,0.08185289055109024,0.6459365487098694
1733768368428901400,11.8249013671875,-0.029409589245915413,0.04942357912659645,0.5724369883537292
1733768368438862300,11.8348623046875,-0.0424351841211319,-0.08394045382738113,0.40110111236572266
1733768368448822300,11.844822265625,0.01803508587181568,-0.16690723598003387,0.09940227121114731
1733768368458782500,11.854782470703125,-0.006192176602780819,-0.1635487824678421,-0.36702391505241394
1733768368468743400,11.864743408203125,-0.0466487891972065,-0.21591238677501678,-0.8224220871925354
1733768368478703400,11.874703369140626,-0.12273702025413513,-0.19726844131946564,-1.0965691804885864
1733768368488663600,11.88466357421875,-0.24597479403018951,-0.21097466349601746,-1.1987240314483643
1733768368498624300,11.894624267578125,-0.37048912048339844,-0.21128827333450317,-1.209896206855774
1733768368508584200,11.904584228515626,-0.4469048082828522,-0.15378502011299133,-1.184055209159851
1733768368518544400,11.91454443359375,-0.45854344964027405,0.016131620854139328,-1.1159462928771973
1733768368528505300,11.92450537109375,-0.3510926365852356,0.3218896687030792,-1.0241180658340454
1733768368538466000,11.934466064453124,-0.09824470430612564,0.6644396185874939,-0.8132947683334351
1733768368548426000,11.944426025390625,0.23225730657577515,0.9482409954071045,-0.37315142154693604
1733768368558386700,11.95438671875,0.5222452282905579,1.1958065032958984,0.2061534821987152
1733768368568347000,11.964346923828124,0.6838300824165344,1.4029831886291504,0.648464024066925
1733768368578306800,11.974306884765625,0.7154378294944763,1.550268292427063,0.8226060271263123
1733768368588267800,11.984267822265625,0.7159867286682129,1.6270264387130737,0.813589870929718
1733768368598228000,11.99422802734375,0.6325565576553345,1.6913409233093262,0.8142362833023071
1733768368608188000,12.00418798828125,0.43178218603134155,1.8326276540756226,0.9130136966705322
1733768368618148900,12.01414892578125,0.14274966716766357,2.0947721004486084,1.1115272045135498
1733768368628109000,12.024109130859374,-0.13356554508209229,2.4080989360809326,1.3236712217330933
1733768368638069000,12.034069091796875,-0.3216381371021271,2.5546820163726807,1.5526320934295654
1733768368648029700,12.04402978515625,-0.4767094850540161,2.417877197265625,1.7602448463439941
1733768368657990000,12.053989990234374,-0.5995223522186279,1.7698971033096313,1.8854259252548218
1733768368667949800,12.06394970703125,-0.6768118143081665,0.6629526615142822,1.9203202724456787
1733768368677910800,12.073910888671875,-0.7382584810256958,-0.4985823333263397,1.9229133129119873
1733768368687871000,12.08387109375,-0.665471613407135,-1.4486991167068481,1.8501664400100708
1733768368697831000,12.093830810546875,-0.47054171562194824,-2.0030925273895264,1.6957632303237915
1733768368707792000,12.1037919921875,-0.354266494512558,-2.214191436767578,1.4779198169708252
1733768368717752000,12.113751953125,-0.38038885593414307,-2.0324079990386963,1.2006878852844238
1733768368727712000,12.1237119140625,-0.4266152083873749,-1.527219295501709,0.8669309020042419
1733768368737672700,12.133672607421875,-0.4026392698287964,-0.996922492980957,0.5453148484230042
1733768368747633000,12.1436328125,-0.3256547451019287,-0.5758735537528992,0.29811063408851624
1733768368757592800,12.1535927734375,-0.23169690370559692,-0.2272825837135315,0.1780254989862442
1733768368767553800,12.1635537109375,-0.13902929425239563,0.05428624153137207,0.10943285375833511
1733768368777514000,12.173513916015626,0.0034650596790015697,0.27304646372795105,0.07924885302782059
1733768368787474000,12.183473876953125,0.14734739065170288,0.4757441580295563,0.06517031788825989
1733768368797435000,12.193434814453125,0.26399093866348267,0.624701976776123,0.018452877178788185
1733768368807395000,12.20339501953125,0.3432668447494507,0.7522266507148743,-0.023961691185832024
1733768368817355000,12.21335498046875,0.41754186153411865,0.862779438495636,-0.03777944669127464
1733768368827315700,12.223315673828125,0.4539584815502167,0.9565829038619995,-0.012830954976379871
1733768368837276000,12.23327587890625,0.4754721522331238,1.0200278759002686,0.05277054011821747
1733768368847235800,12.24323583984375,0.49074751138687134,1.0346049070358276,0.11767789721488953
1733768368857196800,12.25319677734375,0.5103086829185486,1.039610505104065,0.1695241630077362
1733768368867157000,12.263156982421876,0.5144733190536499,1.0796165466308594,0.20619694888591766
1733768368877117000,12.273116943359375,0.5270916223526001,1.0756877660751343,0.2411872297525406
1733768368887078000,12.283077880859375,0.5295718312263489,1.0327796936035156,0.2864718735218048
1733768368897038000,12.2930380859375,0.5149496793746948,0.9427709579467773,0.32036229968070984
1733768368906998000,12.302998046875,0.49015936255455017,0.8573639392852783,0.3111720085144043
1733768368916958700,12.312958740234375,0.4756124019622803,0.791209876537323,0.26568180322647095
1733768368926919000,12.3229189453125,0.4615069627761841,0.7575864195823669,0.1821562796831131
1733768368936878800,12.33287890625,0.44690775871276855,0.6945143342018127,0.08103183656930923
1733768368946839800,12.34283984375,0.4262503981590271,0.610133945941925,-0.030884044244885445
1733768368956799700,12.3527998046875,0.3849603831768036,0.550537109375,-0.13221599161624908
1733768368966760000,12.362760009765625,0.35899588465690613,0.5298680663108826,-0.1825747787952423
1733768368976721000,12.372720947265625,0.3265380263328552,0.42326781153678894,-0.16279976069927216
1733768368986680800,12.382680908203126,0.3172747790813446,0.5289897322654724,0.09240270406007767
1733768368996641000,12.39264111328125,0.2984907031059265,0.9614293575286865,0.6252543330192566
1733768369006601700,12.402601806640625,0.21993625164031982,0.7813717126846313,0.757474958896637
1733768369016561700,12.412561767578126,0.30117470026016235,0.19756193459033966,0.6739980578422546
