time,seconds_elapsed,z,y,x
1733512129333148200,0.023148193359375,-0.5053115748494863,-0.01054185228049755,0.03949219856336712
1733512129343223300,0.033223388671875,-0.5775450364112854,-0.11038286721408366,0.11112469855733215
1733512129353297200,0.043297119140625,-0.588961333438754,-0.18526187484860418,0.18668145932294428
1733512129363372300,0.053372314453125,-0.547554679556191,-0.21951076593101024,0.2314293133921921
1733512129373447200,0.063447265625,-0.45375294478684663,-0.2560632577806711,0.23211123124174773
1733512129383522300,0.073522216796875,-0.36768998757600785,-0.26041385420560836,0.2113061244264245
1733512129393596200,0.08359619140625,-0.2731137613028288,-0.23873919801414012,0.1949406805589795
1733512129403671300,0.09367138671875,-0.1801832564100623,-0.23259762651920318,0.17785839365907014
1733512129413746400,0.103746337890625,-0.06973375370055436,-0.1908873135149479,0.17446407504566014
1733512129423821300,0.1138212890625,-0.030466742195189,-0.1309340723335743,0.17150456765294075
1733512129433896200,0.123896240234375,-0.03236833803281188,-0.08536182320415973,0.17312193972170353
1733512129443970300,0.13397021484375,-0.12118833886682986,-0.11342062747478485,0.1561358797378838
1733512129454045200,0.144045166015625,-0.22722966974526643,-0.20565876618921755,0.09971797307580708
1733512129464120000,0.1541201171875,-0.3545344456657767,-0.2750216407507658,0.07191942717656492
1733512129474195200,0.1641953125,-0.49616234597116704,-0.32558512229621406,0.09671813367269932
1733512129484269000,0.17426904296875,-0.6384691684514284,-0.20403437985777853,0.12404087875373661
1733512129494344200,0.18434423828125,-0.8054556741580366,-0.009925181686878204,0.12294804201573133
1733512129504419300,0.19441943359375,-0.9964847342312335,0.1000549499452114,0.11033939339853822
1733512129514494200,0.204494140625,-1.1327698122039436,0.09241641789078713,0.12428024046756327
1733512129524568300,0.214568359375,-1.1856880401819945,0.07036299151480198,0.12011574119925499
1733512129534643200,0.224643310546875,-1.1743056454241274,-0.002618658065795898,0.11409034342989324
1733512129544718300,0.23471826171875,-1.0968978499643505,-0.1028565633624792,0.1888838647380471
1733512129554793500,0.24479345703125,-0.9888736747056245,-0.26302199087738987,0.2899080250415951
1733512129564868000,0.2548681640625,-0.8571766551755369,-0.44700434730947014,0.3892182210341096
1733512129574942500,0.2649423828125,-0.7088863743714988,-0.5838116955906152,0.4828532209344208
1733512129585017000,0.27501708984375,-0.5548883834451437,-0.6482628327131271,0.5356788021929562
1733512129595092200,0.28509228515625,-0.44183366667330265,-0.49237026021182534,0.6206456347301602
1733512129605167000,0.2951669921875,-0.4117844192378223,-0.5034352595835924,0.6103540308836847
1733512129615242200,0.3052421875,-0.38757308417558667,-0.5074959331512451,0.6881378931142389
1733512129625316000,0.315316162109375,-0.3984498674988746,-0.4821335283577442,0.8077782718867063
1733512129635391200,0.32539111328125,-0.4484697436869144,-0.53665539214015,0.8466929628230631
1733512129645466400,0.33546630859375,-0.49067996903732414,-0.6423123998761177,0.8401287089366465
1733512129655541200,0.345541259765625,-0.5224141008198261,-0.7868155633568763,0.7930478088099508
1733512129665615400,0.355615478515625,-0.5432390083141625,-0.8493658352941275,0.636301907414943
1733512129675690200,0.365690185546875,-0.5356675501465797,-0.7979191411733627,0.39625520699881017
1733512129685765400,0.375765380859375,-0.5000399180568754,-0.5858014081031083,0.0968786579966545
1733512129695840300,0.38584033203125,-0.43536929296478627,-0.33208325214385986,-0.2107782280948013
1733512129705914400,0.395914306640625,-0.3813644387938082,-0.17712474562227726,-0.5697823665205389
1733512129715989200,0.4059892578125,-0.33801381123661994,-0.029409049835801122,-0.9052175594408065
1733512129726064000,0.416064208984375,-0.33244317149743435,0.2034960351973772,-1.1954558393500745
1733512129736139300,0.42613916015625,-0.34419439956769343,0.5481202044844627,-1.4613897721514104
1733512129746214100,0.436214111328125,-0.41196394052319224,0.8893383647203444,-1.799345569590479
1733512129756288300,0.446288330078125,-0.5877623329125344,1.1023556769788265,-2.1987248268939554
1733512129766363100,0.456363037109375,-0.8510233932428062,1.1550479872465134,-2.587846747946739
1733512129776438300,0.466438232421875,-1.1504324562750756,1.0939274558514356,-2.9525018978714943
1733512129786513400,0.476513427734375,-1.408085175204277,0.89259181355834,-3.259756413707137
1733512129796588300,0.48658837890625,-1.5842168181359766,0.5504062695950269,-3.431226786829531
1733512129806662400,0.496662353515625,-1.6512772609740494,0.125242582693696,-3.3152684575706717
1733512129816737300,0.5067373046875,-1.565590443599224,-0.17036182735860347,-2.9295798719674346
1733512129826812200,0.516812255859375,-1.3552332904607056,-0.25177929685115813,-2.5197686524987217
1733512129836887300,0.52688720703125,-1.1043214240938424,-0.21754092716276643,-2.1039035398185253
1733512129846961400,0.53696142578125,-0.7844190236091614,-0.18547697890400885,-1.746451160879433
1733512129857036300,0.547036376953125,-0.5147171896416693,-0.11366028144955634,-1.4849078642524778
1733512129867111400,0.557111328125,-0.2519115449286997,-0.04663140279352665,-1.352313165230304
1733512129877186300,0.567186279296875,0.04782857668884098,-0.0861304694890976,-1.335280197364837
1733512129887261400,0.577261474609375,0.4005431134510785,-0.16296704093217848,-1.4082405118964612
1733512129897335300,0.587335205078125,0.7660990116078407,-0.1980237412661314,-1.4974644173562526
1733512129907410400,0.597410400390625,1.0931022570736706,-0.2204360640823841,-1.5417605090700088
1733512129917485600,0.607485595703125,1.3876578887253999,-0.21891864525675772,-1.5542703004226088
1733512129927560400,0.617560546875,1.6747953530751167,-0.1901362028867006,-1.6323283764846621
1733512129937634600,0.627634521484375,1.9820996994018554,-0.053289107117056846,-1.6695901856474578
1733512129947709400,0.63770947265625,2.2692098373532295,0.05435936669707298,-1.6347835145518184
1733512129957784300,0.647784423828125,2.4587369684308764,0.1413286250978708,-1.5561016075029968
1733512129967859200,0.657859130859375,2.5302427002400156,0.23996494041681288,-1.3681946249730885
1733512129977934300,0.667934326171875,2.4169015677422285,0.3506073353499174,-1.1071247910767792
1733512129988008400,0.678008544921875,1.9762579876363275,0.5067068286001682,-0.7880380908891558
1733512129998083300,0.688083251953125,1.37089146284163,0.6686112087368965,-0.5263778898842633
1733512130008158500,0.698158447265625,0.687227134944871,0.7813397622942924,-0.34307858381289985
1733512130018233300,0.7082333984375,-0.027779475872591136,0.8623726163834333,-0.15741799197029321
1733512130028307500,0.718307373046875,-0.7603735466331243,0.8292518525481224,0.03305091346949339
1733512130038382300,0.72838232421875,-1.5805372528403996,0.598830985546112,0.2361891847377643
1733512130048457500,0.73845751953125,-2.4468618217200038,0.3666331719994545,0.5360947260500862
1733512130058532400,0.748532470703125,-4.012945017272234,0.1080021095573902,1.0329079006128012
1733512130068607200,0.758607177734375,-17.719302946943042,-0.05415770664513111,2.4443995232596993
1733512130078681300,0.768681396484375,-26.60945418809652,0.6750070472538471,2.2869391169197857
1733512130088756200,0.778756103515625,-18.836750979113578,1.6552385658204554,0.5119321985656395
1733512130098831400,0.788831298828125,-10.490787279170751,1.952522891783714,-1.10047015549317
1733512130108906200,0.79890625,-6.045287295702099,3.05316416606009,-1.712421611636132
1733512130118980400,0.80898046875,-3.534308098858595,4.008769777414202,-2.149382557706535
1733512130129055500,0.819055419921875,-1.8421283341318369,4.368938137313723,-2.7461437512412665
1733512130139130400,0.82913037109375,-0.9036375237077474,4.4062616135358805,-3.2798622131466866
1733512130149205500,0.83920556640625,-0.49818216136097904,3.9701065770208834,-3.725286013266444
1733512130159280400,0.8492802734375,0.14191943059787154,3.2226831128537654,-3.8181995670244095
1733512130169354500,0.8593544921875,1.5115864662110805,2.572419461712241,-3.5984652214705943
1733512130179429400,0.869429443359375,3.0521169950947162,2.133440015426278,-3.4046441925913093
1733512130189504500,0.87950439453125,4.3523155038148165,2.0212410387009383,-3.2322724867150185
1733512130199579400,0.889579345703125,5.598219820028543,2.114890213257074,-3.022182460080087
1733512130209653500,0.899653564453125,6.85732848573029,2.3147060986369845,-2.561350662948191
1733512130219728400,0.909728271484375,7.8094111836552615,2.462525839319825,-2.0612337341323492
1733512130229803300,0.91980322265625,8.119781785684824,2.227760805633664,-1.5523064530037343
1733512130239878400,0.92987841796875,7.681013936322927,1.451019477045536,-0.8596293090246617
1733512130249953300,0.939953369140625,7.159053424489498,0.44718671813905236,-0.47692770334295925
1733512130260027400,0.95002734375,6.765538090783357,-0.5413420886516571,-0.4034359488157555
1733512130270102300,0.960102294921875,6.352275269556046,-1.390723706036806,-0.44895339901801196
1733512130280177400,0.970177490234375,5.851280388861894,-2.0506068339169023,-0.7218694092590361
1733512130290252500,0.98025244140625,5.314343257170916,-2.49148013112545,-1.0825523676171898
1733512130300326400,0.990326416015625,4.658024251513183,-2.7576638009041545,-1.2573306962437927
1733512130310401500,1.000401611328125,3.805888074722886,-2.863388028657436,-1.342425539074838
1733512130320476400,1.010476318359375,2.995919307054579,-2.944752891179919,-1.303637981649488
1733512130330551300,1.02055126953125,2.416672435161471,-2.9587551130473613,-1.1700009339675306
1733512130340626400,1.03062646484375,1.9787009968742728,-2.8383161312431096,-1.0504157925136386
1733512130350700300,1.0407001953125,1.632102020382881,-2.4897061071902513,-0.9204431125581264
1733512130360775400,1.050775390625,1.4802861958011984,-1.96991241800189,-0.6806959065452217
1733512130370850300,1.060850341796875,1.4357085106670855,-1.3343956696152686,-0.2137064818327315
1733512130380925400,1.070925537109375,1.539478681743145,-0.8235936806559562,0.5037191910915076
1733512130390999300,1.080999267578125,1.758308771933615,-0.46871232124865053,1.3477832667157053
1733512130401074400,1.091074462890625,1.8997277056634425,-0.10185936901867389,2.1926668420292437
1733512130411149300,1.1011494140625,1.7565397164344787,0.3220107709407806,2.8283663996368644
1733512130421224400,1.111224365234375,1.2819389216691255,0.53408174225986,3.4262446145027874
1733512130431299300,1.12129931640625,0.5592775583148002,0.520006455156207,4.151917726893723
1733512130441373400,1.13137353515625,-0.4608908338427543,0.3629869244515896,5.096415961039066
1733512130451448300,1.1414482421875,-2.2916513862639665,0.3303080591648817,6.296106807610392
1733512130461523200,1.151523193359375,-9.523998010501264,0.6480155799537897,8.364635082665085
1733512130471598300,1.161598388671875,-21.29907515838146,1.3483756796509028,9.822523276436328
1733512130481672200,1.171672119140625,-17.180668363684415,0.3618219723254442,8.235265775430202
1733512130491747300,1.181747314453125,-10.611735379540919,-1.2799784352511168,6.918920141768455
1733512130501822500,1.191822509765625,-5.298254292157292,-2.543127316254377,5.90296732147932
1733512130511897300,1.2018974609375,-2.4183526433333755,-3.0218180106818675,5.0809565261006355
1733512130521971500,1.211971435546875,-0.9552025835111737,-3.2500124338060616,4.236666971157491
1733512130532046300,1.22204638671875,-0.11477817956358194,-3.580197743374109,3.238599643909931
1733512130542121500,1.23212158203125,0.23007789878323673,-3.6367069815814492,2.131942908736318
1733512130552196400,1.2421962890625,0.3373061013586819,-3.219550660046935,1.1434881900951266
1733512130562271200,1.252271240234375,0.24587387219965456,-1.9270663789659737,0.37171295948177574
1733512130572345600,1.262345703125,-0.051775779944658276,0.8081856836438178,-0.39163967602737243
1733512130582420200,1.272420166015625,-0.21443945401608944,4.974022338035702,-1.1627867648050187
1733512130592495400,1.282495361328125,0.3507406063407659,8.937877453446388,-1.9236144849464296
1733512130602570200,1.2925703125,1.444385738119483,11.799282783854007,-2.488235157854855
1733512130612645400,1.302645263671875,2.820499319523573,13.80661980036497,-3.1180808748677373
1733512130622719200,1.31271923828125,3.578504675720632,12.293531112897396,-3.5932290743827817
1733512130632794400,1.32279443359375,4.132411354652047,7.052630693078041,-3.377809961679578
1733512130642869500,1.332869384765625,4.6365261209324,2.077447494569421,-3.0923668801575896
1733512130652944400,1.3429443359375,5.416787732601166,-0.5171341145902871,-3.4039129557073116
1733512130663018500,1.3530185546875,7.091196278315782,-2.291781150123477,-4.114914568667113
1733512130673093400,1.36309326171875,9.629186816203594,-3.165410489058494,-5.797764487251639
1733512130683168500,1.37316845703125,11.306268965041637,-3.734364807257056,-7.5005942408084865
1733512130693243400,1.383243408203125,11.458736823791265,-3.778405024513602,-8.176997126334905
1733512130703318300,1.393318359375,10.465354731750487,-2.6984377049535513,-7.912897861614823
1733512130713392400,1.403392333984375,9.20671426808238,-1.391701026636362,-7.5550395322233435
1733512130723467300,1.41346728515625,6.490832676374912,0.02300736609995365,-6.616657442870736
1733512130733542400,1.42354248046875,3.9809219855457543,0.9945476286888122,-5.04258500213027
1733512130743617300,1.4336171875,2.2146096476376056,1.374720081219077,-3.6199545842230316
1733512130753691400,1.44369140625,1.0460423997350037,1.5752449916511773,-2.569948395423591
1733512130763766300,1.453766357421875,0.3033924335800111,1.7146791813045739,-1.8368239441134036
1733512130773841400,1.46384130859375,-0.1274438921302557,1.7268600329637527,-1.2424543218903243
1733512130783916500,1.47391650390625,-0.3074988459855318,1.8064590548574924,-0.5679267287164926
1733512130793990400,1.483990478515625,-0.35166882710158825,1.83721718121469,0.12339732015319167
1733512130804065500,1.4940654296875,-0.14916940172612667,1.6772569208830594,0.6729911773867905
1733512130814140400,1.504140380859375,0.0597960047930479,1.4442805241793393,1.3149497953891753
1733512130824215300,1.51421533203125,-0.353657370570302,1.250639528042078,1.8429624468684196
1733512130834290200,1.524290283203125,-1.5179939951658248,1.3152356265932321,2.2799168170675634
1733512130844364300,1.5343642578125,-2.9022049583077427,1.4220505721926688,2.7456068678855896
1733512130854439400,1.544439453125,-4.13624757181406,1.2555226239085198,2.994054097704589
1733512130864514300,1.554514404296875,-5.096065247905254,0.9263216492027043,3.275060365822911
1733512130874589400,1.56458935546875,-5.920042374920845,0.5925058741778135,3.463043774589896
1733512130884663300,1.574663330078125,-7.043820779156684,0.31196751583218574,3.3420670326471327
1733512130894738400,1.584738525390625,-8.7813436604321,0.1060544826209545,2.6743428358778356
1733512130904813600,1.5948134765625,-8.199328200608491,-0.039895372536778446,1.5258032076120376
1733512130914888400,1.604888427734375,-5.628701467531919,-0.11159925726652145,1.1251767267264425
1733512130924963600,1.614963623046875,-3.935335707890987,-0.04626140043735504,0.9229889245834201
1733512130935037400,1.625037353515625,-2.996471972501278,-0.007331073540449142,0.6299241160113364
1733512130945112600,1.635112548828125,-2.148458282468468,-0.014489128601551056,0.24985260310489682
1733512130955187200,1.645187255859375,-1.4740788655936716,-0.07295359252989292,-0.16953611712418495
1733512130965262300,1.655262451171875,-0.9174772484898567,-0.06305003815293311,-0.5848903942054138
1733512130975336200,1.665336181640625,-0.3946586585223675,0.04389408678412437,-0.9517479860778898
1733512130985411300,1.675411376953125,0.1306675303518772,0.2502472649782896,-1.2900019627459347
1733512130995486500,1.685486572265625,0.6630670186132193,0.48463762013316153,-1.579274101036787
1733512131005561300,1.695561279296875,1.111881045693159,0.6836445272177457,-1.8227324365273117
1733512131015636500,1.705636474609375,1.5088304455012083,0.7586930462002753,-2.0395240066275
1733512131025710300,1.71571044921875,1.8423732488036155,0.5935650278419256,-2.2235990097790954
1733512131035785500,1.725785400390625,2.3240526036530733,0.18607026862204074,-2.3310316488854586
1733512131045860600,1.735860595703125,2.9647072994500396,-0.3691577220410108,-2.395251461470127
1733512131055935500,1.745935546875,3.4999621771425007,-0.8910381543755531,-2.3750936395823956
1733512131066009600,1.756009521484375,3.7440754694104195,-1.2800818956255913,-2.2218547964602706
1733512131076084500,1.76608447265625,3.671549746903777,-1.4614508546888827,-2.006170603080094
1733512131086159400,1.776159423828125,3.404945221364498,-1.3166098375558852,-1.7167960273280738
1733512131096234200,1.786234130859375,3.0861306161165234,-0.9107716133713721,-1.4535318982578813
1733512131106309400,1.796309326171875,2.6148405533343553,-0.4778618423879146,-1.2298412162937222
1733512131116383200,1.80638330078125,2.190695688086748,-0.17609423353075981,-1.0457741041876376
1733512131126458400,1.816458251953125,1.7871721705853938,0.028561493095755574,-0.9193222918346524
1733512131136533500,1.826533447265625,1.328662094399333,0.18688392309248447,-0.7634539039265364
1733512131146608400,1.8366083984375,0.8088263196349144,0.2912935611158609,-0.5151163815597072
1733512131156682500,1.8466826171875,0.2947077717398293,0.43287469967007636,-0.24904811832159757
1733512131166757400,1.85675732421875,-0.05359481206536293,0.6039350306868553,-0.07869875771892257
1733512131176832500,1.86683251953125,-0.40216622114088385,0.7614958286613226,-0.025896648667519912
1733512131186907600,1.87690771484375,-0.741515116906166,0.8478665366470813,0.028261642499500885
1733512131196982300,1.886982177734375,-1.039063646763563,0.8607195884793997,0.02437519298759289
1733512131207056600,1.897056640625,-1.3544713661774992,0.8607850549310445,0.0027028657505288717
1733512131217131300,1.90713134765625,-1.7572820592343805,0.8790414271116256,-0.010607830188795924
1733512131227206400,1.917206298828125,-2.323621811020374,0.9442898520916699,0.08335910507962108
1733512131237281300,1.92728125,-2.976635637652874,1.0800853929817675,0.23412136548776177
1733512131247355400,1.93735546875,-3.5779625316679478,1.1437310589402914,0.40011940814629193
1733512131257430300,1.94743017578125,-4.0448330244421955,1.0001906030118466,0.5458874039310961
1733512131267505400,1.95750537109375,-4.400467540304363,0.7533014162898063,0.6825896844025701
1733512131277580500,1.96758056640625,-4.711040094646811,0.5642477479428053,0.8816614734169095
1733512131287654400,1.977654296875,-5.048277076292037,0.5173293449014424,1.1481974637646228
1733512131297729500,1.9877294921875,-5.515595312833786,0.6721452280819415,1.3714059882350265
1733512131307804400,1.997804443359375,-6.228595113873482,1.0091922401130198,1.4471604635298252
1733512131317879600,2.007879638671875,-7.2344368745148175,1.5588637656927107,1.1668287336722016
1733512131327954400,2.017954345703125,-8.952707942831516,2.304884961846471,0.524676492793858
1733512131338028500,2.028028564453125,-12.181350840872526,3.2036534182131287,-0.5270419067509472
1733512131348103400,2.038103515625,-16.344433812642098,4.29747741369009,-2.157036725721508
1733512131358178300,2.04817822265625,-16.30248033853173,5.76023935097754,-2.9591213160112497
1733512131368253400,2.05825341796875,-15.524087735605239,7.224580081889033,-3.073003715778887
1733512131378327300,2.068327392578125,-13.77266141666174,7.769280833318829,-2.8077430060639976
1733512131388402400,2.07840234375,-10.884999362969397,7.236891281929612,-2.07741549199596
1733512131398477300,2.088477294921875,-7.715020250821113,6.068297584411502,-1.0946803200453519
1733512131408552400,2.098552490234375,-5.392353548568487,4.882176998031139,-0.06881061097364873
1733512131418627600,2.108627685546875,-3.932922801530361,4.10489615573883,0.5047432003770024
1733512131428701400,2.118701416015625,-2.5810931820333,3.9105420428961515,0.7862181819856167
1733512131438776600,2.128776611328125,-1.6897405548810958,3.727040747979283,1.1576418761972338
1733512131448851500,2.1388515625,-0.774048436242342,3.322950244244933,1.4163378936342894
1733512131458926300,2.14892626953125,0.69746795845218,3.0863439666062593,1.5507203528560698
1733512131469000400,2.15900048828125,2.7481805177658796,3.4040649313986298,1.724182192056626
1733512131479075300,2.169075439453125,5.273873884138465,4.267731094723939,2.353109771311283
1733512131489150500,2.179150390625,7.276915249282121,5.40803276373744,3.0890061715528367
1733512131499225300,2.189225341796875,8.577785665914416,6.441639898660779,3.2461504976809024
1733512131509300500,2.199300537109375,9.047830112549661,7.063772849339246,2.8973958044603467
1733512131519374300,2.209374267578125,9.056497987651824,6.801803582385182,2.1175851514294743
1733512131529449500,2.219449462890625,9.155859110113978,5.740082113611698,0.9456704197298735
1733512131539524400,2.2295244140625,9.20704861460328,4.459513311251998,-0.4000492289869115
1733512131549599500,2.239599609375,8.894045325982571,2.9405075086951253,-1.6787269934356213
1733512131559673300,2.24967333984375,8.525935651689768,1.7147697821974752,-2.899031588968634
1733512131569748500,2.25974853515625,8.222712583327294,0.8175573231011629,-3.7058044832050796
1733512131579823600,2.26982373046875,7.62144063436985,-0.25402269186377524,-4.192650134776533
1733512131589898200,2.279898193359375,6.4561296117842195,-1.3621154511898754,-4.702311721529067
1733512131599973400,2.289973388671875,4.79326215852052,-2.5585616167515517,-5.180851317048073
1733512131610047200,2.300047119140625,2.690574716493487,-3.8935067369431255,-5.7102259045302866
1733512131620122400,2.310122314453125,0.8191486839458346,-5.328848752385378,-6.002848083901405
1733512131630197500,2.320197509765625,-0.1287792323872447,-6.594234598660469,-5.628413298240304
1733512131640272400,2.3302724609375,0.1444116858050227,-7.287675712749362,-4.556949603131414
1733512131650346500,2.340346435546875,1.0071697943747042,-7.4452154679358005,-3.449678681582212
1733512131660421400,2.35042138671875,1.8859128230616449,-7.115102054560184,-2.400147124557197
1733512131670496500,2.36049658203125,2.775548417162895,-6.556860853555798,-1.5614058513909577
1733512131680571400,2.3705712890625,3.4739491994857787,-5.972156008517742,-0.8874554005179554
1733512131690645500,2.3806455078125,3.9583766839995977,-5.465856591674685,-0.25955109989643094
1733512131700720400,2.390720458984375,4.371222741119563,-5.021867208272218,0.3824299491334706
1733512131710795500,2.40079541015625,4.586447208033502,-4.572768519032001,1.067866109008342
1733512131720870400,2.410870361328125,4.5969303158640855,-4.179713204053044,1.8253999021708964
1733512131730945300,2.4209453125,4.513231749697029,-3.7723721740901466,2.697622296917438
1733512131741019400,2.431019287109375,3.645584700042009,-3.2015883023768663,3.619851708370447
1733512131751094300,2.44109423828125,1.5997805902317166,-2.3027046951979395,4.24632064242661
1733512131761169400,2.45116943359375,-3.4945816531479355,0.04284779260158539,4.636753792208433
1733512131771244500,2.46124462890625,-39.75129490523338,8.141555810597538,3.327873672121763
1733512131781318400,2.471318359375,-32.69059781007766,5.6638020070075985,3.0758120511978864
1733512131791393500,2.4813935546875,-7.026765599459409,0.9000970746219158,3.9057141843482848
1733512131801468400,2.491468505859375,-2.2633801082864404,1.3480354879111052,2.6080589303702113
1733512131811543600,2.50154345703125,-2.5080516189590094,1.3699948062628506,1.217637641346082
1733512131821618400,2.511618408203125,-6.015302491804957,1.672561456543207,0.30790158156752584
1733512131831692500,2.521692626953125,-9.983781175363063,4.608444812569022,-0.12105517747383564
1733512131841767400,2.531767333984375,-9.529516481661796,9.811351894080639,0.683943364033848
1733512131851842800,2.5418427734375,-2.2843740887373682,12.402238155853748,2.6106658979982136
1733512131861918000,2.55191796875,1.7998042731434105,12.853021437180042,4.201302812309563
1733512131871991800,2.56199169921875,4.000814434495568,11.796975091433524,4.055741664208472
1733512131882067000,2.57206689453125,7.222691491663456,7.434794611686468,1.6995852186776697
1733512131892141800,2.582141845703125,10.336390498185157,2.7766052327394486,0.03944521761648357
1733512131902217000,2.592217041015625,12.510313915169238,-0.17425766575336454,-0.7106405245624482
1733512131912292000,2.6022919921875,13.67970840767622,-2.081505245527625,-0.6435768668539822
1733512131922366000,2.612365966796875,15.311899275386333,-2.9225270308464766,-0.739177467738837
1733512131932441000,2.622441162109375,18.485687132167815,-3.43864173926115,-2.2779206748142835
1733512131942516000,2.632515869140625,21.933730321502683,-3.1676725887715813,-3.5704841586112974
1733512131952590800,2.6425908203125,23.589383897864817,-2.06980253277421,-5.192883700147271
1733512131962665000,2.6526650390625,22.093349221050737,0.04898761053085327,-6.538864009094238
1733512131972739800,2.66273974609375,16.09742187632322,2.5104630640149117,-6.001746260139345
1733512131982815000,2.67281494140625,9.616629532447456,4.4109196684747936,-4.5361955689162015
1733512131992889900,2.682889892578125,6.1398974242448805,5.082244227823614,-3.5684944460988044
1733512132002965000,2.692965087890625,4.097675849096476,5.157193378084898,-2.9102047248899936
1733512132013038800,2.703038818359375,2.998478928409517,5.496496644610167,-2.7402590771168467
1733512132023114000,2.713114013671875,2.7416905712246895,6.0148342897713185,-3.073618925067782
1733512132033188900,2.72318896484375,2.810720268309116,6.296992358273267,-3.571763677027821
1733512132043264000,2.733263916015625,1.7956079904973505,5.587282246428728,-4.08535091279149
1733512132053337900,2.743337890625,-0.2611791394896805,4.670943646579981,-4.482098652547598
1733512132063413000,2.7534130859375,-2.1167565916508435,3.951846697708964,-4.4368779933348295
1733512132073488000,2.76348779296875,-3.7348470378160474,2.92809635541141,-4.338636814813316
1733512132083562800,2.773562744140625,-5.657034412568807,1.6981272749543188,-4.283833503741025
1733512132093638000,2.783637939453125,-9.269067556142806,0.8899708174049854,-3.4713217735916375
1733512132103711700,2.793711669921875,-19.854190823090075,0.8723200099021196,-1.0205801878288387
1733512132113787000,2.803786865234375,-22.916031047558782,0.5752139631152152,0.1849816696677357
1733512132123862000,2.813862060546875,-12.51316521294713,-1.2580991963982582,-0.9517064119584858
1733512132133937000,2.82393701171875,-8.240427103716135,-1.27577572286427,-1.149587310687825
1733512132144011000,2.834010986328125,-6.289965236115456,-0.8158353216141462,-1.0068988684788345
1733512132154086000,2.8440859375,-4.699165532457828,-0.11206102955937385,-0.8335976266674697
1733512132164161000,2.8541611328125,-3.2721558765530583,0.7090092700988054,-0.8867939409345388
1733512132174236000,2.86423583984375,-2.1280057154178618,1.4710188935011625,-1.1930394989233464
1733512132184311000,2.87431103515625,-1.3263432960629462,1.880246760123968,-1.6889096570149063
1733512132194385000,2.884385009765625,-0.764042590534687,1.6802362289547919,-2.1805784909591077
1733512132204460000,2.8944599609375,-0.2748188299213536,1.1485124479979276,-2.4517244593203067
1733512132214535000,2.904534912109375,0.07899461712664924,0.45599721658229825,-2.4482740266054868
1733512132224609800,2.91460986328125,0.3662906421720981,-0.29143150828182696,-2.3788819259494542
1733512132234684000,2.924683837890625,0.6681605423599482,-1.002222401100397,-2.2752904724411667
1733512132244758800,2.9347587890625,1.0616185929208992,-1.405215172725916,-2.1745051623947917
1733512132254834000,2.944833984375,1.4435223992884159,-1.315808458045125,-2.1561980829402803
1733512132264909000,2.954908935546875,1.9283523271232843,-0.8786638259708881,-2.1759717278160156
1733512132274983000,2.96498291015625,2.787295553579926,-0.24117314716279506,-2.2611995493769643
1733512132285058000,2.97505810546875,4.0017683742195365,0.362961790010333,-2.4257319399297237
1733512132295133000,2.9851328125,4.818533085638284,0.7607879726529121,-2.2725288987733423
1733512132305208000,2.9952080078125,5.043014041197299,0.8303022383838892,-2.0181018638923764
1733512132315283000,3.005282958984375,4.882125560104846,0.643473844870925,-1.6104209344506262
1733512132325357000,3.015357177734375,3.8710236869782206,0.4993482825309038,-1.0559064988844096
1733512132335432000,3.025431884765625,2.2984359318375587,0.3946528133034706,-0.6558851442851126
1733512132345506800,3.0355068359375,0.842417623591423,0.3327034298688173,-0.3237887038661167
1733512132355582000,3.04558203125,-0.15349661727547645,0.3023842794507742,-0.05026603296883404
1733512132365655800,3.05565576171875,-0.6507973196268081,0.27483926992118357,0.18525138998720794
1733512132375731000,3.06573095703125,-0.9502771098077296,0.28075696953237056,0.4211293533513322
1733512132385805800,3.075805908203125,-1.0084988510213793,0.20621581555008886,0.6182254218459129
1733512132395881000,3.085880859375,-1.0686111552219837,0.019945640441775322,0.9044099693849682
1733512132405956000,3.0959560546875,-1.4328256487071513,-0.12273732187449932,1.3442866567716
1733512132416030000,3.106030029296875,-2.3603847307503223,0.21508885783553122,1.9042608190484345
1733512132426105000,3.11610498046875,-3.506177398395538,0.9897416897118091,2.250858480365574
1733512132436180000,3.126179931640625,-4.374011202794313,1.5815636732786893,2.267570691844076
1733512132446254800,3.1362548828125,-4.986254627621173,1.5487205573409795,1.919635936704278
1733512132456329000,3.146328857421875,-5.460885233002901,1.1235217991262674,1.4185723746880887
1733512132466403800,3.15640380859375,-6.185875916087627,0.884344794216752,1.0348298085860907
1733512132476478700,3.166478759765625,-7.803169658917188,1.1832231113731861,0.6850140620052814
1733512132486553900,3.176553955078125,-11.827916173142194,1.7295839049696922,-0.2992094122743234
1733512132496629000,3.18662890625,-23.667274946796894,2.1082208184957505,-3.4161917147830128
1733512132506702800,3.196702880859375,-27.80140421128273,2.639346633559465,-6.535196718758344
1733512132516778000,3.206778076171875,-19.65405052806139,3.9266754315733907,-6.298264277905226
1733512132526852900,3.216852783203125,-11.390587416672705,5.373855184325575,-5.38382478967607
1733512132536928000,3.226927978515625,-7.042742920792103,6.758005357190966,-4.916168114960193
1733512132547001900,3.237001953125,-4.5953041759669775,7.098517999505996,-4.452164117532968
1733512132557077000,3.247076904296875,-2.662691268789768,6.5343140907049175,-4.13304819125086
1733512132567152000,3.257152099609375,-1.1599709036666899,5.590166277432441,-3.7974008168846365
1733512132577226800,3.267226806640625,0.024492672754265365,4.673395131385326,-3.4051565260276195
1733512132587302000,3.277302001953125,0.8304314177215099,3.862750364151597,-2.7230606895565983
1733512132597375700,3.287375732421875,1.5281202523827553,3.2816397442132232,-1.901755996620655
1733512132607451000,3.297450927734375,2.3506454270243644,2.904563504132628,-1.160150132691115
1733512132617525800,3.30752587890625,3.4181805505126714,2.9564368992328642,-0.9803753840167074
1733512132627601000,3.317600830078125,5.03337176810503,3.1487539532899853,-1.0469579071447253
1733512132637674800,3.3276748046875,6.820135357889533,3.564775717836618,-1.2773524706616997
1733512132647750000,3.33775,7.948169666004181,4.5244367420613765,-2.189276468938589
1733512132657825000,3.347824951171875,8.739555021494626,5.252193382728099,-3.0359339220568535
1733512132667900000,3.35789990234375,8.761856869673728,5.526100924757123,-3.9228827612921595
1733512132677975000,3.36797509765625,7.999996883875131,5.302124411588907,-4.718235851369798
1733512132688049000,3.378048828125,7.167500350317359,4.7187359098464245,-4.918967390289902
1733512132698124000,3.3881240234375,6.468242658904194,4.15146676825583,-4.664068500113487
1733512132708199000,3.398198974609375,5.875733277595043,3.3380577970057725,-4.200027677807212
1733512132718273800,3.408273681640625,5.392869096875191,2.3056395796060563,-3.8534514976695178
1733512132728348000,3.418347900390625,4.863340780135989,1.0769938567072153,-3.7966140504211183
1733512132738422800,3.4284228515625,4.173512888108194,-0.10756780979335308,-3.819064074899256
1733512132748498000,3.438497802734375,3.4826214585021136,-1.1335147853523493,-3.682048344564438
1733512132758572800,3.44857275390625,3.035765287491679,-1.9640940871119499,-3.4200212099432945
1733512132768647000,3.45864697265625,2.591996268841624,-2.568255327770114,-2.9941824002593753
1733512132778721800,3.4687216796875,2.3826205279558894,-2.866288426274061,-2.289004086625576
1733512132788797000,3.478796875,2.693262348142266,-2.8652263500005004,-1.3735009146876633
1733512132798872000,3.4888720703125,3.269059371842444,-2.551809804403782,-0.5218379083670676
1733512132808947000,3.498947021484375,3.917431802409887,-2.1956980264186856,0.16967961724810302
1733512132819021000,3.50902099609375,4.576047102311254,-1.9308879830807446,0.7908911422327161
1733512132829096000,3.519095947265625,5.119960502755641,-1.7853689205557106,1.3138738367207348
1733512132839170800,3.5291708984375,5.5683881608664985,-1.7725784125655888,1.7278126575134694
1733512132849245700,3.53924560546875,6.030748482739925,-1.771936607530713,2.142560164340585
1733512132859320600,3.549320556640625,6.5982999484032385,-1.8227537715762852,2.57333540751338
1733512132869394700,3.559394775390625,6.920909854280948,-2.2262603379428385,2.9115882882028816
1733512132879469800,3.5694697265625,7.140984683835506,-2.7351643843263385,3.2546918237939475
1733512132889544700,3.579544677734375,7.006868474334478,-3.099004126214981,3.6152518133595586
1733512132899619800,3.589619873046875,6.52214960565865,-3.442273373761773,3.8155715566083788
1733512132909693700,3.599693603515625,6.0423161709368225,-3.9438551144331693,3.75877034971714
1733512132919768800,3.609768798828125,5.5283846517801285,-4.417057732838392,3.5009304376527663
1733512132929843700,3.61984375,5.042348270764947,-4.495867650181054,3.552278639835119
1733512132939918800,3.6299189453125,4.605629755148291,-3.7849294578462835,4.013873822554945
1733512132949992700,3.63999267578125,3.2208179035037756,-2.3376006520122288,4.37657257771492
1733512132960067800,3.65006787109375,1.0715993041872978,0.1638508380293846,4.777079962265491
1733512132970142700,3.660142822265625,-7.2892264493227,4.009654159033298,4.588540088659524
1733512132980217600,3.670217529296875,-56.91291837670803,12.32352994531989,0.7280496322639286
1733512132990292700,3.680292724609375,-32.380635204327106,8.35942523906231,-1.164336332334578
1733512133000366600,3.69036669921875,-2.349288751718402,0.828126063388586,-1.4090109117470682
1733512133010441700,3.700441650390625,0.3395204164072871,0.36775077785253524,-0.8996925854742527
1733512133020516900,3.710516845703125,1.4543898302614688,0.23679390916526316,-0.9578351239718497
1733512133030591700,3.720591796875,2.041378110061586,0.2888029133439064,-0.750775843334943
1733512133040665900,3.730665771484375,2.5112404781281947,1.9537123938292265,-0.47759858834184704
1733512133050740700,3.74074072265625,3.0902880280569196,4.6172757692784065,-0.21999138905480503
1733512133060816000,3.75081591796875,3.840996505244076,7.1338541013032195,-0.024439517794921994
1733512133070890800,3.760890869140625,4.713405070212483,9.269305456551908,0.2804959805086255
1733512133080965600,3.770965576171875,5.615179138135909,10.477982742655277,0.8839946656048298
1733512133091039700,3.781039794921875,6.425326477241516,9.218716840565204,1.0273759854488074
1733512133101114600,3.791114501953125,6.64895110823214,4.9376656610190865,0.6965403222132474
1733512133111189800,3.801189697265625,6.4384583460152145,0.2938789014339447,0.3989821112120524
1733512133121264600,3.8112646484375,6.254928994047641,-2.803258846387267,0.2013385283699259
1733512133131338800,3.8213388671875,6.766211460000276,-4.210781127011776,0.5669411517452448
1733512133141413600,3.83141357421875,7.467080678263306,-4.8806098948448895,0.9576785451706499
1733512133151488800,3.84148876953125,8.642446646395324,-5.118911285963654,1.5805395909279585
1733512133161564000,3.85156396484375,10.338047033220528,-4.413395118677616,1.7659613325133918
1733512133171638800,3.861638671875,11.510215666615963,-3.576590658792853,0.5563811062209307
1733512133181713000,3.871712890625,11.264717641991377,-2.7660224639266726,-0.37291459035649893
1733512133191787800,3.881787841796875,9.433381920030712,-1.6866262222528456,-0.5373115179613233
1733512133201863000,3.89186279296875,6.79554159938097,-0.19710019668042658,-0.38602337051555513
1733512133211937800,3.901937744140625,4.495667159172893,1.116489416271448,-0.24863500747606157
1733512133222012000,3.912011962890625,3.0389255050882698,1.7929361409395932,-0.38575704772956665
1733512133232086800,3.922086669921875,2.0731737627729774,2.364221532434225,-0.5246086882546543
1733512133242161700,3.93216162109375,1.428287566886097,3.006705197224021,-0.7421396785452962
1733512133252236800,3.94223681640625,0.9187329476393759,3.4843162797212597,-0.856929256285727
1733512133262311700,3.952311767578125,0.55001361701563,3.6715357183784243,-0.9673311204612255
1733512133272385800,3.9623857421875,0.30840383200123905,3.621791736522317,-1.2828389392487705
1733512133282460700,3.972460693359375,0.41872810089588164,3.0942326740294694,-1.5642022041112185
1733512133292535800,3.982535888671875,-0.018872385187074542,2.0924539250433445,-2.01978265658617
1733512133302611000,3.99261083984375,-1.1250398024737833,1.3674790240496397,-2.466035308745503
1733512133312684800,4.002684814453125,-2.494385789439082,1.0263894586294888,-2.9917542963296175
1733512133322760000,4.012760009765625,-3.7088650398194787,0.6652735887467861,-3.4847213533908126
1733512133332834800,4.022834716796875,-4.531383200198412,0.2707125453799963,-3.7376740779355164
1733512133342909700,4.03290966796875,-5.022061269539594,0.12143208449482917,-4.006009957312047
1733512133352984600,4.042984619140625,-5.458661711734533,0.24553718759119508,-4.218276451203227
1733512133363058700,4.05305859375,-5.661467426580191,0.5462906509697437,-4.296753775590658
1733512133373133600,4.063133544921875,-5.312639960384368,0.7881085257768631,-3.9993241959378123
1733512133383208700,4.073208740234375,-4.585255075639486,0.8780629374682902,-3.4849563311904665
1733512133393283800,4.083283935546875,-3.849939397895336,0.7801467531174421,-3.0087796654105183
1733512133403357700,4.093357666015625,-3.1602900773048397,0.616781652778387,-2.639255448144674
1733512133413432800,4.103432861328125,-2.49437117639184,0.3809972129166126,-2.246300963191688
1733512133423507700,4.1135078125,-1.9301006320953369,0.17171441101133822,-1.8681997639775274
1733512133433582800,4.123582763671875,-1.4811293686270712,0.1255833589553833,-1.6295970518246292
1733512133443658000,4.133657958984375,-1.0492588775634766,0.09270809431374072,-1.4205121105790137
1733512133453731800,4.14373193359375,-0.6016822833240032,0.039702480313181875,-1.2649538845986128
1733512133463807000,4.153806884765625,-0.19724574263095854,-0.031468320453166956,-1.2123751177079976
1733512133473881600,4.163881591796875,0.14664017550945282,-0.15783201613128184,-1.2838716432973742
1733512133483956700,4.173956787109375,0.5085860664755105,-0.2569078919112682,-1.3607811338461935
1733512133494030600,4.184030517578125,0.8767612072199582,-0.33886253702044483,-1.358768771110475
1733512133504105700,4.194105712890625,1.302089144772291,-0.4740694643676281,-1.3540087171018123
1733512133514180600,4.2041806640625,1.8300275619715451,-0.5028039759427309,-1.276222443718463
1733512133524255700,4.214255859375,2.3189134871989485,-0.4130646683067083,-1.1875802836693823
1733512133534329600,4.22432958984375,2.7360487659454344,-0.453407200089097,-0.9580851532101631
1733512133544404700,4.23440478515625,3.224574625688791,-0.44511867969334123,-0.7144700927879661
1733512133554479900,4.24447998046875,3.6826281902790066,-0.27838381066024304,-0.5716151714382692
1733512133564554800,4.2545546875,3.922081089520454,-0.3231920896798372,-0.25316766420332715
1733512133574630000,4.2646298828125,3.370968132960796,-0.32546997148394585,0.24770441209506242
1733512133584703700,4.274703857421875,2.369548280414939,-0.3322036636531353,0.6116383716057986
1733512133594779000,4.28477880859375,1.257776540315151,-0.2157481985270977,0.8680910670954733
1733512133604853800,4.294853759765625,0.27805357405887915,-0.07793371903002262,1.033753119265288
1733512133614928600,4.3049287109375,-0.46283846077919005,0.10963467919528484,1.1977609744872897
1733512133625002800,4.315002685546875,-1.009533600896597,0.30349487104117867,1.3807315965935587
1733512133635077600,4.32507763671875,-1.315177758926153,0.4121282642394304,1.518774916410446
1733512133645152800,4.33515283203125,-1.5485083758950233,0.3228963216036558,1.627832964761555
1733512133655227600,4.3452275390625,-1.8941805929303168,0.0719219113945961,1.6986451613485811
1733512133665302800,4.355302734375,-2.510999655109644,-0.031121698972582816,1.7501976539313793
1733512133675376600,4.365376708984375,-3.2668928414583203,0.2952554504841566,1.6933035080596803
1733512133685451800,4.37545166015625,-3.9841795260369777,0.9346393956929445,1.4203484444499015
1733512133695527000,4.38552685546875,-4.631719889694452,1.5317846201092005,1.0567225645076483
1733512133705601800,4.395601806640625,-5.141757324022055,1.98578394087255,0.650121831518039
1733512133715676000,4.405676025390625,-5.611732212552428,2.322950195369124,0.3260571967873722
1733512133725750800,4.415750732421875,-6.184461957636475,2.6482459793299435,0.23005760491387917
1733512133735825700,4.42582568359375,-7.218581718257069,2.9737089365512133,0.20794388145171105
1733512133745900800,4.43590087890625,-9.668112466925383,3.295131678470969,-0.1689018378086388
1733512133755975700,4.4459755859375,-15.980737278616427,3.8007133024334907,-1.673991050954908
1733512133766049800,4.4560498046875,-21.677316935110092,4.740802780225873,-3.989199107764661
1733512133776124700,4.466124755859375,-18.035156364297865,6.895454510506987,-4.581868355810642
1733512133786199800,4.47619970703125,-12.49997956815958,8.464216569879651,-4.372323103576898
1733512133796274700,4.486274658203125,-7.715111436235905,8.417638943099975,-3.9539559449478983
1733512133806349800,4.496349853515625,-4.78495347211957,7.1758479074239725,-3.3384006190940734
1733512133816423700,4.506423583984375,-2.8703999532461166,5.295580689033866,-2.530365157575905
1733512133826498800,4.516498779296875,-1.6479131913684308,3.5705887880295513,-1.5616270929262042
1733512133836574000,4.526573974609375,-0.7670341735661029,2.26581493421793,-0.7523468189787119
1733512133846648600,4.536648681640625,0.2553893040418625,1.5349766941487788,-0.0011725874433293937
1733512133856722700,4.54672265625,1.512195538020134,1.4155688089579344,0.8463939798764883
1733512133866797600,4.556797607421875,3.056308309304714,1.4839765747517346,2.0178855907931923
1733512133876872400,4.56687255859375,4.772237782931327,1.6879723761647938,3.324561478833854
1733512133886947300,4.576947265625,6.078562373316288,1.871357935747504,4.303831458891928
1733512133897021400,4.587021484375,7.015217785006761,2.0080618236541747,5.209108858761191
1733512133907096600,4.5970966796875,7.029436864495277,1.7889654837429523,5.539328070598841
1733512133917171500,4.60717138671875,6.22037322897315,1.1561550717055797,5.199593426918983
1733512133927246600,4.61724658203125,5.295903345116972,0.3743155431956053,4.606699722467362
1733512133937321500,4.627321533203125,4.582132267443836,-0.22969956699013708,3.9043554632157087
1733512133947395600,4.6373955078125,4.183587415137887,-0.33131343681514264,3.277283887091279
1733512133957470500,4.647470458984375,4.149715540674329,0.20644845526218414,2.7749767547547814
1733512133967545600,4.657545654296875,4.311330582475662,0.9504097962766885,2.1702460436455904
1733512133977620500,4.667620361328125,4.549897346532345,1.8466694846928118,1.4133900036141276
1733512133987694600,4.677694580078125,4.8096278946489095,2.805532052016258,0.6569057925697416
1733512133997769500,4.68776953125,4.92754992519617,3.3436505024462937,-0.07297247989345342
1733512134007844400,4.69784423828125,4.570839596796035,3.433968486753106,-0.6661418229486793
1733512134017919500,4.70791943359375,4.067455775138735,3.22032398250699,-1.3957216604545712
1733512134027994400,4.717994384765625,3.476350707669556,2.57320447461009,-2.038898129814118
1733512134038068500,4.728068359375,2.5593004524201155,1.667906324213743,-2.566311792486906
1733512134048143600,4.7381435546875,1.5356069548763334,0.5494242728203534,-3.1229309452474117
1733512134058218500,4.748218505859375,0.6830076906189322,-0.7586141357451677,-3.5129856171056626
1733512134068293600,4.758293701171875,-0.04081058768555522,-1.8160142341881989,-3.636328795918822
1733512134078367500,4.768367431640625,-0.5924876078687608,-2.469872110429406,-3.457109708365798
1733512134088442600,4.778442626953125,-0.6786582632377743,-2.7240444398969412,-2.862024923610687
1733512134098517500,4.788517578125,0.01068476788252592,-2.725131650611758,-2.063114141051471
1733512134108592400,4.79859228515625,1.0649179267272353,-2.5576398257315156,-1.3852417674943804
1733512134118667500,4.80866748046875,2.136400911058485,-2.319800791427493,-0.8985065174948423
1733512134128741400,4.818741455078125,3.0046149469465018,-2.202707612919807,-0.49647689181305465
1733512134138816500,4.82881640625,3.673863869065046,-2.262022556197643,-0.12681122024990618
1733512134148891400,4.838891357421875,4.222973084586859,-2.396649637830257,0.16282376000396906
1733512134158966500,4.848966552734375,4.588886710140109,-2.630471837708354,0.3655282794974744
1733512134169040400,4.859040283203125,4.927265847557782,-2.999964490792155,0.5706177578987554
1733512134179115500,4.869115478515625,5.081346986722946,-3.4425089360833168,0.7287739279504865
1733512134189190400,4.8791904296875,5.0115205863028764,-3.7888252962410447,0.9246601457312703
1733512134199265500,4.889265625,4.90042431012243,-3.9596529875457285,1.1765785587921738
1733512134209340700,4.899340576171875,4.777577390393614,-4.023206883567571,1.3256006610020994
1733512134219414500,4.90941455078125,4.566788567839563,-3.8945214669436212,1.3973330411739646
1733512134229489700,4.91948974609375,4.264548665295541,-3.447997012105584,1.4547202312596141
1733512134239564500,4.929564453125,3.8885193039193746,-2.7718963243961334,1.4465981534719465
1733512134249639400,4.939639404296875,3.426506772570312,-1.8994366137623786,1.313344406019151
1733512134259713500,4.949713623046875,2.894187363807857,-0.6745598880082369,1.151070315787196
1733512134269788400,4.959788330078125,2.21227945112437,1.1839958493113516,1.1406494595378636
1733512134279863600,4.969863525390625,0.02045066735446453,4.014988505798578,1.0203419220935552
1733512134289938400,4.9799384765625,-33.34263899228573,12.781760035520792,0.08285681811328977
1733512134300013600,4.990013671875,-52.438071302723884,12.839724733233451,0.07275752196852117
1733512134310087400,5.00008740234375,-9.618577743905782,-0.40426702934503556,1.489646290951222
1733512134320162600,5.01016259765625,-2.6761984006166455,0.3537918106049299,1.00412129352428
1733512134330237400,5.020237548828125,-0.12465952210873364,1.0976035140156746,1.5447848253272474
1733512134340312600,5.0303125,0.5484697485744953,0.899125014719367,2.369983164700866
1733512134350386700,5.04038671875,0.5394665040381252,0.6956839245796204,3.181176505728066
1733512134360461600,5.050461669921875,0.8183728772677481,0.8514549165278673,3.963184084281325
1733512134370536400,5.060536376953125,1.3301102473810313,1.8765116652488707,4.366933227232098
1733512134380611300,5.070611328125,2.1540938041374087,3.1580045967161654,3.9257019103661177
1733512134390686500,5.0806865234375,3.3533202480673787,4.308915338027477,3.464359825624525
1733512134400760300,5.09076025390625,4.98264228234291,5.022220259493589,3.211488349622488
1733512134410835500,5.10083544921875,6.530662582460045,4.323613725465536,2.6322259878993033
1733512134420910600,5.11091064453125,7.167254266601801,2.367719895943999,1.6304229812547564
1733512134430985500,5.1209853515625,7.449887551400065,0.447528663444519,0.9018640842944383
1733512134441059600,5.1310595703125,8.663188405650853,-0.9443354447990655,0.09822746052341536
1733512134451134500,5.141134521484375,11.34158460857272,-1.5127029030203818,-1.247217444638908
1733512134461209600,5.151209716796875,13.657714018011092,-1.896241032591462,-2.1614308690272273
1733512134471284500,5.161284423828125,14.299499179142712,-2.1466841124027964,-2.210053884029388
1733512134481359400,5.171359375,14.04511759083867,-1.7955705810964107,-2.4137356510572134
1733512134491433700,5.181433837890625,12.609527153593302,-1.216573007789254,-2.536135849931836
1733512134501508400,5.19150830078125,9.51675052359104,-0.5898053830474614,-2.479163962648809
1733512134511583500,5.20158349609375,6.4034454848229885,0.27747663268744943,-2.4746330412209034
1733512134521658400,5.211658447265625,4.063021007561684,1.2006611529082059,-2.527686878277361
1733512134531732500,5.221732421875,2.796186131522059,2.1170593739897012,-2.368059210900962
1733512134541807400,5.231807373046875,1.8787873550958931,2.7581635671198366,-2.0774263056509197
1733512134551882500,5.241882568359375,1.200887509009987,3.096981680476665,-1.7120685604147612
1733512134561957600,5.25195751953125,1.016584688451886,3.2558500539183615,-1.5914315718203782
1733512134572032500,5.262032470703125,0.6445043569624423,3.2788802163720128,-2.142931920262426
1733512134582106600,5.272106689453125,-0.42734636470265686,2.882562684726715,-3.2138430960550903
1733512134592181500,5.282181396484375,-1.7487275813788175,2.538316116580367,-4.160533287286758
1733512134602256600,5.292256591796875,-3.16183789126873,2.111370222437382,-4.901818687090278
1733512134612331300,5.302331298828125,-4.337293875771761,1.4171312359690664,-5.370102553793788
1733512134622405600,5.312405517578125,-5.232313793259859,0.8183622097432612,-5.467426617470383
1733512134632480500,5.32248046875,-6.20481910148859,0.3652630526900291,-5.4617807205379005
1733512134642555400,5.332555419921875,-7.220465632307529,0.08630056535899638,-5.305648494061828
1733512134652630500,5.342630615234375,-7.9193994985938065,0.1560913099437952,-4.720099891676009
1733512134662705400,5.352705322265625,-8.101854499328136,0.29764906762242316,-3.4888244047954675
1733512134672779500,5.362779541015625,-7.63496179472208,0.3215063285499811,-2.256240173403919
1733512134682854400,5.3728544921875,-6.739879917913675,0.272740251815319,-1.1323414307240396
1733512134692929500,5.382929443359375,-5.454878686064482,0.15186112502813337,-0.5441453825693577
1733512134703004700,5.393004638671875,-4.427359346622229,0.03521569028794765,-0.26155761741325256
1733512134713078500,5.40307861328125,-3.6355355997145176,-0.08115385012030601,-0.1222322218965739
1733512134723153700,5.413153564453125,-3.0150083306670186,-0.24090777422487733,-0.019796806555613874
1733512134733228500,5.423228515625,-2.52268190959692,-0.3692056528359651,0.1449038532361388
1733512134743303400,5.433303466796875,-2.1261424057640133,-0.3823696703135967,0.3011362521510571
1733512134753378300,5.44337841796875,-1.8080957161486149,-0.3357014426410198,0.39634288528226314
1733512134763452400,5.453452392578125,-1.5568037644229828,-0.24153730430006978,0.39241665174923834
1733512134773527600,5.463527587890625,-1.3602782988905906,-0.1279974343597889,0.35864531505070624
1733512134783602400,5.4736025390625,-1.2350735639892518,-0.01597381420135498,0.3352254956923425
1733512134793677600,5.483677490234375,-1.2160498606979846,0.0366775795340538,0.30270496277250347
1733512134803751400,5.49375146484375,-1.2378665557086468,0.011649521261453627,0.4301874698800966
1733512134813826600,5.50382666015625,-1.3986578600369393,-0.13904957424998282,0.5693181830748916
1733512134823901400,5.5139013671875,-1.7900806053780018,-0.2231587670445442,0.6098452776439488
1733512134833976600,5.5239765625,-2.3808314525820315,-0.0579617751032114,0.5005281399652362
1733512134844051700,5.5340517578125,-3.027130145615339,0.2722007381111383,0.2825718369346112
1733512134854126000,5.5441259765625,-3.6903216673910615,0.6903700360804795,0.006899915581569075
1733512134864200700,5.55420068359375,-4.467232799588143,1.135176581084728,-0.4301639794066548
1733512134874275800,5.56427587890625,-5.295051696723699,1.7980816871345042,-1.1111572614632546
1733512134884350700,5.574350830078125,-6.19239918037653,2.836962963068485,-2.2411302825555204
1733512134894424800,5.5844248046875,-7.23081517688632,4.179724894490838,-3.8241353868141768
1733512134904499700,5.594499755859375,-8.091680311316251,5.8191153183162205,-5.86315027487576
1733512134914574800,5.604574951171875,-8.420803544610738,7.682386978241801,-7.116921671202778
1733512134924650000,5.61464990234375,-7.907206371974945,9.145525347626208,-6.928578781473636
1733512134934724900,5.624724853515625,-6.801218475973606,8.629386673814057,-5.06119793266356
1733512134944799000,5.634799072265625,-5.464296502751112,6.335296662226319,-2.7326857192531224
1733512134954873900,5.644873779296875,-3.9642122582852837,4.135627394089102,-0.9142254070870578
1733512134964949000,5.654948974609375,-2.5894144356548785,2.7951316540330646,0.29400296620503064
1733512134975023900,5.66502392578125,-1.3599743475079535,2.2815485099226236,0.9842816707402468
1733512134985098000,5.675097900390625,-0.2594365336060524,2.409451251736283,1.2487724189959466
1733512134995172900,5.6851728515625,0.8899205485224724,1.9991887813687323,1.2838479701608418
1733512135005247700,5.695247802734375,2.3738719888329505,1.3511252706199883,1.5944367449857293
1733512135015323000,5.705322998046875,3.7939977304428814,1.1064683729946612,2.286113333620131
1733512135025397800,5.715397705078125,5.010019534090161,0.6572814209491014,2.7837536431893706
1733512135035472000,5.725471923828125,6.333533744207024,0.2035790373057127,3.165090171062946
1733512135045546800,5.735546630859375,7.642668131315708,-0.16690671846866606,3.4101556494891643
1733512135055622000,5.745621826171875,8.332226266491412,-0.5233791464596986,3.2503686998978254
1733512135065697000,5.755697021484375,8.223159158051013,-0.6565683042436837,3.0668107063576575
1733512135075771000,5.76577099609375,7.485079860812426,-0.8242641272634267,2.4754890735283492
1733512135085846000,5.775845947265625,6.251920459881425,-0.5520926152467728,1.4781807479545472
1733512135095921000,5.7859208984375,5.3731286236166955,0.16069091269373892,0.69259794126302
1733512135105995800,5.795995849609375,4.919750065100192,0.8397533728182315,0.13064331835922785
1733512135116071000,5.80607080078125,4.685470476843417,1.284815938410163,-0.37283743346706033
1733512135126144800,5.816144775390625,4.425983382093906,1.5272341171979904,-0.8817341733269393
1733512135136220000,5.826219970703125,4.034749437323212,1.568613590812683,-1.4351456160873173
1733512135146294800,5.836294677734375,3.5333722793132063,1.473043092805147,-2.0001943051494657
1733512135156370000,5.846369873046875,2.7291534534737467,1.2212772399574519,-2.45560656145066
1733512135166444800,5.85644482421875,1.6647925761073827,0.8149316507726907,-2.765213777892291
1733512135176519000,5.866518798828125,0.7167028933413326,0.250425544154644,-3.0450331743136045
1733512135186593800,5.87659375,-0.23599165287166832,-0.31999767755270003,-3.257017344132066
1733512135196669000,5.8866689453125,-1.182723052896559,-0.6756196261942387,-3.219007931472361
1733512135206744000,5.896744140625,-1.547529593990743,-0.7497329101532697,-2.7346596496745943
1733512135216818000,5.90681787109375,-1.1708417687058448,-0.6880050605148077,-2.030573807452619
1733512135226893000,5.91689306640625,-0.31441490898430347,-0.5482236648589373,-1.4188064757049084
1733512135236967700,5.9269677734375,0.5799100119769572,-0.3436041785895824,-0.8990119097337126
1733512135247042800,5.937042724609375,1.398750945147872,-0.22408406519591806,-0.49494836707152423
1733512135257116700,5.94711669921875,2.1815040813714264,-0.2215507473260164,-0.16534162457641213
1733512135267191800,5.95719189453125,2.920949990788102,-0.30969138759374615,0.16202921209279447
1733512135277267000,5.967266845703125,3.476332002969086,-0.5284510428965091,0.45837680519521234
1733512135287341800,5.977341796875,3.9455125262513753,-0.8337515020549296,0.6738757051363587
1733512135297417000,5.9874169921875,4.327600457014143,-1.21341015984416,0.8142595967300236
1733512135307490800,5.99749072265625,4.518002325099706,-1.6392571528345345,0.8737401058331131
1733512135317566000,6.00756591796875,4.61655242343992,-2.0460387953490016,0.9107054162673651
1733512135327640800,6.017640869140625,4.7401358407497405,-2.3916256721884013,0.9607320144571363
1733512135337716000,6.027716064453125,4.812563948100805,-2.6577801158726215,1.0018597052678466
1733512135347790800,6.037790771484375,4.7496375363275405,-2.784631302806735,1.1662145472966134
1733512135357865000,6.047864990234375,4.592947383707761,-2.6815432687759397,1.3719815961658954
1733512135367939800,6.05793994140625,4.395119457274675,-2.3502742556244134,1.5035744246691465
1733512135378014700,6.0680146484375,4.145567481084168,-1.8613894994407891,1.557885422179848
1733512135388089900,6.07808984375,3.7634932865858075,-1.2901461935222147,1.6033977578155696
1733512135398163700,6.088163818359375,3.2103190135821698,-0.7115081011772155,1.5620095163725316
1733512135408238800,6.09823876953125,2.4738886525943875,-0.06105331137776374,1.5677385615438222
1733512135418314000,6.10831396484375,1.5230527398601172,0.6714169138073921,1.7041228621073066
1733512135428388900,6.118388916015625,0.07137772151529788,1.3496312326699496,1.952610862328112
1733512135438464000,6.128464111328125,-4.46920585322678,2.0647177768558262,2.500823421271145
1733512135448537900,6.138537841796875,-26.651016032540795,3.4063299537211655,3.5044974824845787
1733512135458613000,6.148613037109375,-27.366470825517176,3.0416952620625493,2.1457105911955234
1733512135468688000,6.15868798828125,-14.429234981602429,-0.16678046174049377,0.5671520180169493
1733512135478762800,6.1687626953125,-6.008631927999854,-1.125287055233121,-0.296767681678012
1733512135488836900,6.1788369140625,-1.192630406665802,-0.6630436377376318,-0.08582841780260204
1733512135498911700,6.188911865234375,0.9870536196716129,-0.36860651789903637,0.5815006421692669
1733512135508987000,6.19898681640625,1.785300823755562,-0.3733674486905336,1.0593567124035208
1733512135519061800,6.209061767578125,1.955010909207165,-0.20356383973658085,1.2328656786814332
1733512135529137000,6.219136962890625,1.8444035855874419,0.09868716872334479,1.263994684177637
1733512135539210800,6.229210693359375,1.1648787686482072,0.668449880695343,1.2619199237301946
1733512135549286000,6.239285888671875,-1.5135928375974297,2.028813519781828,1.6204098290234803
1733512135559361000,6.249361083984375,-3.876400119319558,4.498523717647791,1.9972136819034814
1733512135569436000,6.259435791015625,-2.5072800500646233,6.630961278033256,2.21519343887493
1733512135579510000,6.269510009765625,0.11577888103872537,6.163575821474194,2.3316398439116774
1733512135589585000,6.2795849609375,1.5995982194021343,5.9252539720892905,2.018506645300984
1733512135599660000,6.289659912109375,3.315921368521452,5.671652720507979,1.2735355427220463
1733512135609734700,6.299734619140625,5.307249499517679,3.992153573656082,0.20190445515699684
1733512135619809800,6.309809814453125,7.024767119118571,1.3654016332536936,-0.6152687639974057
1733512135629883600,6.319883544921875,7.985427091252803,-1.1006880360275506,-0.9185144825831055
1733512135639958800,6.329958740234375,8.489968850773572,-2.493222590878606,-0.86874076317586
1733512135650034000,6.340033935546875,9.426388700142502,-2.766005512791872,-0.9695800684317946
1733512135660108800,6.35010888671875,11.135022756063938,-2.243613039281964,-1.3909901018880306
1733512135670183000,6.360182861328125,13.674157787811755,-1.5266104323416947,-2.3375271483846007
1733512135680257800,6.3702578125,15.373167690819502,-0.671375997275114,-3.7548733422785996
1733512135690333000,6.3803330078125,15.153008690112829,0.482049941727519,-4.97829811565876
1733512135700408000,6.390407958984375,12.72239833049178,1.7587053700357675,-5.115739085668325
1733512135710483000,6.40048291015625,9.091616062784194,2.713815306827426,-4.619016183204948
1733512135720557000,6.41055712890625,5.861935638388991,3.0143343769282103,-4.061618447287381
1733512135730632000,6.4206318359375,3.3486341360777616,2.5373954946041106,-3.5107623880982395
1733512135740706800,6.430706787109375,1.8487907146304845,2.0075170492529866,-3.074755820143223
1733512135750781700,6.44078173828125,0.9811872118562459,1.4872820460379124,-2.5539021005079148
1733512135760855800,6.450855712890625,0.3334878582447767,0.9787433258354663,-2.0916797258004545
1733512135770930700,6.4609306640625,-0.006025836160778999,0.574707182636857,-1.8190756675854325
1733512135781005800,6.471005859375,0.14868198353536427,0.46567982168495653,-1.3789125644728542
1733512135791081000,6.4810810546875,0.10631751747131347,0.7971428961038589,-0.8539609810646623
1733512135801155800,6.49115576171875,-0.6834861217856407,1.575510364589095,-0.5374203851632774
1733512135811230000,6.50122998046875,-2.1500305002212525,2.4531238047242163,-0.41209969573207195
1733512135821304800,6.511304931640625,-3.3739152923285958,2.883047253373265,-0.5673517053075134
1733512135831380000,6.5213798828125,-4.638106375861168,2.742861953091621,-0.7675535212650895
1733512135841455000,6.531455078125,-7.184915010976791,2.3438585433632135,-1.31318804641366
1733512135851528400,6.541528564453125,-17.583451876473426,2.523401456043124,-2.5683079347401856
1733512135861603600,6.551603515625,-16.90668892546296,0.9313882849425077,-2.620145381744206
1733512135871678500,6.561678466796875,-6.729947721964121,-0.6050847852438688,-1.864608461487293
1733512135881753300,6.57175341796875,-5.269107108128071,0.07322773329615592,-2.056784353508055
1733512135891828500,6.581828369140625,-4.287877226173878,0.59810734744668,-1.8336257325939833
1733512135901902300,6.59190234375,-3.4351123960912227,0.6764385413616896,-1.2864385711759327
1733512135911977500,6.6019775390625,-2.6949884412825105,0.5742191068589687,-0.9150303667943924
1733512135922052400,6.61205224609375,-2.03263278580904,0.48206221668720245,-0.8955249444007873
1733512135932127500,6.62212744140625,-1.4537678989708422,0.4010661874771118,-1.1187846145365385
1733512135942201300,6.632201416015625,-1.011621440021321,0.23442718003392218,-1.286064038775116
1733512135952276500,6.6422763671875,-0.7397171275734901,0.05837970825433731,-1.2187506440892815
1733512135962351400,6.652351318359375,-0.5441525064298883,-0.011827800437808036,-1.0120439762823283
1733512135972426500,6.662426513671875,-0.3468868535220623,-0.05583820707798004,-0.7785506430324166
1733512135982501600,6.672501708984375,-0.1443055950820446,-0.15027590166330337,-0.576687469733879
1733512135992575500,6.682575439453125,0.05839724391102791,-0.3409820133924484,-0.42345133002549407
1733512136002650600,6.692650634765625,0.25363456932902334,-0.4773252512931823,-0.29189474187940356
1733512136012725200,6.702725341796875,0.4296083913505077,-0.5042705413639545,-0.16127298689801245
1733512136022800400,6.71280029296875,0.6285071618854999,-0.45567806763052937,-0.029928945524059235
1733512136032874200,6.722874267578125,0.7837754650086164,-0.4158621900707483,0.08120663975346833
1733512136042949400,6.732949462890625,0.848590759268403,-0.3980190748661756,0.16056805349905043
1733512136053024500,6.7430244140625,0.7848129913628101,-0.43727381141185756,0.21988000110220163
1733512136063099400,6.753099365234375,0.5922194584518671,-0.47803427634537216,0.2533635338352993
1733512136073174500,6.763174560546875,0.3295277224421501,-0.49954585092961784,0.1849951867364347
1733512136083248400,6.773248291015625,0.04533902489542961,-0.48242812739014623,0.04534834071304649
1733512136093323500,6.783323486328125,-0.19981296277046204,-0.3805938928127289,-0.07744816400278359
1733512136103398400,6.7933984375,-0.3933844008028507,-0.26715339159369467,-0.21616204002499578
1733512136113473500,6.8034736328125,-0.5485737934708595,-0.18950725733339785,-0.37307621065899726
1733512136123548400,6.81354833984375,-0.7155039658803493,-0.1195446633130312,-0.5500780605539679
1733512136133622500,6.82362255859375,-0.9453402379274368,-0.09059855481386184,-0.7514872795399278
1733512136143697400,6.833697509765625,-1.2966145127534865,0.03229366536140442,-1.0036767646271736
1733512136153772300,6.843772216796875,-1.7177239558279513,0.21293840180337428,-1.2492898669987915
1733512136163847400,6.853847412109375,-2.2208510262452066,0.42543256697058673,-1.5349378234431146
1733512136173921300,6.86392138671875,-2.729650589340925,0.7449994518905878,-1.8452771535515784
1733512136183996400,6.873996337890625,-3.0881063001036644,1.415002407246828,-2.250657404835522
1733512136194071600,6.884071533203125,-3.448845153367519,2.4700983204007145,-2.775983009187877
1733512136204146400,6.894146484375,-3.8185552485942837,3.6132711609363555,-3.3973604653239247
1733512136214220500,6.904220458984375,-4.226049131031334,4.361112558254599,-4.068528665067255
1733512136224295400,6.91429541015625,-4.50507153185606,4.327239514747261,-4.609906994076073
1733512136234370600,6.92437060546875,-4.598533074885607,3.572584345760941,-4.842342415770888
1733512136244445400,6.934445556640625,-4.794340893667936,2.5202801091521976,-4.66387619241178
1733512136254520300,6.944520263671875,-5.239807363885641,1.6006073964446783,-4.076905156007409
1733512136264594400,6.954594482421875,-5.749982745379209,1.0368570766299963,-3.0159765911772847
1733512136274669300,6.96466943359375,-6.020578970903157,0.9200742792457342,-1.4502239427536725
1733512136284744400,6.974744384765625,-6.053596274363994,1.0650631804168225,0.10918923698272555
1733512136294819300,6.9848193359375,-5.796555111461878,1.4068027341783045,1.3754609627142547
1733512136304894500,6.99489453125,-5.346110852831602,1.9018331535100936,2.2874815532334147
1733512136314968300,7.00496826171875,-4.754463641309738,2.1879770767778157,2.881467875227332
1733512136325043500,7.01504345703125,-4.034745345669984,1.9340531691133975,3.142780431838333
1733512136335118600,7.02511865234375,-3.3438708671987056,1.368351130709052,3.1711072393953796
1733512136345193500,7.035193359375,-2.649972072470188,0.816495831349492,2.7899083664268254
1733512136355267600,7.045267578125,-1.841529199194908,0.2429758126705885,1.9555369789078831
1733512136365342500,7.055342529296875,-0.7340881817758083,0.1017412955969572,1.3758715893417597
1733512136375417300,7.065417236328125,0.38828386279344557,0.20505027890205382,0.8342601822294294
1733512136385492200,7.0754921875,1.3485264862984419,0.3869716111510992,0.30726021492406724
1733512136395567400,7.0855673828125,2.1579513563483954,0.7862783877402544,-0.21709062611199914
1733512136405641200,7.09564111328125,3.0000059918463227,1.2428390834242105,-0.8579569918982685
1733512136415716400,7.10571630859375,4.012763230964541,1.625634285673499,-1.5059825087241827
1733512136425791500,7.11579150390625,5.0175540212482215,1.9840479108601807,-2.125787747107446
1733512136435866400,7.125866455078125,5.9229223142713305,2.414431378236413,-2.6274916528537866
1733512136445940500,7.1359404296875,6.572631838661432,2.8195512250185013,-3.039077480779588
1733512136456015400,7.146015380859375,6.737955087330937,3.152735131880641,-3.387007413613796
1733512136466090500,7.156090576171875,6.290184431824088,3.232721107265353,-3.550534718777239
1733512136476165600,7.16616552734375,5.619879863172769,2.8306027803868052,-3.539024021464586
1733512136486240500,7.176240478515625,4.75430932753086,2.0371686756730076,-3.300590528398752
1733512136496314600,7.186314697265625,3.7948230753511187,1.0886696814537047,-2.9918805530577894
1733512136506389500,7.196389404296875,2.902728689920902,0.2857832732617855,-2.5949028039380906
1733512136516464400,7.20646435546875,2.0987002720870076,-0.2815028194636106,-2.1888877618819476
1733512136526539300,7.216539306640625,1.4112141208797693,-0.6417290470302105,-1.8567438655920325
1733512136536613400,7.22661328125,0.9340922832041978,-0.9149953685462474,-1.5733330205500125
1733512136546688300,7.236688232421875,0.6294967574447393,-1.1114449923634528,-1.3340335583046077
1733512136556763400,7.246763427734375,0.48689212106168267,-1.160216329795122,-1.1514165719415992
1733512136566838500,7.256838623046875,0.4388083275027573,-1.16525549300611,-0.9915637175071984
1733512136576913400,7.266913330078125,0.48684141378775236,-1.1051029298603534,-0.8989360680185258
1733512136586987500,7.276987548828125,0.5916460424780845,-0.9632277767956257,-0.8058198312953114
1733512136597062400,7.2870625,0.6927633609578013,-0.7984457953959703,-0.696905794524774
1733512136607137500,7.297137451171875,0.8690551628872751,-0.6798433813691139,-0.6671106679808348
1733512136617212400,7.30721240234375,1.1927326979964972,-0.6318284152626991,-0.7440826293066144
1733512136627286500,7.31728662109375,1.521496158067882,-0.5736579658448696,-0.8791972752604633
1733512136637361400,7.327361328125,1.7928268353462218,-0.5840075104236603,-0.9720395904131233
1733512136647436300,7.337436279296875,2.0113035820543765,-0.7063128706216811,-0.9730934833802283
1733512136657511400,7.347511474609375,2.167755834265053,-0.8535802381187677,-0.9164956170413643
1733512136667586300,7.35758642578125,2.2371780377984045,-0.9346902490973472,-0.7915661188848316
1733512136677660400,7.367660400390625,2.1959151763007045,-0.9491466444730758,-0.6348576999559998
1733512136687735300,7.3777353515625,2.1209268630728126,-1.0171043284118175,-0.39006263596899804
1733512136697810400,7.387810546875,2.0384727440088986,-1.0551239702045916,-0.057447322775051
1733512136707885600,7.397885498046875,1.9660735704913734,-1.0382575910776852,0.32293665361404417
1733512136717959400,7.40795947265625,1.8524927840188146,-1.0113929650276898,0.7304170920476317
1733512136728034600,7.41803466796875,1.7118492185756564,-0.9779016143143177,1.1620518746592103
1733512136738109400,7.428109375,1.5413430143103002,-1.0168103139013052,1.6220118573926388
1733512136748184300,7.438184326171875,1.282512629903853,-1.134481000036001,2.1011498571962117
1733512136758259500,7.448259521484375,0.9048208882734179,-1.333060037097335,2.501517541015148
1733512136768333300,7.458333251953125,0.44343671795576806,-1.5659610304772853,2.7786858384057878
1733512136778408400,7.468408447265625,-0.15302724619805813,-1.7986141865760088,2.805871074712276
1733512136788483300,7.4784833984375,-1.1857348019331693,-2.036164467066526,2.6455621470734476
1733512136798558500,7.488558349609375,-2.822763465063274,-1.9215128364920615,2.0467259008303285
1733512136808633300,7.49863330078125,-3.9932004523605107,-1.6619325105011462,0.9760771753661334
1733512136818707500,7.50870751953125,-3.8272932663232084,-1.4289052603930235,0.06093472649939358
1733512136828782300,7.5187822265625,-3.257342922824621,-1.0985896024435757,-0.6794960292361676
1733512136838857500,7.528857421875,-2.4590502721637484,-0.6906243031024932,-1.4576929634600877
1733512136848932900,7.538932861328125,-1.8163544259279965,-0.304091083368659,-2.2669380930289624
1733512136859006700,7.5490068359375,-1.5978627739116549,0.00462064553797245,-3.0211858502581714
1733512136869081900,7.559081787109375,-1.6755919102802872,0.1693243010044098,-3.5695740580290556
1733512136879156500,7.569156494140625,-1.755246461753547,0.07956921127736567,-3.727999656139314
1733512136889231600,7.579231689453125,-1.6776386136770247,-0.06569149257242679,-3.255753900067508
1733512136899306800,7.589306640625,-1.4045555397734044,-0.0037584757506847377,-2.2935312086611983
1733512136909380600,7.599380615234375,-1.1315578060656786,0.15106442169249057,-1.6125557545222342
1733512136919455700,7.609455810546875,-0.8869304267957806,0.2852642178237438,-1.0153701980955898
1733512136929530600,7.619530517578125,-0.577818008133769,0.24810791486203668,-0.3802261189462617
1733512136939605800,7.629605712890625,-0.10093465538918972,-0.03821954827904701,0.24463315142355857
1733512136949679600,7.6396796875,0.47013709335476156,-0.32700258787870407,0.8257531967774033
1733512136959754800,7.649754638671875,0.9351049673780798,-0.39428397999107834,1.384335320173949
1733512136969829600,7.65982958984375,1.143593696296215,0.07523147433400154,1.9235572018012403
1733512136979904800,7.66990478515625,1.1897652264930307,1.257851359117031,2.475771397601068
1733512136989979600,7.679979736328125,1.2975769280448555,3.236428145089745,3.101752840401232
1733512137000053800,7.6900537109375,1.5799018775463103,5.808022846415638,3.769823074129224
1733512137010128600,7.700128662109375,2.0197600063629446,8.583156837558747,4.370002551674842
1733512137020203500,7.71020361328125,2.5499790818452834,10.889297936946154,4.755089079731703
1733512137030278700,7.720278564453125,2.9775369704067707,10.771986731773614,4.57890716791749
1733512137040352500,7.7303525390625,2.9013550634801386,6.613085429602861,3.4361364784419535
1733512137050427600,7.740427734375,2.297302105502039,0.8601222071081399,2.1841461203128096
1733512137060502800,7.750502685546875,1.538297947525978,-3.103237818261981,1.6588734151914715
1733512137070577700,7.76057763671875,0.9105681997537612,-5.033508546227217,1.694814789405465
1733512137080652800,7.77065283203125,0.4876012922443449,-5.943819556349515,1.7592461989141999
1733512137090726700,7.7807265625,0.5455595602162182,-6.458801461341976,1.7449933632865546
1733512137100801800,7.7908017578125,1.1665819193042815,-6.814061590933799,1.740453381769359
1733512137110876700,7.800876708984375,2.0208450251206753,-6.743342625588178,1.5947537019804119
1733512137120951600,7.81095166015625,2.898281062862277,-6.240213655474782,1.332447750417888
1733512137131025700,7.821025634765625,3.5900405074745416,-5.188742947080731,1.0634716734416783
1733512137141100500,7.8311005859375,4.0196968296200035,-3.5514813519775865,0.7207312720745801
1733512137151175700,7.84117578125,4.3721541767507786,-1.5278344211786985,0.2287349962742999
1733512137161250600,7.85125048828125,4.8073956055521965,0.43719314739108084,-0.2147052653454244
1733512137171325700,7.86132568359375,4.7709144253730775,2.2980092308580873,-0.627595015476644
1733512137181399600,7.871399658203125,4.085018319836259,3.7312358615815637,-1.1262984242327512
1733512137191474700,7.881474609375,2.952660887825489,4.855968205541372,-1.7895950138181447
1733512137201549800,7.8915498046875,2.135771673244238,5.64483076455593,-2.666486569419503
1733512137211624700,7.901624755859375,1.7241086884289978,5.650300135877728,-3.5640628933921454
1733512137221698800,7.91169873046875,1.3954407976865768,4.324823685777187,-3.9173417860388753
1733512137231773700,7.921773681640625,0.9936761796165257,2.60466753436625,-3.769234460586309
1733512137241848800,7.931848876953125,0.6345481956154108,1.1743863094449043,-3.5474750389456746
1733512137251923500,7.94192333984375,0.43693595775961874,0.0523106174737215,-3.4428619873046875
1733512137261998600,7.95199853515625,0.5532119746655225,-0.8625941501796245,-3.4718691783413287
1733512137272072700,7.96207275390625,0.23730068964362144,-1.1392197189956903,-3.9474367723122237
1733512137282147600,7.972147705078125,-0.6529483601808548,-1.0226765755861997,-4.4605005687236785
1733512137292222700,7.98222265625,-1.6362310830116271,-0.8862415677487849,-4.574009751264751
1733512137302297600,7.992297607421875,-2.377467967498302,-0.7102882039934396,-4.248600570057333
1733512137312371700,8.002371826171874,-2.9880478430271147,-0.5025035316914319,-3.650913786110282
1733512137322446600,8.012446533203125,-3.439932363593578,-0.272621009349823,-2.9550641495749352
1733512137332521700,8.022521728515626,-3.7277298992872234,-0.10540624784529208,-2.2257468354627488
1733512137342596900,8.032596923828125,-3.994292923772335,0.012796353209018707,-1.4619339620307088
1733512137352671700,8.042671630859376,-4.272034344875812,0.16817980714440345,-0.6941870370853692
1733512137362745900,8.052745849609375,-4.515338074326515,0.4173246638387441,-0.012451448761485516
1733512137372820700,8.06282080078125,-4.673044418251514,0.6036643970519304,0.5523584265761077
1733512137382895600,8.0728955078125,-4.685034131252765,0.5221808765858411,0.8821693498738109
1733512137392970500,8.082970458984375,-4.502864377200603,0.28909575881063937,1.0766692278627306
1733512137403044600,8.093044677734374,-4.219347879827022,-0.03766191439628601,1.1986787469193338
1733512137413119500,8.103119384765625,-3.915595234632492,-0.31436639366745944,1.2659030020169912
1733512137423194600,8.113194580078124,-3.589527881777286,-0.42874446799755095,1.3124779984481632
1733512137433269800,8.123269775390625,-3.2414497726440428,-0.3962257617086172,1.3114505550965665
1733512137443344600,8.1333447265625,-2.8425977540850638,-0.23365619566142556,1.2437499146588147
1733512137453418800,8.143418701171875,-2.4101838037945327,-0.043861353558301924,1.1472609866321086
1733512137463493600,8.15349365234375,-2.0085775180913505,0.13497019598186016,0.9667096275620162
1733512137473568800,8.16356884765625,-1.6856246439948677,0.3110088999330997,0.683879943408817
1733512137483643600,8.1736435546875,-1.4040227480709553,0.5366220743924379,0.3201216692585498
1733512137493718500,8.183718505859375,-1.1883376779079438,0.6717986066013574,-0.014418730246461927
1733512137503792600,8.193792724609375,-1.0659154133319855,0.6720680711925029,-0.1320760637092404
1733512137513867500,8.203867431640624,-1.1627625071465968,0.5491331809192895,-0.039426585981249804
1733512137523942700,8.213942626953125,-1.5450328087389469,0.4257084613025188,-0.010030085099767893
1733512137534017500,8.224017578125,-2.0673919645011423,0.6317208632349968,-0.20642341215247287
1733512137544091600,8.234091552734375,-2.6845950575619932,1.4665490546107292,-0.4655675934821367
1733512137554166500,8.24416650390625,-3.5099291521444913,3.270713276529312,-0.9594481121264398
1733512137564241700,8.25424169921875,-4.431843214038014,5.920835571125149,-1.6634471528477965
1733512137574316800,8.26431689453125,-5.243251366859674,8.475598964637518,-2.402941577581316
1733512137584391700,8.2743916015625,-5.728932943087816,10.260634123194217,-2.941226178358495
1733512137594465800,8.2844658203125,-6.087874391540884,11.254606582343577,-3.0141923381090163
1733512137604540700,8.294540771484375,-7.205223639512061,10.349484957557916,-2.3199136041522026
1733512137614615600,8.304615478515625,-9.362072003054617,6.859377819475531,-0.7725194731093943
1733512137624690700,8.314690673828125,-13.475388781136273,3.6066537886232135,1.4769608507707714
1733512137634764500,8.3247646484375,-13.465476458930969,1.6783195816785097,2.516720955365896
1733512137644839700,8.334839599609374,-9.306758696633576,0.9346031553357839,2.2865257138133046
1733512137654914600,8.34491455078125,-5.483484018301963,1.0334048903495072,1.945841952715069
1733512137664989700,8.35498974609375,-3.561215979528427,0.9470680846333503,2.184615783651173
1733512137675064600,8.365064697265625,-2.143308644620329,0.5710246947318315,2.6901749035209415
1733512137685138700,8.375138671875,-0.8524269764304161,0.31702830635309215,3.1413261413767932
1733512137695213600,8.385213623046875,0.7298854693889617,0.08958440933525562,3.5485891376674172
1733512137705288700,8.395288818359376,2.7753309750199318,0.18450491900146007,3.886633636303246
1733512137715363800,8.40536376953125,4.747624735200405,0.2687310161739588,3.9949186544552444
1733512137725437700,8.415437744140625,6.78315733410418,0.06775719293057918,3.414466206164658
1733512137735512800,8.425512939453125,8.805478569257259,-0.18018179510533808,2.1555713293440637
1733512137745587700,8.435587646484375,11.010448281890154,-0.1718593724399805,0.5936165753660724
1733512137755662600,8.44566259765625,12.004822892099618,0.07415127788186072,-0.6044499944716691
1733512137765737700,8.45573779296875,11.146457173269987,0.5894049855530261,-1.2229518951714038
1733512137775811600,8.4658115234375,9.419981171187757,1.4326111291736363,-1.5963094069898127
1733512137785886700,8.47588671875,7.7609776998758315,2.4577584787875413,-1.4274306577958167
1733512137795961600,8.485961669921876,6.689051063430309,2.978819411432743,-0.8893653257925063
1733512137806036700,8.49603662109375,6.237107506152987,3.073488576686382,-0.3122228788327426
1733512137816111600,8.506111572265626,5.905614036595821,2.796300697812438,0.019747195260226724
1733512137826185700,8.516185791015625,5.076926832193136,1.8611393240720033,0.12540506151271982
1733512137836260600,8.526260498046875,3.6146491712912914,0.5631663824468851,0.15268771204538642
1733512137846335700,8.536335693359375,2.0574378489807246,-0.4841337622642517,0.17587569540925324
1733512137856411100,8.5464111328125,0.843815361560136,-1.2135340784847735,0.2228332979498431
1733512137866485000,8.556485107421874,-0.020321780277788637,-1.6225807433217763,0.4335995068132877
1733512137876560100,8.56656005859375,-0.7420936474464833,-1.7052075886040925,0.7821659839853644
1733512137886635000,8.576635009765624,-1.2552863309346138,-1.6074246752440928,1.2229209155112504
1733512137896710100,8.586710205078125,-1.4204641797840594,-1.5216396581918001,1.3974647047296165
1733512137906785300,8.596785400390624,-1.0505440950684248,-1.4885159717470406,1.1338617721591144
1733512137916859100,8.606859130859375,-0.17129998499155044,-1.4364876783460379,0.7042191132128238
1733512137926934300,8.616934326171876,0.8608058054581283,-1.5943506741374731,0.379731321166642
1733512137937009200,8.627009033203125,1.8218568227365612,-1.72675306545794,0.10028590915687381
1733512137947084300,8.637084228515626,2.5380089503273364,-1.8269570684850214,-0.1415338288137689
1733512137957158100,8.647158203125,3.1194772976621983,-1.935035165888071,-0.3446814889648929
1733512137967233300,8.6572333984375,3.5451290603414174,-2.1119038909226653,-0.5489696974532678
1733512137977308200,8.66730810546875,3.8166839017644523,-2.3257348576515913,-0.6950606050495058
1733512137987383000,8.677383056640625,3.917135157550871,-2.547885324436426,-0.7310803051967173
1733512137997458200,8.687458251953124,3.888912394890189,-2.832255808290839,-0.6655385232932866
1733512138007532000,8.697531982421875,3.8442093298107385,-3.076400080218911,-0.5956725945804268
1733512138017607200,8.707607177734374,3.684257837307453,-3.215044580799341,-0.5504736357428133
1733512138027682000,8.71768212890625,3.295534414052963,-3.2177129232257604,-0.43666196312382816
1733512138037757200,8.727757080078124,2.7418472230911255,-2.953914102756977,-0.3838185174150392
1733512138047831000,8.7378310546875,1.9612249614164232,-2.496886958605051,-0.3377815368507057
1733512138057906200,8.74790625,0.8211258292376995,-1.7110452087163923,-0.26276637214850634
1733512138067981300,8.757981201171875,-1.3572820396840573,-0.5786456911295652,-0.17581890545440837
1733512138078056200,8.76805615234375,-5.5951019802689546,0.7772977934271097,0.12308060975368133
1733512138088131000,8.778131103515625,-7.352409758466481,1.556541460224986,0.25712460340186954
1733512138098205200,8.788205078125,-7.991529499781131,1.695180700108409,0.0144122228738619
1733512138108280000,8.798280029296874,-8.420830432617663,1.3808850335896015,-0.24810283682812004
1733512138118355000,8.80835498046875,-7.827179480057954,0.8323194234251976,-0.6576593143507838
1733512138128430000,8.81843017578125,-6.0318193268418305,0.32919746757447715,-0.8883716385800391
1733512138138505200,8.828505126953125,-3.7001612166211006,-0.03246025409996509,-0.7272183690715581
1733512138148579000,8.8385791015625,-1.569118909986317,-0.13961656048297882,-0.26186186105683446
1733512138158654200,8.848654296875,-0.2303773201212287,-0.09267068491280078,0.30543157472480087
1733512138168729000,8.85872900390625,0.48987391335144637,0.029722353568673133,0.9416888027478009
1733512138178804200,8.86880419921875,0.8461895433455705,0.3059825962036848,1.549596901784092
1733512138188878000,8.878878173828125,1.0521518225260078,0.9318091407030821,2.1809939398922027
1733512138198953200,8.888953125,1.1508424983806906,1.932330583104491,2.8499074925765395
1733512138209028400,8.8990283203125,1.1915195228144526,3.1520079866498705,3.533436576721072
1733512138219103000,8.90910302734375,1.4408039341099559,4.609652434793114,4.200250380647182
1733512138229178000,8.91917822265625,2.0648981018587946,6.351465706738829,4.824970425209402
1733512138239252000,8.929251953125,2.848393288621306,8.268415180838108,5.349576483115554
1733512138249327000,8.9393271484375,3.5206937072649596,9.611987259599566,5.46607169573009
1733512138259402000,8.949402099609374,3.8932287967845793,8.830103891947864,4.871467387968302
1733512138269477000,8.95947705078125,3.694479371592402,4.634242101648449,3.6658567959591744
1733512138279551000,8.969551025390626,3.020021190392971,-0.28527941539287566,2.7590511636093256
1733512138289626000,8.979626220703125,2.428334231382608,-3.0311282753407953,2.488169399142265
1733512138299701200,8.989701171875,2.06958348319605,-4.361498927223682,2.1609978844374416
1733512138309776100,8.999776123046875,2.0767004755944014,-5.215007269150019,1.6966735690146684
1733512138319851300,9.009851318359376,2.5317495976716278,-5.917142561826109,1.2358768431961535
1733512138329925000,9.019925048828124,3.813723006132245,-6.190502991366386,0.5080166325571015
1733512138340000300,9.030000244140625,5.466954323783517,-5.962360006168485,-0.7083844161987304
1733512138350075100,9.0400751953125,6.741167619636655,-5.246962496337294,-1.5973453259088097
1733512138360150000,9.05014990234375,7.772455956223607,-3.8067823932141063,-2.013353354191035
1733512138370225200,9.06022509765625,7.993499923071265,-1.5201263310194015,-2.6355408115357157
1733512138380299000,9.070299072265625,7.55411364955008,1.1440256579726933,-3.577446983361244
1733512138390374100,9.0803740234375,5.537270553547144,3.63786199683547,-4.020515744787454
1733512138400449000,9.090448974609375,2.9676714099526404,5.266674328023195,-4.01623353742361
1733512138410524200,9.100524169921876,1.012017891993001,5.8137821405947205,-3.647707099023461
1733512138420598000,9.110597900390625,-0.201377727869153,5.662708366551995,-3.4408880568832156
1733512138430673200,9.120673095703125,-0.5766028236577287,4.816687165510654,-3.5076579923421143
1733512138440748300,9.130748291015625,-0.9381365901589394,3.4853877083450553,-4.007992655561864
1733512138450823200,9.1408232421875,-1.632139429783821,1.7701625835955141,-4.562888930052519
1733512138460898000,9.15089794921875,-2.289669272536039,0.20619068110883235,-4.845834349539876
1733512138470972200,9.16097216796875,-2.9192870260119435,-0.9668810386061668,-4.717169391182065
1733512138481047000,9.171047119140624,-3.3865947411596773,-1.8783710293799638,-4.101279134285449
1733512138491122200,9.1811220703125,-3.426457964992523,-2.219690896424651,-3.4592721470966934
1733512138501197000,9.191197021484374,-3.432976553106308,-1.9116157118558883,-2.9439442051455376
1733512138511271200,9.201271240234375,-3.588796060371399,-1.2548358106881379,-2.556132343778014
1733512138521346000,9.211345947265626,-3.785799810940027,-0.5273281763464213,-2.1701754626274106
1733512138531421200,9.221421142578125,-4.073580980020761,0.10709843871593475,-1.7414365475878117
1733512138541496000,9.23149609375,-4.321241735637187,0.3994797950685024,-1.148138646249473
1733512138551571200,9.2415712890625,-4.3423382996797555,0.402490667322278,-0.48116738673932846
1733512138561645000,9.25164501953125,-4.223602030140161,0.23468027801215646,0.040300811532512304
1733512138571720200,9.26172021484375,-4.038112776276469,-0.05869242746531963,0.3230160389931872
1733512138581795300,9.27179541015625,-3.6985727783858775,-0.34908290226161476,0.5006037624847144
1733512138591870000,9.281869873046874,-3.3068414054870603,-0.5253250198304653,0.6517736903782934
1733512138601945000,9.291945068359375,-2.906960628402233,-0.5173176544636487,0.7408779880464077
1733512138612019000,9.30201904296875,-2.5426491773486135,-0.32860183976888657,0.8163705975346267
1733512138622094000,9.312093994140625,-2.294796844682842,-0.025699089401960373,0.8200194754309952
1733512138632169200,9.322169189453126,-2.1129823338091374,0.3397702995151281,0.8002697959527373
1733512138642244000,9.332244140625,-1.9922342860557138,0.6934586497455835,0.667974372138083
1733512138652318200,9.342318115234375,-2.0116275533117354,0.7391863816976547,0.23885460455473512
1733512138662393000,9.35239306640625,-2.1711586284458635,0.5631307266116142,-0.31251729520205407
1733512138672468200,9.36246826171875,-2.519041215007007,0.4101023113697767,-0.6903172099146991
1733512138682543000,9.372543212890625,-3.0597391605362296,0.4176017272144556,-0.8217330013506114
1733512138692618200,9.3826181640625,-3.738734985165298,0.6392652872651815,-0.8414737668700516
1733512138702692000,9.392692138671874,-4.518613150474429,1.0775392156302928,-0.9873519450310617
1733512138712767200,9.402767333984375,-5.366877746528386,1.6516297276735306,-1.3206200961105525
1733512138722842000,9.412842041015624,-6.296798881527781,2.3770739997446535,-1.9387477566704152
1733512138732917000,9.4229169921875,-7.49779087382555,3.3183670081079004,-2.9212732313930987
1733512138742991000,9.4329912109375,-9.344028981363772,4.533199309709668,-4.1112446479827165
1733512138753066000,9.44306591796875,-11.9774041392982,5.986144201859831,-5.427576837641
1733512138763141000,9.45314111328125,-13.311855923014878,7.577177714273333,-6.198887373352051
1733512138773216300,9.46321630859375,-11.890424944025277,8.798547308689356,-5.710769509887695
1733512138783291100,9.473291015625,-9.463815052217244,9.190218475833534,-4.514487010455131
1733512138793365200,9.483365234375,-7.252184128129482,8.678044029477238,-3.3046202223062515
1733512138803440000,9.493440185546875,-5.602274063855409,7.358451376718282,-2.1247700944975016
1733512138813515300,9.503515380859374,-4.4204748478055,5.869212935915589,-0.8784457262407988
1733512138823590100,9.513590087890625,-3.2019232334196563,4.710749587267637,0.4101170340148732
1733512138833664300,9.523664306640624,-1.8979612805128097,4.257350570484996,1.6169773703567683
1733512138843739100,9.5337392578125,-0.6841536457836628,4.105926667830348,2.4408031062029303
1733512138853813800,9.543813720703126,0.5956576527396217,3.9658915896743534,3.126403297533095
1733512138863888600,9.553888671875,2.3779765015423298,4.269618515905738,3.9546377897322174
1733512138873963500,9.563963623046876,4.499351985165476,4.519817850089073,4.869291505233943
1733512138884037600,9.57403759765625,6.820686562031507,4.290597591048479,5.31875522839427
1733512138894112500,9.584112548828125,9.871180047577619,3.7270869252085683,5.733733621367811
1733512138904187600,9.594187744140624,12.985900798362493,2.703346519783139,5.883991987374425
1733512138914262500,9.604262451171875,14.03357211447358,1.494972016018629,5.86130318570435
1733512138924337700,9.614337646484374,13.102657876783608,0.06698036333918571,5.488286450147628
1733512138934411500,9.62441162109375,10.52762267961502,-1.0140922871142626,4.685598779398203
1733512138944486700,9.634486572265626,7.728857052993774,-1.100911323389411,3.684190032768249
1733512138954561800,9.644561767578125,5.9949956168353555,-0.691967534404993,2.9484172589063644
1733512138964636700,9.65463671875,5.098501535141468,-0.43401919353008267,2.2914476803854105
1733512138974710800,9.664710693359375,4.821415655337274,-0.22137422171533105,1.6393366478115319
1733512138984785700,9.67478564453125,4.844921326348185,0.08868249205946922,0.9884629019476473
1733512138994860500,9.684860595703125,4.887188396452367,0.32835400248765945,0.20195565562127157
1733512139004935700,9.694935791015626,4.648320311361551,0.4804764088004827,-0.472243344919011
1733512139015010600,9.705010498046875,3.8878406740054485,0.5041396084606647,-1.0383232036598027
1733512139025084700,9.715084716796875,2.8882088739201426,0.16056816309690475,-1.6181364772640168
1733512139035159600,9.72515966796875,2.0494173318713904,-0.5059171395272016,-2.0520497262015938
1733512139045234700,9.735234619140625,1.2756851219713687,-1.140070782867074,-2.4719471631377936
1733512139055309600,9.7453095703125,0.6893778101727366,-1.6874352005481719,-2.541820909830928
1733512139065384700,9.755384765625,0.5044181331411004,-2.0969056437551976,-2.0894800237990916
1733512139075458600,9.76545849609375,0.7320537533387541,-2.296777643236518,-1.4486718910060823
1733512139085533700,9.77553369140625,1.2668410135194659,-2.4592706369161603,-0.799182146846503
1733512139095608800,9.78560888671875,2.0500430625542996,-2.5620734242647885,-0.218826893586386
1733512139105683500,9.795683349609375,2.8297534700810907,-2.7031033586770294,0.21893740475615486
1733512139115757800,9.8057578125,3.5634102747023104,-2.8104151478826997,0.4339814553355798
1733512139125832400,9.81583251953125,4.326413877578079,-2.8729186580687758,0.5525104753326624
1733512139135907600,9.825907470703125,5.085604059645533,-2.9942531274080273,0.6758234051380306
1733512139145982700,9.835982666015624,5.542565737345814,-3.1538205890297886,0.7479376972995698
1733512139156057600,9.8460576171875,5.749392962792515,-3.2682845880776643,0.8812199401944876
1733512139166131700,9.856131591796874,5.746235960066318,-3.420169093981385,1.0521494113732128
1733512139176206600,9.86620654296875,5.528377637517452,-3.6065737091243264,1.1783822472132741
1733512139186281700,9.87628173828125,5.214699810636043,-3.605494097194075,1.2792143190108238
1733512139196356600,9.886356689453125,4.814155308945477,-3.336903950795531,1.4395786300987004
1733512139206430700,9.8964306640625,4.240085839690268,-2.821024220180511,1.6568360641449689
1733512139216505600,9.906505615234375,3.233411719878018,-1.8536521831870079,1.848496992380917
1733512139226580700,9.916580810546876,1.5615011284589766,-0.15245850639939307,1.8943800610251724
1733512139236655600,9.926655517578125,-4.951174546411633,2.6864865703970193,1.8369030006989835
1733512139246730500,9.93673046875,-21.51472632627487,6.16891718250215,1.67390848723799
1733512139256804600,9.9468046875,-18.720564394056797,5.6195835105746985,1.5127058256298302
1733512139266879500,9.95687939453125,-13.070918338173627,2.840599858266115,0.38374866704922167
1733512139276954600,9.96695458984375,-9.191089997971057,1.0395406166255474,-0.4030712802218273
1733512139287029800,9.97702978515625,-5.731955505779386,-0.061129299223423,-1.041740537822619
1733512139297103600,9.987103515625,-2.2571990815639493,-0.8283101877838372,-1.1998181992780417
1733512139307178800,9.9971787109375,0.4474781023010611,-0.8380009761929511,-0.7230822191148996
1733512139317253600,10.007253662109376,1.7935773614525794,0.19763211160004138,-0.02813877417165786
1733512139327328800,10.017328857421875,1.9991294523969292,1.9565812272638081,0.7314583447288722
1733512139337403600,10.027403564453126,1.9618050993919371,4.0547032610714435,1.7045852189220487
1733512139347477800,10.037477783203125,1.9923278095580637,6.331262292143702,2.7314325043216345
1733512139357552600,10.047552734375,1.978237763276696,8.501453536862135,3.994721378317475
1733512139367627500,10.05762744140625,2.4248668475329875,11.461368341338634,5.577815914425254
1733512139377702700,10.06770263671875,3.222732797214389,13.851988051354883,6.738592216190695
1733512139387777500,10.077777587890624,3.915315248647332,11.12128999878764,6.165004392972588
1733512139397851600,10.0878515625,4.160701337330043,3.737998195323348,3.8381612818181514
1733512139407926500,10.097926513671876,3.9590433312147852,-1.9076093988239764,2.311099306316674
1733512139418001700,10.108001708984375,3.738057232034206,-4.446932062098384,1.844233489717543
1733512139428076800,10.118076904296874,3.724094173133373,-5.286563269841671,1.329387778325379
1733512139438150700,10.128150634765625,4.541180663852393,-5.622608995875716,0.7279878190740943
1733512139448225800,10.138225830078126,6.6412932869553565,-5.859749526521563,-0.21654064581273122
1733512139458300700,10.14830078125,8.612959270626305,-6.153150873571634,-1.7196517090201378
1733512139468375800,10.158375732421876,9.017928310760855,-6.20155513125658,-3.0374545557528734
1733512139478450400,10.168450439453125,8.469138828712701,-5.783815456876158,-3.3235847427561875
1733512139488524800,10.17852490234375,7.489454422634839,-4.779966331356763,-3.3411610237181186
1733512139498599400,10.188599365234374,6.267361190119385,-3.0295658483296632,-3.444753500139713
1733512139508674600,10.198674560546875,5.004943546000122,-0.22483517582416532,-3.62657838627696
1733512139518749700,10.208749755859374,3.0652836429208516,2.926114241683483,-3.9682074654012918
1733512139528823600,10.218823486328125,1.110639594264701,5.253955131703615,-4.380561062829196
1733512139538898700,10.228898681640626,-0.5854489414036274,6.536903522676229,-4.605101347360015
1733512139548973600,10.2389736328125,-1.8659873486250638,6.916920492383837,-4.794257599298656
1733512139559048700,10.249048583984376,-2.7045915514081713,6.151765556693077,-4.483957432156801
1733512139569123800,10.259123779296875,-3.0268799702465534,4.46767849752903,-3.669156422026455
1733512139579197700,10.26919775390625,-2.9478888511180874,2.3794120873034,-2.9750264488905667
1733512139589272800,10.27927294921875,-2.938065376240015,0.5976099193185568,-2.670897663860023
1733512139599347700,10.28934765625,-3.099358346480131,-0.5369716184824704,-2.484609368573129
1733512139609422600,10.299422607421874,-3.3772190100491044,-1.1079875453859567,-2.161061012801528
1733512139619497500,10.30949755859375,-3.6936136946737763,-1.26617144369483,-1.7114968980066476
1733512139629571600,10.319571533203124,-4.04592491133213,-1.03043435010612,-1.31686235101223
1733512139639646500,10.329646484375,-4.4813785215795034,-0.507061633387208,-0.9912997328087687
1733512139649721600,10.3397216796875,-4.853098203063011,0.046422728478908534,-0.6999466965906321
1733512139659796700,10.349796630859375,-5.007637607389688,0.4667039040356874,-0.650735214176029
1733512139669870600,10.35987060546875,-4.885272625958919,0.7131605445593595,-0.8821539331089705
1733512139679945700,10.36994580078125,-4.522645766991377,0.8030243553578853,-1.2546616231650114
1733512139690020600,10.3800205078125,-4.054342026543617,0.6295815131187439,-1.6995897487223148
1733512139700095700,10.390095703125,-3.4768753160655494,0.34963235283792016,-2.056528479050845
1733512139710170600,10.400170654296875,-2.8316870684921738,0.07012859823703765,-2.202780970416963
1733512139720244700,10.41024462890625,-2.134468189430237,-0.23426409842669962,-2.161950655117631
1733512139730319600,10.420319580078125,-1.4703157136678695,-0.4594803825229406,-2.0410791271150113
1733512139740394500,10.43039453125,-0.8267734797358512,-0.6206891816109419,-1.9529170056678353
1733512139750469600,10.4404697265625,-0.19163082535862921,-0.7348615042358636,-1.8469199523225426
1733512139760544500,10.45054443359375,0.49209962657690043,-0.7495026085287332,-1.6589380048602818
1733512139770618600,10.46061865234375,1.2043746204733847,-0.7313847680360078,-1.4615315187096596
1733512139780693500,10.470693603515626,2.113693112426996,-0.6241776082485914,-1.1474095282573251
1733512139790768600,10.4807685546875,3.154346658730507,-0.4220423400104046,-0.7383302032597363
1733512139800843800,10.49084375,4.1418285868167874,-0.32703415206074715,-0.40277653505895283
1733512139810917600,10.500917724609375,4.958932905453444,-0.3804226278990507,-0.057195521704759444
1733512139820992800,10.51099267578125,5.294349101412296,-0.5443249038547278,0.30954993329644204
1733512139831067600,10.521067626953124,4.796864859187603,-0.6922592108279466,0.6266949248317629
1733512139841142500,10.531142578125,3.3446003505170343,-0.7185480828166008,0.906569704702124
1733512139851217700,10.5412177734375,1.6541069314420223,-0.5405559067100286,1.1707212841313333
1733512139861291500,10.55129150390625,0.44445174021720885,-0.12239303848147391,1.445809487312287
1733512139871366700,10.56136669921875,-0.3144132284838706,0.37831133483350277,1.6560950365193188
1733512139881441500,10.571441650390625,-0.8165314141195267,0.7223661798000335,1.879193159417808
1733512139891516700,10.5815166015625,-1.2421475940287112,0.8996183511942625,2.1226199307262896
1733512139901591600,10.591591552734375,-1.5481765135921537,0.9796563490271568,2.1760345639191567
1733512139911665700,10.601665771484376,-1.7587831114470958,0.9541332007139921,2.000792271042615
1733512139921740500,10.611740478515625,-2.3634055398762226,0.9739981771349906,1.730914715182036
1733512139931815700,10.621815673828126,-3.6286920174300668,1.5326625719875095,1.4145489643909037
1733512139941890800,10.631890869140625,-4.970409408235549,2.4683809950888156,0.9361837755907326
1733512139951964700,10.641964599609375,-6.032954468351602,3.144794986531138,0.21989474201360718
1733512139962039800,10.652039794921874,-7.00037443614006,3.7083453998595473,-0.7643059176459908
1733512139972114700,10.66211474609375,-8.454877663648128,4.719727258971333,-1.975774003511667
1733512139982189600,10.672189453125,-12.198563841480016,6.11443974238336,-3.916085063976049
1733512139992264700,10.6822646484375,-18.464728515291213,7.3092135908186435,-6.569848929944634
1733512140002338600,10.692338623046876,-19.867987877774237,7.197884382665157,-7.849313570454716
1733512140012413700,10.70241357421875,-16.336117235195637,6.3209185927838085,-7.529865928000211
1733512140022488600,10.712488525390626,-12.661537911337613,5.710124782243371,-6.928267815828323
1733512140032563700,10.722563720703125,-10.553984616839886,5.248738858360052,-6.524948880988359
1733512140042637600,10.732637451171875,-8.054378462404012,4.679406354498863,-5.445571928536892
1733512140052712700,10.742712646484375,-5.0437610601723195,4.1137469861924645,-3.4036516744226217
1733512140062787600,10.75278759765625,-3.11493351675272,3.5495021608591077,-1.377787944357097
1733512140072862700,10.76286279296875,-1.704800176846981,3.1104151625454426,0.271257264982257
1733512140082937600,10.7729375,-0.4343172631612047,2.811755456575751,1.8452236697986721
1733512140093011700,10.78301171875,0.9268746069103478,2.812621133494377,3.262596897830069
1733512140103086600,10.793086669921875,2.4664807144254444,3.2786645277947186,4.591381449565291
1733512140113161500,10.803161376953126,4.393465844848752,3.9797693083792924,5.7841725997507565
1733512140123236600,10.813236572265625,6.807085906702279,4.399851161971688,6.628990270221233
1733512140133310500,10.823310546875,9.486159570494294,4.197992372587323,7.057129758062958
1733512140143385600,10.833385498046875,11.229559819370508,4.01869612814486,6.984854210925102
1733512140153460700,10.843460693359376,11.526076083570718,3.6626381261736154,6.522539481759071
1733512140163535600,10.85353564453125,10.581646530747413,3.1575925087839365,5.821885952073336
1733512140173610800,10.86361083984375,9.45405178309381,3.1582763993948695,4.7489676742419595
1733512140183684600,10.8736845703125,7.74365480915308,3.138532419005036,3.073246000102162
1733512140193759700,10.883759765625,6.6824108947634695,3.123891899234056,1.5106367642708123
1733512140203834600,10.893834716796874,6.493776328611373,3.0384704547971486,0.2986360328331589
1733512140213909500,10.903909423828125,6.669506989526749,2.883733482071757,-0.8671128697130829
1733512140223984600,10.913984619140624,6.808840056893229,2.615256732919812,-1.8221207343697547
1733512140234058500,10.92405859375,6.242158359801769,1.9979542711377143,-2.6146777639880776
1733512140244133600,10.934133544921876,4.698274428837001,1.3030384083211421,-3.6162273803934455
1733512140254208500,10.94420849609375,2.5779092913001773,0.3082499566137791,-4.645840769505501
1733512140264283600,10.95428369140625,0.3106599403649568,-1.0503197847932577,-5.634568313738703
1733512140274357500,10.964357421875,-1.9192112815514206,-2.3118179759800435,-6.324467809697985
1733512140284432600,10.9744326171875,-2.188502854217589,-3.381541549423337,-5.671529386389255
1733512140294507800,10.9845078125,-1.043737776054442,-3.982410762798786,-4.349675510700047
1733512140304582700,10.994582763671875,0.39484161387383937,-4.149574086377024,-3.083841628396511
1733512140314657800,11.00465771484375,1.7847259464770555,-4.0495968778431415,-1.9471496743127703
1733512140324731600,11.014731689453125,3.0905572003871202,-3.797165254563093,-1.0914056822888552
1733512140334806800,11.024806884765624,4.360963505172729,-3.5595769801497457,-0.6685021223392337
1733512140344881400,11.03488134765625,5.476283877664804,-3.478689087489247,-0.36804946853816506
1733512140354956500,11.04495654296875,6.514736114531755,-3.6037259184777732,0.04997092247977852
1733512140365031700,11.05503173828125,7.223463060557842,-3.934818990540504,0.3983879812438041
1733512140375105500,11.06510546875,7.600078697389364,-4.217117928817868,0.7704241813305764
1733512140385180700,11.0751806640625,7.73912242642045,-4.444956962633133,1.2747981100037693
1733512140395255600,11.085255615234376,7.6378312126785515,-4.707236610710621,1.7614269039541481
1733512140405330700,11.09533056640625,7.237172436958551,-4.980937816512585,2.187146325042099
1733512140415404500,11.105404541015625,6.723682816350459,-5.157907079312205,2.4831147461012004
1733512140425479700,11.115479736328124,6.257713071808219,-4.97654513451159,2.728964360642433
1733512140435554800,11.125554931640625,5.916372746497392,-4.178426671373844,2.9812323177933693
1733512140445629700,11.135629638671874,5.3423932936131955,-2.7611457978010177,3.2127652376905083
1733512140455704600,11.14570458984375,4.319939128606022,-0.6536328353136778,3.2841455895543095
1733512140465778700,11.15577880859375,0.47123044154942034,3.705613344547152,3.4431881505191324
1733512140475853600,11.165853515625,-44.46192408099174,12.222200737655163,2.111931071190536
1733512140485928400,11.175928466796876,-49.036256780600546,13.138024958240985,1.9112164834052323
1733512140496003600,11.186003662109375,-15.861251652014255,7.106309676295519,0.17000472101662306
1733512140506078700,11.19607861328125,-6.453625520008802,4.870700495249032,-0.6799414349161088
1733512140516152600,11.206152587890625,0.02666325825899839,3.900729089412093,0.0805915674618911
1733512140526227700,11.216227783203125,2.239044123931229,3.6295582788705825,0.8366681932192296
1733512140536302600,11.226302490234374,2.9397581516325473,3.9237230115085837,1.63920980656147
1733512140546377700,11.236377685546875,3.2327345512688157,4.681352812391519,2.3999158000193535
1733512140556451600,11.24645166015625,3.5890222703427073,5.740745545956492,3.153038498741388
1733512140566526700,11.256526611328125,4.499295286542177,7.214935470709205,3.9016424048647282
1733512140576601900,11.266601806640624,5.491480277752876,8.166175872591138,4.69919037463814
1733512140586676500,11.276676513671875,6.166480895265937,6.9403317631095645,5.122697818765044
1733512140596751600,11.286751708984376,6.616179888486862,3.5648131272375583,4.413980517350137
1733512140606825500,11.296825439453125,6.648864014470577,-0.23592589415907858,3.1052710776552557
1733512140616900600,11.306900634765626,6.309992125099897,-3.0944986314892766,2.022454798404872
1733512140626975500,11.3169755859375,6.13096359168291,-4.468620746815204,1.2487886394783854
1733512140637050600,11.327050537109375,6.3051294874995945,-4.748542434567213,0.7224743163496256
1733512140647124500,11.33712451171875,6.544947712922096,-4.967448804864287,0.2581288485409692
1733512140657199600,11.34719970703125,6.813154412961006,-5.09426433596313,-0.5666360313188284
1733512140667274800,11.357274658203124,6.806760328009724,-4.953936996862292,-1.1221079868055879
1733512140677349600,11.367349609375,6.502427252578735,-4.459525001689792,-1.1941967061344534
1733512140687424800,11.3774248046875,6.1059185822755095,-3.4993174494981765,-1.274355042411387
1733512140697498600,11.38749853515625,5.463284110838175,-2.2160791356682776,-1.6544082524761556
1733512140707573800,11.39757373046875,4.37284274353683,-0.2748334247022867,-2.3045775033324953
1733512140717648600,11.407648681640625,3.309078078497946,1.787252250084281,-2.990563040718436
1733512140727723500,11.4177236328125,2.2157168782271444,3.498570430523157,-3.616634499889612
1733512140737798700,11.427798583984375,1.2083293494485319,4.75970037291944,-4.155999735510349
1733512140747872500,11.43787255859375,0.5687345379680395,5.37621665275991,-4.736307806894183
1733512140757947600,11.44794775390625,0.019388591080904006,5.335161004272103,-5.177712434500456
1733512140768022500,11.4580224609375,-0.5331762447874993,4.32950044541657,-5.200539183336496
1733512140778097700,11.46809765625,-1.1377104104112834,2.4110920046806332,-4.901511228576302
1733512140788171500,11.478171630859375,-1.6853578097522257,0.6414905620992183,-4.478748465336859
1733512140798246700,11.48824658203125,-2.059863907083869,-0.5478413875430822,-4.028060168817639
1733512140808321800,11.49832177734375,-2.3151515043169257,-1.221308219617605,-3.4966482302889226
1733512140818396700,11.508396728515624,-2.533141344290972,-1.3062374966233967,-2.9379347355976697
1733512140828471600,11.518471435546875,-2.6597978854358195,-0.9642278937488794,-2.3915366787306964
1733512140838545700,11.528545654296876,-2.7223160086691376,-0.4394546625822782,-1.9550944958373904
1733512140848620500,11.53862060546875,-2.7098376353681086,0.21753274385631083,-1.7255524574965238
1733512140858696200,11.5486962890625,-2.645592834472656,0.8388830197244882,-1.7651009162917732
1733512140868771000,11.55877099609375,-2.455125207674503,1.0936123985528945,-1.8810329420655965
1733512140878846200,11.56884619140625,-2.1350655708014963,0.9287234496474266,-1.9647981437280773
1733512140888920000,11.578920166015624,-1.8381752125918864,0.6015957740843295,-2.0849036557942626
1733512140898995200,11.5889951171875,-1.5092834499657153,0.2395680500537157,-2.1257560367949306
1733512140909070300,11.5990703125,-1.1607178495764732,-0.14020634306967258,-2.0474499773211776
1733512140919145200,11.609145263671875,-0.7937164287865162,-0.4248959758758545,-1.8299042278528213
1733512140929219300,11.61921923828125,-0.3356277928829193,-0.5713648864716291,-1.4991706367522477
1733512140939294200,11.629294189453125,0.16599603336453436,-0.5811649804741144,-1.1089556597657502
1733512140949369000,11.639369140625,0.6984568964242934,-0.556748916620016,-0.7355955175988376
1733512140959444200,11.6494443359375,1.1355904225826263,-0.5306611201614141,-0.35496501910276707
1733512140969519000,11.65951904296875,1.5369231520414353,-0.4485346256166696,0.16718489608922973
1733512140979593200,11.66959326171875,1.7767852166056632,-0.35556232740879057,0.6397351697992533
1733512140989668000,11.679668212890626,1.8597569298028944,-0.2501888127893209,1.052559088152647
1733512140999743200,11.6897431640625,1.7049930690705775,-0.20346739362478256,1.3897412708707153
1733512141009818000,11.699818115234375,1.3588345298230646,-0.186830731600523,1.5911656143605708
1733512141019892200,11.709892333984374,0.8973322860836982,-0.19047230297327042,1.7424350571058689
1733512141029967000,11.719967041015625,0.43120877575185146,-0.21573417000174522,1.9347430510737
1733512141040042200,11.730042236328124,0.008867197066545486,-0.17655425225794313,2.171325801706314
1733512141050117400,11.740117431640625,-0.42710671072788536,-0.09133914404809475,2.44464458406195
1733512141060192000,11.75019189453125,-0.9544237080931663,-0.022245149555802344,2.6468971950694917
1733512141070266400,11.760266357421875,-1.4724739146150647,0.03565583527088165,2.6727558589473364
1733512141080341000,11.770341064453126,-1.932989339274168,0.05238602079749107,2.469659636722505
1733512141090416000,11.780416015625,-2.316118888044357,0.09005904110968112,2.0687280354104933
1733512141100491300,11.7904912109375,-2.5595652408361436,0.22810382223129272,1.5148253020018339
1733512141110566100,11.800566162109375,-2.7402245903253553,0.4634568849384784,0.833178378342092
1733512141120640300,11.81064013671875,-2.9165678301811218,0.8100164062023162,0.078260667695757
1733512141130715100,11.820715087890624,-3.1361528303921222,1.2624772653520107,-0.6826483557872474
1733512141140790300,11.830790283203125,-3.309251681499183,1.7852520161777734,-1.3533074369646607
1733512141150865200,11.840865234375,-3.505970477646589,2.3309674976080657,-1.9091478604376315
1733512141160939300,11.850939208984375,-3.7869793761134147,3.0474633240699767,-2.402091536623239
1733512141171014100,11.86101416015625,-4.151742078065872,4.242796559953689,-2.8658322069391606
1733512141181089300,11.87108935546875,-4.56079751073122,5.910574289351701,-3.3834380306944247
1733512141191164200,11.8811640625,-5.12688241097331,7.6057766167700285,-3.947139835192263
1733512141201239000,11.891239013671875,-6.101949094122648,8.289806343913078,-4.475937791830301
1733512141211313200,11.901313232421876,-9.641776248663664,7.54924575125277,-5.097050751811266
1733512141221388000,11.911387939453125,-22.67341939202547,5.573516755926609,-4.980782918211817
1733512141231463200,11.921463134765625,-28.84778256497383,3.3849937357038256,-2.7463755141705275
1733512141241538300,11.931538330078125,-22.39307100329399,2.1495359947025774,-0.8530011961217969
1733512141251613200,11.94161328125,-12.010449499809742,1.3695283577948807,-0.9115648095756769
1733512141261687300,11.951687255859374,-6.071536420202255,1.975024646449089,-0.44492651812210676
1733512141271762200,11.96176220703125,-3.5621032837569713,2.695592252394557,0.6274472045037895
1733512141281837300,11.97183740234375,-1.8341092783272266,2.9571359874129293,1.5890312326803802
1733512141291912200,11.981912109375,-0.017860632594954223,3.1443805605113506,2.587787126713991
1733512141301986300,11.991986328125,2.151053413528204,3.4999323665261266,3.5525331991180775
1733512141312061200,12.002061279296875,4.52014109069407,4.060445604115724,4.501381737427413
1733512141322136000,12.012135986328126,6.930435807517171,4.479505713444948,5.145985755372047
1733512141332211200,12.022211181640625,9.802294142878054,4.827786067152023,5.630484843817353
1733512141342286000,12.0322861328125,12.614026803100108,4.6600154253304,5.224706825387478
1733512141352360200,12.042360107421874,13.714349512946605,4.20689347192347,4.28806865709275
1733512141362435000,12.05243505859375,13.301481828516721,3.7528105645298955,3.2683936014100907
1733512141372510200,12.06251025390625,11.172179643547535,3.784611477938294,2.25840962639749
1733512141382585300,12.07258544921875,8.700165260392428,3.9003701929718253,1.261743690380454
1733512141392660200,12.08266015625,7.203022330075502,3.7407290815919634,0.42467933745048936
1733512141402734300,12.092734375,6.372918829134107,3.365548445999622,-0.05020948960916139
1733512141412809200,12.102809326171876,6.001921616706252,2.776089684432745,-0.2652915249782614
1733512141422884400,12.11288427734375,5.876331243488192,2.032534001609683,-0.6001984379744156
1733512141432959000,12.122958984375,5.2689650693088765,1.204269406533241,-1.13651360184215
1733512141443033300,12.133033447265625,3.748340725639462,0.4984814365684986,-1.8537129734635351
1733512141453108000,12.14310791015625,1.9176620062828063,-0.34978140591979023,-2.7780788124233484
1733512141463183000,12.15318310546875,-0.03905161518901586,-1.3408978911161422,-3.543921438117325
1733512141473258200,12.16325830078125,-2.7448382216006517,-2.37141115167737,-4.334794752432406
1733512141483333000,12.1733330078125,-3.911124518959224,-3.3601842886179685,-4.425483615878224
1733512141493407200,12.1834072265625,-2.4314777901053426,-4.054494586756825,-3.6114413151606914
1733512141503482000,12.193482177734374,-0.2240121690034866,-4.348462920039892,-2.515583768029511
1733512141513557200,12.20355712890625,1.8191262287288903,-4.395077956220508,-1.5759955177575349
1733512141523632400,12.21363232421875,3.4371789732322093,-4.329305799627304,-0.8504970312811434
1733512141533707300,12.223707275390625,4.774081949493289,-4.274821345245838,-0.41585839067846536
1733512141543781400,12.233781494140626,5.735841991823912,-4.26552920076549,-0.18532611745754254
1733512141553856300,12.243856201171875,6.417329048746824,-4.327904116135835,0.12819329485860653
1733512141563931100,12.25393115234375,6.61241615203917,-4.490069777557253,0.6353766092635691
1733512141574006000,12.264006103515625,6.737514942348003,-4.587828140997886,1.2152158940918742
1733512141584080100,12.274080078125,6.620701165303587,-4.739826044148207,1.6372566266670823
1733512141594155000,12.284155029296874,6.389954135087132,-4.808422610512376,1.9241395317338406
1733512141604230100,12.294230224609375,6.07598346273899,-4.738023378640413,2.1906869202584027
1733512141614305300,12.30430517578125,5.491298491445184,-4.3570577299058435,2.5571423976033922
1733512141624380200,12.314380126953125,4.889504272179305,-3.5385306849896905,3.0575498337984084
1733512141634454300,12.324454345703124,4.204036913448572,-2.1688304777592418,3.3837504576444624
1733512141644529200,12.334529052734375,2.671665725623071,-0.06499532700181007,3.375064170102775
1733512141654604300,12.344604248046876,-1.1829665062636137,2.875145686468482,3.2793416964039204
1733512141664679200,12.35467919921875,-24.99285602631569,7.990026694002747,1.2367286377198994
1733512141674754000,12.364754150390626,-34.99703701562881,9.222718477422,0.35923396512623873
1733512141684828200,12.374828125,-17.419748337960243,4.676187976974249,0.14797637428296728
1733512141694903000,12.384903076171875,-9.391999523806572,3.300952931970358,-0.4836342152442783
1733512141704978200,12.394978271484375,-2.7499744154453274,4.002389136466384,0.09296443456183187
1733512141715053000,12.405052978515625,0.5526280372977257,5.529851801723241,1.2069454208094625
1733512141725127200,12.415127197265624,1.5297536988034843,7.330267484763264,2.3097930460236964
1733512141735202000,12.4252021484375,2.0780819930806755,8.809761361142993,3.356853682890534
1733512141745277200,12.435277099609374,2.655706816729903,10.291180068105458,4.353385763394832
1733512141755352300,12.445352294921875,3.7699984306961296,11.752869407725333,5.263743535268307
1733512141765427200,12.45542724609375,5.18852258232832,10.57465681799054,5.500716892653704
1733512141775501300,12.465501220703125,5.952002862805128,5.212797776407003,4.449078426477313
1733512141785576200,12.475576171875,6.176815826797485,0.23715572821497916,3.3394565578877926
1733512141795651000,12.485651123046875,6.449084953969717,-2.7964205247998235,2.5111086684420703
1733512141805726200,12.495726318359376,6.972384605452418,-4.3021120877534145,1.8100053491622208
1733512141815800000,12.505800048828124,8.146628876078129,-4.977528300330042,1.250463879214227
1733512141825875200,12.515875244140625,9.452968079510331,-5.826366312357783,0.291744483221136
1733512141835950000,12.5259501953125,9.677822544556856,-6.623354894682764,-0.6284799816176295
1733512141846025200,12.536025146484375,9.446203992202877,-7.058271913835406,-0.9318786257427185
1733512141856099300,12.546099365234374,8.528682904571294,-6.945387877455353,-1.08148912229985
1733512141866173200,12.556173095703125,7.374256848615407,-6.249981600773334,-1.1436539020508527
1733512141876248300,12.566248291015626,6.095944300749897,-4.638365319058299,-1.0738983749099076
1733512141886323500,12.576323486328125,4.232581455409527,-1.8405284977197647,-1.2909157165899872
1733512141896398300,12.5863984375,2.7936545672178266,1.0841554188996554,-1.8852748174190521
1733512141906473500,12.596473388671875,1.6665923190057277,3.3989836826115845,-2.380884644073993
1733512141916547300,12.60654736328125,0.5922364826519042,5.077248319232464,-2.6570319278538226
1733512141926622500,12.61662255859375,0.1038631100565195,6.125818630009889,-2.8520860056594013
1733512141936697600,12.626697509765625,-0.04865085285715758,6.651515405762195,-3.060650722423196
1733512141946772200,12.636772216796874,-0.08778057478368281,6.229272574743628,-3.254372382581234
1733512141956847400,12.646847412109375,-0.3736035590013489,4.6212195384681225,-3.2256773262336846
1733512141966921200,12.656921142578126,-1.1302379556387663,2.562309571108222,-3.3619220721960064
1733512141976996400,12.666996337890625,-1.9581284567058086,0.8039508225530385,-3.5945278820216653
1733512141987071200,12.6770712890625,-2.767102075856924,-0.3173690826147795,-3.6572938425362107
1733512141997146400,12.687146484375,-3.445202412950992,-0.9318079716593026,-3.4704473288446662
1733512142007220200,12.69722021484375,-4.026635688972473,-1.1738766063570976,-3.2568402339994904
1733512142017295400,12.70729541015625,-4.277706545293331,-0.9890379253566265,-3.0375366810783744
1733512142027370500,12.71737060546875,-4.346497757446766,-0.3447738068908453,-2.7782483237713573
1733512142037445400,12.7274453125,-4.339827193641662,0.4388759859114885,-2.5323323659956456
1733512142047520500,12.7375205078125,-4.129912523573637,0.9566378770112991,-2.337722086434811
1733512142057594400,12.747594482421874,-3.8549510885775087,1.1396060879647731,-2.236569550511241
1733512142067669500,12.75766943359375,-3.464836503225565,1.0127443796366453,-2.104329364015162
