time,seconds_elapsed,z,y,x
1733512858325389600,0.0213896484375,-0.006319637876003981,-0.0017929325113072991,0.025530435144901276
1733512858335464400,0.03146435546875,-0.00822939071804285,-0.02153388038277626,0.024246525019407272
1733512858345539600,0.04153955078125,-0.01629575341939926,-0.03519251197576523,0.023885119706392288
1733512858355614700,0.05161474609375,-0.0246421005576849,-0.03362151235342026,0.018538823351264
1733512858365689600,0.061689697265625,-0.025839677080512047,-0.02068161405622959,0.013117291033267975
1733512858375765500,0.071765625,-0.022465985268354416,-0.002516192151233554,0.011071983724832535
1733512858385840600,0.081840576171875,-0.018818344920873642,0.010792362503707409,0.013111528009176254
1733512858395915500,0.09191552734375,-0.02277793176472187,0.013807326555252075,0.010822541080415249
1733512858405990700,0.10199072265625,-0.016903353855013847,0.007385898381471634,0.003804736537858844
1733512858416065800,0.112065673828125,-0.014797059819102287,0.0016880654729902744,0.001477666199207306
1733512858426140700,0.122140625,-0.011966696940362453,0.009988297708332539,-0.0007335655391216278
1733512858436215600,0.132215576171875,-0.009302470833063126,0.029262926429510117,0.0029056440107524395
1733512858446290400,0.14229052734375,-0.005792910698801279,0.04310840740799904,0.008002769201993942
1733512858456365600,0.152365478515625,-0.006863501388579607,0.040148571133613586,0.016131268814206123
1733512858466441700,0.162441650390625,-0.010492770001292229,0.021636908873915672,0.02422679401934147
1733512858476516600,0.1725166015625,-0.017583437263965607,0.0021771916653960943,0.026557592675089836
1733512858486591500,0.182591552734375,-0.024492254480719566,-0.021096525713801384,0.020735586062073708
1733512858496666600,0.19266650390625,-0.025461377575993538,-0.037776436656713486,0.013720287010073662
1733512858506741500,0.202741455078125,-0.020040418952703476,-0.030968112871050835,0.007667924277484417
1733512858516816600,0.212816650390625,-0.012977715581655502,-0.009167475625872612,0.006410912144929171
1733512858526891800,0.222891845703125,-0.005812129471451044,0.016088314354419708,0.010960436426103115
1733512858536966700,0.232966552734375,0.0028375512920320034,0.03673793375492096,0.01228722371160984
1733512858547042600,0.24304248046875,0.0010304166935384274,0.03352144733071327,0.012523196637630463
1733512858557117200,0.2531171875,-0.006573440507054329,0.017099862918257713,0.012316535227000713
1733512858567192300,0.2631923828125,-0.020680557936429977,0.0057137045077979565,0.010860035195946693
1733512858577267200,0.27326708984375,-0.028866847977042198,0.0005711400881409645,0.00736277224496007
1733512858587342300,0.28334228515625,-0.024294205009937286,-0.0017091039335355163,0.0005372948944568634
1733512858597417200,0.293417236328125,-0.013726513832807541,0.014412074349820614,0.0021615568548440933
1733512858607492000,0.3034921875,0.0014359736815094948,0.03925880789756775,0.006298878230154514
1733512858617567200,0.313567138671875,0.01555259246379137,0.05258979648351669,0.00913088396191597
1733512858627642000,0.32364208984375,0.021123211830854416,0.06128551810979843,0.0048064906150102615
1733512858637718300,0.33371826171875,0.02307823859155178,0.04498510807752609,-0.0026682037860155106
1733512858647793400,0.34379345703125,0.028301497921347618,0.03555614501237869,-0.007917089387774467
1733512858657868000,0.353867919921875,0.03384619951248169,0.030497469007968903,-0.012968041002750397
1733512858667943200,0.363943115234375,0.04599687084555626,0.02679252251982689,-0.020635219290852547
1733512858678018300,0.374018310546875,0.05673340708017349,0.04004787281155586,-0.030972810462117195
1733512858688093200,0.38409326171875,0.05475565418601036,0.054577846080064774,-0.04412887617945671
1733512858698168300,0.394168212890625,0.04481487348675728,0.059398166835308075,-0.05075535178184509
1733512858708243200,0.4042431640625,0.03175744041800499,0.052996277809143066,-0.0580640584230423
1733512858718319000,0.414319091796875,0.015383526682853699,0.04309624433517456,-0.06914760172367096
1733512858728394200,0.424394287109375,0.0023281313478946686,0.032835375517606735,-0.08073778450489044
1733512858738469000,0.43446923828125,-0.004546019714325666,0.037231456488370895,-0.09007029980421066
1733512858748544300,0.444544189453125,-0.007894589565694332,0.06016474962234497,-0.09131787717342377
1733512858758619400,0.454619384765625,-0.010270661674439907,0.10042721778154373,-0.09092266112565994
1733512858768694300,0.4646943359375,-0.014222083613276482,0.14802221953868866,-0.0911223366856575
1733512858778769200,0.47476904296875,-0.009471535682678223,0.18035724759101868,-0.07839348912239075
1733512858788844000,0.484843994140625,-0.004889213014394045,0.18910180032253265,-0.06046226620674133
1733512858798919200,0.494919189453125,0.010884424671530724,0.17751705646514893,-0.04566387087106705
1733512858808995300,0.504995361328125,0.032174933701753616,0.16469456255435944,-0.03801003471016884
1733512858819070500,0.515070556640625,0.05435134097933769,0.15933068096637726,-0.02322522923350334
1733512858829145000,0.52514501953125,0.07555632293224335,0.16263256967067719,-0.008468637242913246
1733512858839220200,0.53522021484375,0.09754125028848648,0.17151127755641937,0.013090183958411217
1733512858849295000,0.545295166015625,0.1173236072063446,0.18494610488414764,0.03204411268234253
1733512858859370200,0.555370361328125,0.1286923736333847,0.19789385795593262,0.04568961635231972
1733512858869445400,0.5654453125,0.12725470960140228,0.2018548846244812,0.05442970246076584
1733512858879520300,0.575520263671875,0.11897627264261246,0.20005406439304352,0.04890923947095871
1733512858889595400,0.585595458984375,0.10781194269657135,0.1869257688522339,0.04234662652015686
1733512858899671300,0.59567138671875,0.08616284281015396,0.17448854446411133,0.043158624321222305
1733512858909746200,0.60574609375,0.0657138079404831,0.16116628050804138,0.02970038168132305
1733512858919821300,0.6158212890625,0.04727301746606827,0.1571241319179535,0.0020032392349094152
1733512858929896200,0.625896240234375,0.048903048038482666,0.14888150990009308,-0.015568642877042294
1733512858939971300,0.635971435546875,0.07070235162973404,0.14443668723106384,-0.008743492886424065
1733512858950046200,0.646046142578125,0.08179064095020294,0.15275366604328156,0.002084050327539444
1733512858960121000,0.65612109375,0.08202819526195526,0.1606139838695526,0.0077736275270581245
1733512858970196200,0.6661962890625,0.08047100901603699,0.1808147132396698,0.00789695605635643
1733512858980272400,0.6762724609375,0.06858611851930618,0.1957145631313324,0.011691960506141186
1733512858990347300,0.68634716796875,0.05318865180015564,0.21496501564979553,0.006760702468454838
1733512859000422100,0.696422119140625,0.041006553918123245,0.2248421460390091,-0.0023821964859962463
1733512859010497300,0.706497314453125,0.03888028860092163,0.2388399839401245,-0.026086993515491486
1733512859020572200,0.716572265625,0.0650077611207962,0.2623956501483917,-0.039200130850076675
1733512859030647300,0.726647216796875,0.09484363347291946,0.28386443853378296,-0.041166506707668304
1733512859040722200,0.73672216796875,0.1282322257757187,0.30212971568107605,-0.04253004491329193
1733512859050797300,0.74679736328125,0.16087833046913147,0.31103432178497314,-0.0424966923892498
1733512859060873200,0.756873291015625,0.20169180631637573,0.2973155677318573,-0.03785001114010811
1733512859070948000,0.766947998046875,0.22807586193084717,0.30642086267471313,-0.01913769356906414
1733512859081023200,0.777023193359375,0.23164556920528412,0.3440108299255371,-0.004993112292140722
1733512859091098400,0.787098388671875,0.22087466716766357,0.3642251193523407,0.00030195899307727814
1733512859101173200,0.79717333984375,0.20282483100891113,0.3422479033470154,-0.0051575214602053165
1733512859111248100,0.807248046875,0.18808312714099884,0.29238462448120117,-0.015318994410336018
1733512859121323000,0.817322998046875,0.17220616340637207,0.22879207134246826,-0.020159289240837097
1733512859131398100,0.827398193359375,0.16535256803035736,0.186465322971344,-0.03253602609038353
1733512859141473300,0.837473388671875,0.15910132229328156,0.17827263474464417,-0.044895756989717484
1733512859151549400,0.847549560546875,0.15799327194690704,0.19363802671432495,-0.03862789645791054
1733512859161624300,0.857624267578125,0.1526230126619339,0.22168323397636414,-0.014674093574285507
1733512859171699200,0.86769921875,0.14833858609199524,0.26930731534957886,0.016986645758152008
1733512859181774000,0.877774169921875,0.15530942380428314,0.33527061343193054,0.04088851809501648
1733512859191849200,0.88784912109375,0.18280954658985138,0.4039975702762604,0.054942887276411057
1733512859201924400,0.89792431640625,0.21351845562458038,0.4649466574192047,0.08993895351886749
1733512859211999200,0.907999267578125,0.2187616378068924,0.5077864527702332,0.15390567481517792
1733512859222074400,0.918074462890625,0.2058410495519638,0.5205094814300537,0.23295016586780548
1733512859232150300,0.928150390625,0.18242457509040833,0.5338018536567688,0.2836475968360901
1733512859242225200,0.93822509765625,0.15692561864852905,0.5537252426147461,0.28724658489227295
1733512859252300300,0.94830029296875,0.1377427726984024,0.5457780957221985,0.28196680545806885
1733512859262375200,0.958375244140625,0.122380331158638,0.517647385597229,0.31511783599853516
1733512859272450300,0.9684501953125,0.10443394631147385,0.5366824865341187,0.38554656505584717
1733512859282525200,0.978525146484375,0.09007871150970459,0.616296112537384,0.46900469064712524
1733512859292600000,0.98860009765625,0.08127275109291077,0.6999235153198242,0.5431178212165833
1733512859302675200,0.99867529296875,0.07847297191619873,0.7294558882713318,0.5891020894050598
1733512859312750300,1.008750244140625,0.06700427830219269,0.6792114973068237,0.602407693862915
1733512859322826200,1.018826171875,0.04074285551905632,0.5973531007766724,0.6003149747848511
1733512859332901000,1.028901123046875,-0.00795556791126728,0.535366415977478,0.5797348618507385
1733512859342976300,1.038976318359375,-0.08583784848451614,0.4759991765022278,0.5650664567947388
1733512859353051100,1.049051025390625,-0.16984380781650543,0.388642817735672,0.5812104940414429
1733512859363126300,1.059126220703125,-0.2280876785516739,0.3092116415500641,0.608180046081543
1733512859373201200,1.069201171875,-0.2741283178329468,0.2931375205516815,0.578222393989563
1733512859383276300,1.0792763671875,-0.32195308804512024,0.34234821796417236,0.5173044800758362
1733512859393351400,1.089351318359375,-0.3624085485935211,0.44550156593322754,0.5125511884689331
1733512859403426000,1.099426025390625,-0.4201514720916748,0.5741811990737915,0.5642474293708801
1733512859413502200,1.109502197265625,-0.5331292152404785,0.746604323387146,0.6645325422286987
1733512859423577300,1.119577392578125,-0.6988881230354309,0.9419602751731873,0.7677640914916992
1733512859433652200,1.12965234375,-0.8579946756362915,1.039944052696228,0.8360257148742676
1733512859443727400,1.139727294921875,-0.9620869755744934,0.9735029935836792,0.8607968688011169
1733512859453802000,1.149802001953125,-0.9931082129478455,0.7751635313034058,0.8203837871551514
1733512859463877000,1.159877197265625,-0.9638906717300415,0.5523493885993958,0.7041234970092773
1733512859473952300,1.1699521484375,-0.8835055232048035,0.3919003903865814,0.5703913569450378
1733512859484027100,1.180027099609375,-0.7645160555839539,0.3232946991920471,0.45663729310035706
1733512859494103300,1.190103271484375,-0.608744740486145,0.29206499457359314,0.352962851524353
1733512859504178200,1.20017822265625,-0.4322778880596161,0.1821472942829132,0.23473046720027924
1733512859514253000,1.210253173828125,-0.2903788387775421,0.031163334846496582,0.0962708443403244
1733512859524328200,1.220328125,-0.21455597877502441,-0.11197838187217712,-0.04516537860035896
1733512859534403300,1.2304033203125,-0.20712651312351227,-0.2443290650844574,-0.1741420179605484
1733512859544478200,1.240478271484375,-0.2571428120136261,-0.35000649094581604,-0.28478333353996277
1733512859554554000,1.25055419921875,-0.3268713057041168,-0.3984728455543518,-0.37315553426742554
1733512859564629000,1.26062890625,-0.3859681785106659,-0.34579336643218994,-0.44330933690071106
1733512859574705000,1.270704833984375,-0.4270411431789398,-0.24062813818454742,-0.49928003549575806
1733512859584780000,1.280780029296875,-0.4521968364715576,-0.14426298439502716,-0.5381038784980774
1733512859594855200,1.290855224609375,-0.4671308398246765,-0.07910388708114624,-0.5898874402046204
1733512859604930000,1.300929931640625,-0.48013773560523987,-0.006604386027902365,-0.652681291103363
1733512859615005000,1.3110048828125,-0.49992623925209045,0.09185371547937393,-0.7174102067947388
1733512859625079800,1.321079833984375,-0.5254271030426025,0.17123295366764069,-0.7934916615486145
1733512859635155000,1.331155029296875,-0.5470234155654907,0.23916156589984894,-0.8541904091835022
1733512859645230000,1.34122998046875,-0.5394437909126282,0.3561619520187378,-0.9071529507637024
1733512859655305000,1.351304931640625,-0.5187816023826599,0.5040580034255981,-0.9791886210441589
1733512859665380900,1.361380859375,-0.4943769574165344,0.6747016310691833,-1.094321608543396
1733512859675456000,1.3714560546875,-0.45044222474098206,0.8694320917129517,-1.2050323486328125
1733512859685531000,1.38153076171875,-0.39080581068992615,1.0699745416641235,-1.2607358694076538
1733512859695606000,1.39160595703125,-0.3413981795310974,1.2471109628677368,-1.2184149026870728
1733512859705681200,1.40168115234375,-0.32814520597457886,1.3560869693756104,-1.0251071453094482
1733512859715756000,1.411756103515625,-0.31493082642555237,1.373640775680542,-0.8692787885665894
1733512859725831000,1.421830810546875,-0.29241353273391724,1.3444623947143555,-0.8302176594734192
1733512859735905800,1.43190576171875,-0.2676871716976166,1.3456922769546509,-0.7550472617149353
1733512859745982000,1.44198193359375,-0.25145331025123596,1.3557970523834229,-0.5829034447669983
1733512859756057000,1.45205712890625,-0.21844135224819183,1.23015558719635,-0.4987311363220215
1733512859766132000,1.462132080078125,-0.1061164066195488,0.8171727657318115,-0.5081509947776794
1733512859776206800,1.472206787109375,0.09707563370466232,0.14247794449329376,-0.6367394924163818
1733512859786282000,1.482281982421875,0.3628289997577667,-0.6333789229393005,-0.9490305781364441
1733512859796356900,1.49235693359375,0.5913521647453308,-1.2147815227508545,-1.1242064237594604
1733512859806432000,1.502431884765625,0.7171790599822998,-1.4108186960220337,-1.2041443586349487
1733512859816507000,1.5125068359375,0.6912018060684204,-1.1023750305175781,-1.3865545988082886
1733512859826582000,1.52258203125,0.6242366433143616,-0.7349889874458313,-1.406378149986267
1733512859836658000,1.532657958984375,0.6598111391067505,-0.5243285894393921,-1.0740681886672974
1733512859846732800,1.54273291015625,0.7101272940635681,-0.3195120394229889,-0.4964243173599243
1733512859856808000,1.552807861328125,0.7496394515037537,0.07688500732183456,0.14045369625091553
1733512859866883000,1.562883056640625,0.8291590809822083,0.7011709809303284,0.5976473689079285
1733512859876958000,1.5729580078125,0.9687608480453491,1.4662731885910034,0.7434227466583252
1733512859887033000,1.583033203125,1.1128953695297241,2.277973175048828,0.6126538515090942
1733512859897108000,1.59310791015625,1.1186010837554932,3.1141905784606934,0.31118136644363403
1733512859907182800,1.603182861328125,0.9894630312919617,3.652024745941162,-0.024308469146490097
1733512859917259000,1.613259033203125,0.8101276755332947,3.7803499698638916,-0.3307759761810303
1733512859927334100,1.623334228515625,0.6700482964515686,3.3760266304016113,-0.6073787808418274
1733512859937409000,1.633408935546875,0.5647667646408081,2.6560394763946533,-0.8365773558616638
1733512859947484000,1.64348388671875,0.4525321424007416,1.863340973854065,-0.9669644236564636
1733512859957558800,1.653558837890625,0.35573193430900574,1.0954042673110962,-0.9556282162666321
1733512859967634000,1.663634033203125,0.23452745378017426,0.4950360953807831,-0.8610599040985107
1733512859977709000,1.673708984375,0.11239471286535263,0.05249505117535591,-0.7449853420257568
1733512859987784000,1.683783935546875,0.00810905359685421,-0.22995635867118835,-0.6434730887413025
1733512859997859000,1.693859130859375,-0.1136535108089447,-0.4944845139980316,-0.6070278882980347
1733512860007935000,1.70393505859375,-0.17818324267864227,-0.7514066100120544,-0.6491808891296387
1733512860018009900,1.714009765625,-0.2446182370185852,-0.962616503238678,-0.7561670541763306
1733512860028085000,1.7240849609375,-0.3015187978744507,-1.0756967067718506,-0.8766423463821411
1733512860038160100,1.73416015625,-0.33206331729888916,-1.0597211122512817,-0.9508354663848877
1733512860048235000,1.744235107421875,-0.34907266497612,-0.9297256469726562,-0.9616098403930664
1733512860058310100,1.75431005859375,-0.37260887026786804,-0.7661769390106201,-0.9243748188018799
1733512860068384800,1.764384765625,-0.4116246998310089,-0.6512284874916077,-0.881917417049408
1733512860078460000,1.7744599609375,-0.43688756227493286,-0.5671947598457336,-0.8544710278511047
1733512860088536000,1.7845361328125,-0.4455313980579376,-0.516278088092804,-0.8224771022796631
1733512860098611000,1.79461083984375,-0.43829503655433655,-0.47469210624694824,-0.7754486203193665
1733512860108686000,1.80468603515625,-0.38538652658462524,-0.42098572850227356,-0.7009744048118591
1733512860118761000,1.814760986328125,-0.3175983726978302,-0.3145747780799866,-0.6053526997566223
1733512860128835800,1.8248359375,-0.24087190628051758,-0.1504817008972168,-0.47899797558784485
1733512860138911000,1.834910888671875,-0.1916576772928238,0.04704459384083748,-0.35033172369003296
1733512860148985900,1.84498583984375,-0.1841036081314087,0.2592540681362152,-0.22757038474082947
1733512860159061000,1.85506103515625,-0.18994282186031342,0.4782101511955261,-0.1340382993221283
1733512860169136000,1.86513623046875,-0.1891593188047409,0.6444721221923828,-0.0788504108786583
1733512860179211800,1.875211669921875,-0.17292988300323486,0.7664799094200134,-0.04803542047739029
1733512860189287000,1.885286865234375,-0.1544739156961441,0.8296293020248413,-0.03930770605802536
1733512860199362000,1.895362060546875,-0.1360063999891281,0.8255481123924255,-0.04483279585838318
1733512860209437000,1.90543701171875,-0.1216500923037529,0.7617467641830444,-0.062498606741428375
1733512860219512000,1.915511962890625,-0.1241147592663765,0.6521676182746887,-0.0843721330165863
1733512860229587200,1.925587158203125,-0.13098756968975067,0.4768349826335907,-0.11942918598651886
1733512860239661800,1.935661865234375,-0.14674723148345947,0.24159172177314758,-0.17561142146587372
1733512860249737000,1.945737060546875,-0.1566440612077713,-0.023500123992562294,-0.2653122842311859
1733512860259813000,1.955813232421875,-0.164701908826828,-0.277772456407547,-0.38250428438186646
1733512860269888000,1.965887939453125,-0.16128161549568176,-0.4761697053909302,-0.5081998705863953
1733512860279963100,1.975963134765625,-0.14071597158908844,-0.5879915952682495,-0.6495275497436523
1733512860290037800,1.986037841796875,-0.14783832430839539,-0.58556067943573,-0.8102607727050781
1733512860300113000,1.99611279296875,-0.13041837513446808,-0.5358901619911194,-0.9589561223983765
1733512860310188000,2.00618798828125,-0.09666280448436737,-0.4827291965484619,-1.0668660402297974
1733512860320263000,2.016262939453125,-0.04893838241696358,-0.45787283778190613,-1.1054894924163818
1733512860330338000,2.026338134765625,0.00525082228705287,-0.458665132522583,-1.0671916007995605
1733512860340414000,2.0364140625,0.06332405656576157,-0.44862017035484314,-0.9772420525550842
1733512860350488800,2.04648876953125,0.11792338639497757,-0.42355504631996155,-0.8785953521728516
1733512860360564000,2.05656396484375,0.1601172685623169,-0.3970569670200348,-0.8108300566673279
1733512860370639000,2.06663916015625,0.18719735741615295,-0.3444525897502899,-0.8844078779220581
1733512860380714000,2.0767138671875,0.20135724544525146,-0.2930954694747925,-1.3517743349075317
1733512860390789000,2.0867890625,0.21323467791080475,-0.332914263010025,-2.0839507579803467
1733512860400864000,2.096864013671875,0.2403966635465622,-0.4637625217437744,-2.5705204010009766
1733512860410939000,2.10693896484375,0.2528975307941437,-0.6431900262832642,-2.604513168334961
1733512860421014000,2.117013916015625,0.22359886765480042,-0.7962794303894043,-2.3276402950286865
1733512860431090000,2.12708984375,0.1746225357055664,-0.8742684721946716,-1.95146906375885
1733512860441165000,2.1371650390625,0.16206680238246918,-0.844299852848053,-1.6089282035827637
1733512860451240000,2.147239990234375,0.2080092579126358,-0.700158953666687,-1.2867493629455566
1733512860461314800,2.157314697265625,0.3076563775539398,-0.44988954067230225,-0.8670480251312256
1733512860471390000,2.167389892578125,0.4306957721710205,-0.13396219909191132,-0.2815195918083191
1733512860481464800,2.17746484375,0.5205186605453491,0.19603531062602997,0.37126418948173523
1733512860491540000,2.1875400390625,0.5188155770301819,0.5254331827163696,0.9770271182060242
1733512860501615000,2.197614990234375,0.4190123677253723,0.8026089072227478,1.4135162830352783
1733512860511690800,2.207690673828125,0.2716495394706726,0.9470770955085754,1.5958421230316162
1733512860521766000,2.217765869140625,0.12654803693294525,0.9219693541526794,1.5924028158187866
1733512860531841000,2.227841064453125,-0.0014549295883625746,0.7891037464141846,1.5835578441619873
1733512860541916000,2.237916015625,-0.09423799812793732,0.6049442291259766,1.6594163179397583
1733512860551990500,2.247990478515625,-0.1208922415971756,0.36247220635414124,1.7934433221817017
1733512860562065700,2.258065673828125,-0.09502380341291428,0.08852679282426834,1.9178777933120728
1733512860572140800,2.268140869140625,-0.04020077362656593,-0.19153709709644318,1.9994882345199585
1733512860582215400,2.27821533203125,-0.0154285728931427,-0.4530261754989624,2.0014548301696777
1733512860592290600,2.28829052734375,-0.028414413332939148,-0.6402450799942017,1.9358696937561035
1733512860602366700,2.29836669921875,-0.05128595232963562,-0.677496075630188,1.8347218036651611
1733512860612441600,2.308441650390625,-0.06658075749874115,-0.6375265717506409,1.7312487363815308
1733512860622516700,2.318516845703125,-0.0488356314599514,-0.49894121289253235,1.6635304689407349
1733512860632591400,2.32859130859375,0.03221048414707184,-0.3044702708721161,1.6746982336044312
1733512860642666500,2.33866650390625,0.14416302740573883,-0.11821481585502625,1.7610743045806885
1733512860652741600,2.34874169921875,0.2658599019050598,0.11582005023956299,1.8733817338943481
1733512860662816500,2.35881640625,0.37402960658073425,0.39024224877357483,1.9502453804016113
1733512860672891600,2.3688916015625,0.41572433710098267,0.7606211304664612,1.98716402053833
1733512860682967600,2.378967529296875,0.38150548934936523,1.3096873760223389,1.9794921875
1733512860693042400,2.38904248046875,0.34191814064979553,1.8682209253311157,1.8759047985076904
1733512860703117600,2.39911767578125,0.3366774320602417,2.2772130966186523,1.6139334440231323
1733512860713192700,2.409192626953125,0.3531650900840759,2.4544177055358887,1.2089977264404297
1733512860723267600,2.419267578125,0.3754419684410095,2.336573362350464,0.7395694851875305
1733512860733342700,2.4293427734375,0.34947535395622253,1.9453157186508179,0.29145270586013794
1733512860743417600,2.43941748046875,0.2202897071838379,1.4130417108535767,-0.044278115034103394
1733512860753492500,2.449492431640625,0.06016209349036217,0.8530055284500122,-0.2263810634613037
1733512860763568600,2.459568603515625,-0.09120133519172668,0.3717489540576935,-0.30009332299232483
1733512860773643500,2.4696435546875,-0.24383294582366943,0.023420795798301697,-0.30032020807266235
1733512860783718700,2.47971875,-0.4001429080963135,-0.20553110539913177,-0.26601865887641907
1733512860793793800,2.489793701171875,-0.5103359818458557,-0.3178081214427948,-0.21606040000915527
1733512860803868400,2.499868408203125,-0.6028702855110168,-0.3146800398826599,-0.16178534924983978
1733512860813943600,2.509943603515625,-0.6972410082817078,-0.19890469312667847,-0.13482244312763214
1733512860824018400,2.520018310546875,-0.7825542688369751,-0.006960872560739517,-0.12098312377929688
1733512860834093600,2.530093505859375,-0.8477210402488708,0.22510938346385956,-0.12904690206050873
1733512860844169700,2.540169677734375,-0.8796147108078003,0.5098459720611572,-0.13518667221069336
1733512860854244600,2.55024462890625,-0.8693360090255737,0.8195284605026245,-0.10938917100429535
1733512860864319500,2.560319580078125,-0.824374258518219,1.097922921180725,-0.046622853726148605
1733512860874394600,2.57039453125,-0.758846640586853,1.3489782810211182,0.03270179405808449
1733512860884469500,2.580469482421875,-0.679208517074585,1.580814242362976,0.09142131358385086
1733512860894544600,2.590544677734375,-0.5884993672370911,1.8194431066513062,0.12587089836597443
1733512860904619800,2.600619873046875,-0.5072435140609741,2.0735788345336914,0.12482628226280212
1733512860914694700,2.610694580078125,-0.4474566578865051,2.3805477619171143,0.04833444207906723
1733512860924769500,2.62076953125,-0.4039074182510376,2.7411012649536133,-0.08419795334339142
1733512860934845700,2.630845703125,-0.3767980635166168,2.990262508392334,-0.3046954274177551
1733512860944920600,2.640920654296875,-0.34429606795310974,3.0712149143218994,-0.6600460410118103
1733512860954995700,2.65099560546875,-0.35527655482292175,2.9203665256500244,-1.114519715309143
1733512860965070600,2.661070556640625,-0.47753456234931946,2.503976583480835,-1.5319724082946777
1733512860975145500,2.6711455078125,-0.6199724078178406,1.914268136024475,-1.7894679307937622
1733512860985220600,2.681220703125,-0.6718980073928833,1.2638862133026123,-1.9359639883041382
1733512860995295500,2.69129541015625,-0.5933478474617004,0.7398110032081604,-2.003530502319336
1733512861005370600,2.70137060546875,-0.37417614459991455,0.49653878808021545,-1.7822954654693604
1733512861015445800,2.71144580078125,-0.03408833220601082,0.3152529001235962,-0.9334051012992859
1733512861025521400,2.721521484375,0.31226179003715515,0.039802178740501404,-0.09504418075084686
1733512861035596500,2.731596435546875,0.6442347168922424,-0.21411637961864471,0.4134158492088318
1733512861045671700,2.741671630859375,0.8764059543609619,-0.41950276494026184,0.796083927154541
1733512861055746600,2.75174658203125,1.0019060373306274,-0.545579195022583,1.1796929836273193
1733512861065821700,2.76182177734375,1.0842468738555908,-0.5630499124526978,1.5852453708648682
1733512861075896600,2.771896484375,1.170727252960205,-0.46420031785964966,2.0073251724243164
1733512861085971700,2.7819716796875,1.2455410957336426,-0.13324852287769318,2.4214723110198975
1733512861096047600,2.792047607421875,1.2837550640106201,0.9116989374160767,2.6263673305511475
1733512861106122500,2.80212255859375,1.2498629093170166,2.7130608558654785,2.303360939025879
1733512861116197600,2.81219775390625,1.192771553993225,4.85098934173584,1.417975664138794
1733512861126272800,2.822272705078125,1.086480736732483,7.245513916015625,0.20573505759239197
1733512861136347600,2.83234765625,0.9253901243209839,9.158849716186523,-0.7689789533615112
1733512861146422500,2.842422607421875,0.7817535400390625,9.746355056762695,-1.1280364990234375
1733512861156497400,2.852497314453125,0.728892982006073,8.88310432434082,-1.0889588594436646
1733512861166572500,2.862572509765625,0.7138653993606567,6.854785919189453,-0.9035431146621704
1733512861176647700,2.872647705078125,0.4905865490436554,4.03462553024292,-0.9471023082733154
1733512861186723600,2.8827236328125,0.1033378466963768,1.3988653421401978,-1.4013161659240723
1733512861196798500,2.892798583984375,-0.11415799707174301,-0.6918843984603882,-2.0584194660186768
1733512861206873600,2.90287353515625,-0.18913708627223969,-2.2792928218841553,-2.461486577987671
1733512861216948500,2.912948486328125,-0.24364560842514038,-3.2044498920440674,-2.5358786582946777
1733512861227023600,2.923023681640625,-0.2368035763502121,-3.604987621307373,-2.3352952003479004
1733512861237098800,2.9330986328125,-0.20754902064800262,-3.6685476303100586,-1.9554071426391602
1733512861247173600,2.943173583984375,-0.24011801183223724,-3.486361026763916,-1.5539333820343018
1733512861257248800,2.953248779296875,-0.31708547472953796,-3.185427188873291,-1.2668299674987793
1733512861267324700,2.96332470703125,-0.3496696949005127,-3.048659563064575,-1.2091807126998901
1733512861277399600,2.973399658203125,-0.251727432012558,-3.08772611618042,-1.3176289796829224
1733512861287474700,2.983474609375,-0.1070546880364418,-3.003048896789551,-1.3864562511444092
1733512861297549600,2.993549560546875,-0.040326256304979324,-2.5083444118499756,-1.2859195470809937
1733512861307624700,3.003624755859375,-0.11296507716178894,-1.5705509185791016,-1.0573792457580566
1733512861317699600,3.013699462890625,-0.25632545351982117,-0.3705105483531952,-0.8181679248809814
1733512861327774500,3.0237744140625,-0.4413101077079773,0.8926785588264465,-0.6429471373558044
1733512861337849600,3.033849609375,-0.6610363721847534,2.0159270763397217,-0.5507668852806091
1733512861347925800,3.04392578125,-0.8316757678985596,2.849989891052246,-0.4639313220977783
1733512861358000600,3.054000732421875,-0.9155246019363403,3.380330801010132,-0.3181975483894348
1733512861368075500,3.064075439453125,-0.9276888966560364,3.6176555156707764,-0.100349061191082
1733512861378150700,3.074150634765625,-0.9470378756523132,3.6066854000091553,0.17233547568321228
1733512861388225500,3.0842255859375,-1.0001600980758667,3.423201560974121,0.487125426530838
1733512861398300700,3.09430078125,-1.0968657732009888,3.0508527755737305,0.8174591660499573
1733512861408375600,3.10437548828125,-1.211415410041809,2.4740161895751953,1.1672654151916504
1733512861418450700,3.11445068359375,-1.317873477935791,1.6669775247573853,1.460619330406189
1733512861428526600,3.124526611328125,-1.4018529653549194,0.547724187374115,1.5890021324157715
1733512861438601500,3.1346015625,-1.4148966073989868,-0.8099678754806519,1.4783605337142944
1733512861448676600,3.144676513671875,-1.3137295246124268,-2.1250357627868652,1.0831615924835205
1733512861458751700,3.154751708984375,-1.0840760469436646,-3.1132898330688477,0.4116692543029785
1733512861468826600,3.16482666015625,-0.7352951169013977,-3.5479989051818848,-0.46479058265686035
1733512861478901500,3.174901611328125,-0.2862616777420044,-3.4598515033721924,-1.3395631313323975
1733512861488976400,3.184976318359375,0.10476294159889221,-2.9694902896881104,-2.052952289581299
1733512861499051500,3.195051513671875,0.33896690607070923,-2.299715518951416,-2.4807746410369873
1733512861509126700,3.205126708984375,0.569350004196167,-1.5954766273498535,-2.5969204902648926
1733512861519202800,3.215202880859375,0.7929359674453735,-0.8470245599746704,-2.4325051307678223
1733512861529277400,3.22527734375,0.931189775466919,-0.08488573879003525,-2.082371234893799
1733512861539352600,3.2353525390625,0.9670383334159851,0.700443685054779,-1.6658048629760742
1733512861549427500,3.245427490234375,0.9299946427345276,1.5113030672073364,-1.2741353511810303
1733512861559502000,3.255502197265625,0.8457575440406799,2.3041574954986572,-0.9404531717300415
1733512861569577000,3.265576904296875,0.7170093655586243,2.892198324203491,-0.5804110169410706
1733512861579652000,3.275652099609375,0.4957153797149658,3.2208683490753174,-0.11297567188739777
1733512861589727200,3.285727294921875,0.1354617327451706,3.2270846366882324,0.39040452241897583
1733512861599803100,3.29580322265625,-0.29460737109184265,2.852635622024536,0.7610158324241638
1733512861609878000,3.3058779296875,-0.6454423666000366,2.0015039443969727,0.9425122141838074
1733512861619953200,3.315953125,-0.8682706356048584,0.7922127842903137,1.0354708433151245
1733512861630028000,3.326028076171875,-1.0550376176834106,-0.39234447479248047,1.0681381225585938
1733512861640103200,3.336103271484375,-1.204648494720459,-1.1870516538619995,1.0844388008117676
1733512861650178300,3.34617822265625,-1.2549818754196167,-1.379259705543518,1.1423426866531372
1733512861660253000,3.3562529296875,-1.1873831748962402,-1.185059666633606,1.4188827276229858
1733512861670328000,3.366328125,-1.027853012084961,-1.0803029537200928,1.9819755554199219
1733512861680404200,3.376404296875,-0.851870596408844,-1.1380120515823364,2.707174301147461
1733512861690479000,3.38647900390625,-0.6883602142333984,-1.2130613327026367,3.3796093463897705
1733512861700554200,3.39655419921875,-0.5398101210594177,-1.1907414197921753,3.855012893676758
1733512861710628900,3.40662890625,-0.4142051935195923,-1.0854029655456543,4.147810935974121
1733512861720704000,3.4167041015625,-0.2992227077484131,-0.8506889939308167,4.22648286819458
1733512861730779100,3.426779052734375,-0.1551676094532013,-0.42241498827934265,4.045336723327637
1733512861740854000,3.43685400390625,0.045313283801078796,0.1800389289855957,3.5819430351257324
1733512861750929200,3.44692919921875,0.19542604684829712,0.8058884739875793,2.907341718673706
1733512861761005000,3.457005126953125,0.22528193891048431,1.052716851234436,2.177983045578003
1733512861771080000,3.467079833984375,0.18116295337677002,0.7814390063285828,1.559083342552185
1733512861781155000,3.477155029296875,0.15726588666439056,0.07303553074598312,1.1511390209197998
1733512861791230200,3.487230224609375,0.1981344372034073,-0.7298056483268738,0.9536399245262146
1733512861801305000,3.49730517578125,0.27205154299736023,-1.4866021871566772,0.9059358239173889
1733512861811380200,3.507380126953125,0.30916109681129456,-2.074032783508301,0.8972640037536621
1733512861821455000,3.517455078125,0.27480021119117737,-2.4908008575439453,0.8677178621292114
1733512861831530000,3.527530029296875,0.1704462766647339,-2.774141550064087,0.7712551951408386
1733512861841606100,3.537606201171875,0.04142490029335022,-2.9522385597229004,0.6076103448867798
1733512861851681000,3.547680908203125,-0.06501135975122452,-3.049406051635742,0.3919997811317444
1733512861861756200,3.557756103515625,-0.11103131622076035,-3.1036503314971924,0.18993110954761505
1733512861871831300,3.567831298828125,-0.09035861492156982,-3.099686861038208,0.05666974559426308
1733512861881906000,3.577906005859375,-0.021755848079919815,-3.0485634803771973,0.013623738661408424
1733512861891981000,3.58798095703125,0.08387954533100128,-2.9553537368774414,0.049021683633327484
1733512861902056000,3.598055908203125,0.20739854872226715,-2.8125498294830322,0.11991450190544128
1733512861912131000,3.608131103515625,0.3226488530635834,-2.6074795722961426,0.17018906772136688
1733512861922207200,3.618207275390625,0.4086231589317322,-2.312055826187134,0.18579919636249542
1733512861932282000,3.6282822265625,0.47274139523506165,-1.9163954257965088,0.2117493450641632
1733512861942357000,3.63835693359375,0.5470787286758423,-1.4699615240097046,0.2612766921520233
1733512861952432000,3.64843212890625,0.6207916140556335,-0.9895780086517334,0.3215268850326538
1733512861962507000,3.658507080078125,0.6865572929382324,-0.5061360001564026,0.36430177092552185
1733512861972582100,3.66858203125,0.7216043472290039,-0.05180823430418968,0.39682626724243164
1733512861982657300,3.6786572265625,0.7248400449752808,0.313113272190094,0.39405709505081177
1733512861992732200,3.688732177734375,0.7102187871932983,0.6240150928497314,0.3184957504272461
1733512862002808000,3.69880810546875,0.6775242686271667,0.8959960341453552,0.16555306315422058
1733512862012883200,3.70888330078125,0.6332062482833862,1.0649000406265259,-0.054759908467531204
1733512862022958000,3.7189580078125,0.6012669801712036,1.0766350030899048,-0.3270321488380432
1733512862033033200,3.729033203125,0.5852092504501343,0.914191484451294,-0.6781916618347168
1733512862043108000,3.739108154296875,0.6188670992851257,0.5852511525154114,-1.172330617904663
1733512862053183000,3.749182861328125,0.6340081691741943,0.018849048763513565,-1.744908332824707
1733512862063258000,3.759258056640625,0.5320730209350586,-0.7610177397727966,-2.223045587539673
1733512862073333000,3.7693330078125,0.3038325905799866,-1.7648416757583618,-2.4424235820770264
1733512862083409200,3.7794091796875,0.03241785988211632,-3.1579477787017822,-2.3389453887939453
1733512862093484300,3.789484375,-0.1910838782787323,-4.5042314529418945,-1.9946694374084473
1733512862103559000,3.799558837890625,-0.2665402889251709,-5.542503356933594,-1.5782886743545532
1733512862113634000,3.809634033203125,-0.20175527036190033,-6.230407238006592,-1.347878336906433
1733512862123709200,3.819709228515625,-0.24500606954097748,-6.523209571838379,-1.3896164894104004
1733512862133784000,3.8297841796875,-0.5782477259635925,-6.288682460784912,-1.5233886241912842
1733512862143859200,3.839859130859375,-1.0613371133804321,-5.385275840759277,-1.4978363513946533
1733512862153934000,3.84993408203125,-1.4920839071273804,-3.6810672283172607,-1.2346971035003662
1733512862164010000,3.860010009765625,-1.7415872812271118,-1.5245763063430786,-0.8067295551300049
1733512862174085000,3.870085205078125,-1.71417236328125,0.2517969310283661,-0.22520720958709717
1733512862184160000,3.880159912109375,-1.3923066854476929,1.0204304456710815,0.5593166351318359
1733512862194235100,3.890235107421875,-0.913464367389679,0.8253495693206787,1.5491200685501099
1733512862204310300,3.900310302734375,-0.44980159401893616,0.11989232152700424,2.5433502197265625
1733512862214385200,3.91038525390625,-0.13359494507312775,-0.6109244227409363,3.2667455673217773
1733512862224460000,3.9204599609375,-0.08692491054534912,-1.0338740348815918,3.429586410522461
1733512862234535000,3.930534912109375,-0.3505595326423645,-0.8172018527984619,2.8573780059814453
1733512862244611000,3.940611083984375,-0.6229274272918701,-0.2729718089103699,1.876979947090149
1733512862254686200,3.950686279296875,-0.3546431362628937,0.4257953464984894,1.0201584100723267
1733512862264761000,3.960760986328125,0.24633219838142395,1.7686530351638794,0.3109090030193329
1733512862274836000,3.9708359375,0.6976820826530457,3.950655460357666,-0.39282670617103577
1733512862284911000,3.9809111328125,0.9179763793945312,6.3599677085876465,-1.0434931516647339
1733512862294986000,3.990986083984375,0.9777478575706482,7.715364456176758,-1.3901509046554565
1733512862305061000,4.00106103515625,0.9717264175415039,7.341963768005371,-1.3130992650985718
1733512862315136300,4.01113623046875,0.9190786480903625,5.864562034606934,-1.017295479774475
1733512862325212000,4.0212119140625,0.7691096663475037,3.8801119327545166,-0.7927553653717041
1733512862335287000,4.031287109375,0.5810338854789734,1.6349849700927734,-0.7201336026191711
1733512862345362200,4.041362060546875,0.5036296248435974,-0.08731935173273087,-0.7618128657341003
1733512862355437000,4.05143701171875,0.4446941018104553,-1.1918226480484009,-0.8689385652542114
1733512862365512200,4.06151220703125,0.43036630749702454,-2.0777554512023926,-1.026543378829956
1733512862375587000,4.071587158203125,0.5185219645500183,-3.0679080486297607,-1.3460670709609985
1733512862385662000,4.081661865234375,0.6712766289710999,-4.5758490562438965,-2.051177978515625
1733512862395737000,4.091737060546875,0.6997374892234802,-5.944144248962402,-2.6505866050720215
1733512862405813000,4.10181298828125,0.5747361779212952,-6.626544952392578,-2.820361852645874
1733512862415888100,4.11188818359375,0.3159942626953125,-6.579451084136963,-2.6624109745025635
1733512862425963300,4.12196337890625,0.0879906713962555,-5.971848964691162,-2.304269790649414
1733512862436038100,4.1320380859375,-0.005793754011392593,-5.082219123840332,-1.870530128479004
1733512862446113000,4.142113037109375,0.01878669112920761,-4.0981268882751465,-1.4766621589660645
1733512862456188200,4.152188232421875,0.13728953897953033,-3.167463779449463,-1.1811192035675049
1733512862466263000,4.162262939453125,0.2529977858066559,-2.3101303577423096,-0.9539867043495178
1733512862476338200,4.172338134765625,0.2918156385421753,-1.4881271123886108,-0.7893794775009155
1733512862486414000,4.1824140625,0.257506400346756,-0.6850863099098206,-0.6884781718254089
1733512862496489000,4.192489013671875,0.1970253586769104,-0.006177349016070366,-0.6296877861022949
1733512862506564000,4.202564208984375,0.10852159559726715,0.5265840291976929,-0.5856611728668213
1733512862516639000,4.212638916015625,-0.002118005882948637,0.9136608242988586,-0.5050215721130371
1733512862526714000,4.222714111328125,-0.11900414526462555,1.1605746746063232,-0.3913402557373047
1733512862536789200,4.232789306640625,-0.21461845934391022,1.2524393796920776,-0.2833089828491211
1733512862546864000,4.242864013671875,-0.2770504057407379,1.187646508216858,-0.2225750833749771
1733512862556940500,4.2529404296875,-0.2973129153251648,0.9876610040664673,-0.2262762188911438
1733512862567015400,4.263015380859375,-0.26507535576820374,0.6937151551246643,-0.3114539384841919
1733512862577090600,4.273090576171875,-0.18931174278259277,0.322529137134552,-0.4605085551738739
1733512862587165400,4.28316552734375,-0.15256038308143616,-0.1017443910241127,-0.6242356896400452
1733512862597240300,4.293240234375,-0.07079771161079407,-0.5164118409156799,-0.8273808360099792
1733512862607315500,4.3033154296875,0.03291589766740799,-0.8335943222045898,-1.0296223163604736
1733512862617390300,4.313390380859375,0.10035010427236557,-1.0929219722747803,-1.2032675743103027
1733512862627465500,4.323465576171875,0.15383809804916382,-1.270005464553833,-1.3266561031341553
1733512862637540600,4.33354052734375,0.20792551338672638,-1.3401459455490112,-1.3846945762634277
1733512862647616500,4.343616455078125,0.24477779865264893,-1.3008466958999634,-1.3589516878128052
1733512862657691400,4.35369140625,0.25115108489990234,-1.1600967645645142,-1.2475835084915161
1733512862667766500,4.3637666015625,0.23310896754264832,-0.9551334977149963,-1.0805479288101196
1733512862677841400,4.37384130859375,0.20606496930122375,-0.7072576284408569,-0.8758045434951782
1733512862687916500,4.38391650390625,0.16608187556266785,-0.3775489926338196,-0.5905134081840515
1733512862697991400,4.393991455078125,0.027395278215408325,0.10393713414669037,-0.15031342208385468
1733512862708066600,4.404066650390625,-0.18771198391914368,0.749534010887146,0.4777587652206421
1733512862718142500,4.414142578125,-0.47388333082199097,1.3929437398910522,1.2204359769821167
1733512862728217300,4.42421728515625,-0.8827845454216003,1.6333669424057007,1.787348985671997
1733512862738292500,4.43429248046875,-1.3282711505889893,1.081528902053833,1.8945941925048828
1733512862748367600,4.44436767578125,-1.6877247095108032,-0.06675080955028534,1.6724228858947754
1733512862758442500,4.4544423828125,-1.8084162473678589,-1.2524176836013794,1.4530651569366455
1733512862768517400,4.464517333984375,-1.6970030069351196,-2.1442906856536865,1.3958415985107422
1733512862778592500,4.474592529296875,-1.5022335052490234,-2.7615561485290527,1.4037880897521973
1733512862788667400,4.48466748046875,-1.3889167308807373,-3.033750295639038,1.2399048805236816
1733512862798743600,4.49474365234375,-1.4152626991271973,-2.8394455909729004,0.8437576293945312
1733512862808818700,4.504818603515625,-1.470873475074768,-2.13386607170105,0.5085274577140808
1733512862818893300,4.514893310546875,-1.3323101997375488,-1.2438676357269287,0.6967764496803284
1733512862828968400,4.524968505859375,-0.9455615282058716,-0.673527717590332,1.400504231452942
1733512862839043300,4.535043212890625,-0.5138494372367859,-0.5822917222976685,2.3417654037475586
1733512862849118500,4.545118408203125,-0.2311258465051651,-0.8192624449729919,3.185946226119995
1733512862859193600,4.555193603515625,-0.1151508241891861,-1.2357546091079712,3.738025665283203
1733512862869268500,4.5652685546875,-0.07702181488275528,-1.3721321821212769,3.9244842529296875
1733512862879344400,4.575344482421875,0.09306378662586212,-1.2771743535995483,3.8329451084136963
1733512862889419500,4.58541943359375,0.43328234553337097,-1.0917599201202393,3.573174238204956
1733512862899494400,4.595494384765625,0.7793093323707581,-0.8218521475791931,3.28777813911438
1733512862909569500,4.605569580078125,1.036442518234253,-0.3479926884174347,3.0787224769592285
1733512862919644400,4.61564453125,1.0926668643951416,0.20580986142158508,2.865511178970337
1733512862929719600,4.625719482421875,0.9629111886024475,0.7658728957176208,2.612654447555542
1733512862939794400,4.63579443359375,0.7759180665016174,1.1692215204238892,2.372941255569458
1733512862949870600,4.64587060546875,0.6570268273353577,1.3558952808380127,2.1481523513793945
1733512862959945500,4.655945556640625,0.6279590129852295,1.4223308563232422,1.8033862113952637
1733512862970020600,4.6660205078125,0.6306887865066528,1.4314689636230469,1.3068315982818604
1733512862980095500,4.676095458984375,0.6015558838844299,1.1693263053894043,0.7658079862594604
1733512862990170400,4.68617041015625,0.5217081904411316,0.6803536415100098,0.30830812454223633
1733512863000245500,4.69624560546875,0.4036901295185089,0.07611964643001556,0.010271900333464146
1733512863010320400,4.7063203125,0.24146555364131927,-0.5856849551200867,-0.1428300440311432
1733512863020395500,4.7163955078125,0.046948064118623734,-1.1574448347091675,-0.21061265468597412
1733512863030471700,4.7264716796875,-0.18530353903770447,-1.571434497833252,-0.23586927354335785
1733512863040546300,4.73654638671875,-0.4257621169090271,-1.8397955894470215,-0.23373372852802277
1733512863050621400,4.746621337890625,-0.6554048657417297,-1.9555919170379639,-0.20441631972789764
1733512863060696300,4.7566962890625,-0.8438841700553894,-1.9298455715179443,-0.15920238196849823
1733512863070771500,4.766771484375,-0.9560914039611816,-1.776012897491455,-0.092841736972332
1733512863080846600,4.7768466796875,-1.0050934553146362,-1.4980237483978271,-0.002437830436974764
1733512863090921500,4.78692138671875,-1.0040626525878906,-1.1209840774536133,0.09124791622161865
1733512863100996600,4.79699658203125,-0.961719274520874,-0.7261442542076111,0.1594758778810501
1733512863111072500,4.807072509765625,-0.902171790599823,-0.3652867078781128,0.2056140899658203
1733512863121147400,4.8171474609375,-0.8390625715255737,-0.07870496064424515,0.24539266526699066
1733512863131222500,4.827222412109375,-0.7709186673164368,0.16030550003051758,0.2666287124156952
1733512863141297700,4.837297607421875,-0.6811956167221069,0.4302826523780823,0.2338058352470398
1733512863151372500,4.84737255859375,-0.5573444962501526,0.6800487637519836,0.15269874036312103
1733512863161447400,4.857447509765625,-0.42077726125717163,0.8033181428909302,0.03495119512081146
1733512863171522300,4.867522216796875,-0.30992797017097473,0.8539222478866577,-0.11779014021158218
1733512863181597400,4.877597412109375,-0.20541808009147644,0.9061026573181152,-0.31010928750038147
1733512863191673600,4.887673583984375,-0.10737381130456924,0.9649966359138489,-0.5293220281600952
1733512863201748500,4.89774853515625,-0.000506038311868906,0.999302327632904,-0.753463089466095
1733512863211823400,4.9078232421875,0.11245699226856232,0.9801461696624756,-0.98470538854599
1733512863221898500,4.9178984375,0.2821894586086273,0.9665926098823547,-1.2963552474975586
1733512863231973400,4.927973388671875,0.5076659917831421,1.0314382314682007,-1.779282808303833
1733512863242048500,4.938048583984375,0.7437933683395386,0.9658596515655518,-2.317578077316284
1733512863252123400,4.948123291015625,0.7196028232574463,-0.5746549367904663,-1.8315681219100952
1733512863262199300,4.95819921875,0.2716915011405945,-2.9551401138305664,-0.2878093421459198
1733512863272274400,4.9682744140625,-0.04260387271642685,-3.025494337081909,0.13194826245307922
1733512863282349600,4.978349609375,-0.25659340620040894,-1.6838276386260986,0.18003378808498383
1733512863292424400,4.988424560546875,-0.35715705156326294,-0.0031812279485166073,0.09218035638332367
1733512863302499600,4.99849951171875,-0.39848312735557556,1.1359981298446655,0.08652997016906738
1733512863312574500,5.008574462890625,-0.4418119490146637,1.6253927946090698,0.2310679852962494
1733512863322649600,5.018649658203125,-0.4647814631462097,1.6943598985671997,0.4901794195175171
1733512863332724500,5.028724365234375,-0.43578365445137024,1.6594072580337524,0.7840856313705444
1733512863342800400,5.03880029296875,-0.3697289228439331,1.5001224279403687,1.055842638015747
1733512863352875500,5.04887548828125,-0.23932673037052155,1.2669498920440674,1.320791244506836
1733512863362950700,5.05895068359375,-0.014497162774205208,1.072301983833313,1.5734468698501587
1733512863373025500,5.069025634765625,0.31145429611206055,0.9680989384651184,1.710817813873291
1733512863383100400,5.079100341796875,0.7103726267814636,1.0335118770599365,1.6432992219924927
1733512863393175300,5.08917529296875,1.1150381565093994,0.9179235696792603,1.4017744064331055
1733512863403250400,5.09925048828125,1.407546043395996,0.27840369939804077,1.1333492994308472
1733512863413326600,5.10932666015625,1.3066655397415161,-0.8155874013900757,0.7771000862121582
1733512863423401500,5.1194013671875,0.6731534004211426,-1.6211061477661133,0.08831317722797394
1733512863433476400,5.129476318359375,0.16836558282375336,-1.8032948970794678,-0.9335108399391174
1733512863443551500,5.139551513671875,0.08773311972618103,-1.3122137784957886,-1.929181694984436
1733512863453626400,5.14962646484375,0.09656016528606415,-0.36629486083984375,-2.637249231338501
1733512863463701500,5.159701416015625,0.13563919067382812,0.7568049430847168,-3.0341906547546387
1733512863473776600,5.169776611328125,0.23246319591999054,1.7212783098220825,-3.1848409175872803
1733512863483851500,5.1798515625,0.3573457896709442,2.2050249576568604,-3.0285987854003906
1733512863493927400,5.189927490234375,0.5249673128128052,2.2937004566192627,-2.5378971099853516
1733512863504002600,5.20000244140625,0.8014437556266785,2.334561824798584,-1.7767248153686523
1733512863514077400,5.210077392578125,1.0705457925796509,2.0510659217834473,-1.046156883239746
1733512863524152600,5.220152587890625,1.2461861371994019,1.7484112977981567,-0.4941825270652771
1733512863534227500,5.2302275390625,1.3240782022476196,1.5493005514144897,-0.06812521070241928
1733512863544302300,5.24030224609375,1.2040235996246338,1.1628791093826294,0.22049783170223236
1733512863554377200,5.250377197265625,0.8976738452911377,0.8881909847259521,0.3971801996231079
1733512863564453000,5.260453125,0.5942361950874329,0.6163296103477478,0.4591924846172333
1733512863574528300,5.2705283203125,0.47010013461112976,-0.01762925088405609,0.14172397553920746
1733512863584603400,5.280603271484375,0.5320320725440979,-1.4316418170928955,-0.9469006061553955
1733512863594678300,5.29067822265625,0.5641822814941406,-2.5921781063079834,-1.9633301496505737
1733512863604753200,5.300753173828125,0.3766421377658844,-2.9586904048919678,-2.4503021240234375
1733512863614828000,5.310828125,0.09777136147022247,-2.7561147212982178,-2.5165631771087646
1733512863624903200,5.320903076171875,-0.12944811582565308,-2.3341686725616455,-2.30226993560791
1733512863634978300,5.330978271484375,-0.18701207637786865,-1.9438368082046509,-1.9356024265289307
1733512863645054500,5.341054443359375,-0.0787992849946022,-1.7112438678741455,-1.5645655393600464
1733512863655129000,5.351129150390625,0.08944644778966904,-1.5754780769348145,-1.3040378093719482
1733512863665204200,5.361204345703125,0.13535885512828827,-1.4810175895690918,-1.163376808166504
1733512863675279000,5.371279052734375,0.016111554577946663,-1.2808003425598145,-1.0532056093215942
1733512863685354200,5.381354248046875,-0.17430631816387177,-0.9220908880233765,-0.9181585311889648
1733512863695429400,5.391429443359375,-0.33708620071411133,-0.48548319935798645,-0.7749052047729492
1733512863705504300,5.401504150390625,-0.42050325870513916,-0.08202289044857025,-0.6200612783432007
1733512863715580200,5.411580078125,-0.4104740619659424,0.21791084110736847,-0.4861069321632385
1733512863725655300,5.4216552734375,-0.33600902557373047,0.3641282916069031,-0.3770999014377594
1733512863735730200,5.431730224609375,-0.2732332646846771,0.38163378834724426,-0.29465723037719727
1733512863745805300,5.441805419921875,-0.2726326584815979,0.2902136743068695,-0.24522407352924347
1733512863755880200,5.451880126953125,-0.31113743782043457,0.10864467173814774,-0.23275676369667053
1733512863765955300,5.461955322265625,-0.3466697037220001,-0.1326833814382553,-0.27700498700141907
1733512863776030200,5.4720302734375,-0.33545032143592834,-0.38685813546180725,-0.3821697533130646
1733512863786105000,5.48210498046875,-0.26229697465896606,-0.6080235242843628,-0.5521654486656189
1733512863796181200,5.49218115234375,-0.14462468028068542,-0.7376912832260132,-0.7552106976509094
1733512863806256400,5.50225634765625,-0.012251758016645908,-0.7437654733657837,-0.9571895599365234
1733512863816331300,5.512331298828125,0.11042463034391403,-0.6437880396842957,-1.1594836711883545
1733512863826406100,5.52240625,0.22277484834194183,-0.455681711435318,-1.3249317407608032
1733512863836481300,5.532481201171875,0.310575008392334,-0.28197357058525085,-1.4603663682937622
1733512863846556200,5.54255615234375,0.3588235676288605,-0.16903623938560486,-1.5547616481781006
1733512863856631300,5.55263134765625,0.39803168177604675,-0.13179592788219452,-1.5865567922592163
1733512863866707200,5.562707275390625,0.4626859128475189,-0.10122869908809662,-1.4997444152832031
1733512863876782000,5.572781982421875,0.5637214183807373,0.030641717836260796,-1.2492094039916992
1733512863886857200,5.582857177734375,0.6499804854393005,0.37471187114715576,-0.8008624315261841
1733512863896932000,5.59293212890625,0.6122613549232483,0.9906424283981323,-0.17322593927383423
1733512863907007200,5.60300732421875,0.4060779809951782,1.8010748624801636,0.5350123047828674
1733512863917082400,5.613082275390625,-0.041775181889534,2.5384654998779297,1.12906813621521
1733512863927157200,5.6231572265625,-0.6296505928039551,2.695448160171509,1.3919811248779297
1733512863937232100,5.633232177734375,-1.1029162406921387,2.0280990600585938,1.2711687088012695
1733512863947308300,5.643308349609375,-1.3384015560150146,0.8603091239929199,1.0361229181289673
1733512863957383200,5.653383056640625,-1.292040467262268,-0.36782145500183105,0.9390292167663574
1733512863967458300,5.663458251953125,-1.0236966609954834,-1.4007514715194702,1.0314141511917114
1733512863977533400,5.673533447265625,-0.8455953598022461,-2.17948055267334,1.2143480777740479
1733512863987608300,5.6836083984375,-0.9024425148963928,-2.7241480350494385,1.2864919900894165
1733512863997683200,5.69368310546875,-1.1017979383468628,-3.0214133262634277,1.0746276378631592
1733512864007758000,5.703758056640625,-1.2455637454986572,-3.058185338973999,0.665864109992981
1733512864017834200,5.713834228515625,-1.228331446647644,-2.859893560409546,0.2518429756164551
1733512864027909400,5.723909423828125,-1.0856754779815674,-2.4824068546295166,0.00211970298551023
1733512864037984300,5.733984375,-0.900873601436615,-2.019390106201172,-0.0289497971534729
1733512864048059100,5.74405908203125,-0.7514050602912903,-1.4787750244140625,0.12284216284751892
1733512864058134300,5.75413427734375,-0.6311209797859192,-0.8718807697296143,0.41581225395202637
1733512864068209200,5.764209228515625,-0.5163382291793823,-0.2398599237203598,0.8678383231163025
1733512864078284300,5.7742841796875,-0.38750776648521423,0.22233940660953522,1.4337273836135864
1733512864088360200,5.784360107421875,-0.24385929107666016,0.47972747683525085,1.9807112216949463
1733512864098435000,5.79443505859375,-0.05166667699813843,0.4796640872955322,2.405921220779419
1733512864108510200,5.80451025390625,0.1721336841583252,0.3125130832195282,2.684628963470459
1733512864118585000,5.814585205078125,0.38176336884498596,0.15211115777492523,2.8562190532684326
1733512864128660200,5.82466015625,0.548305332660675,0.05441225692629814,2.947903633117676
1733512864138735400,5.8347353515625,0.7103349566459656,-0.036008983850479126,3.010586738586426
1733512864148810200,5.844810302734375,0.8276224732398987,-0.010125688277184963,3.0386962890625
1733512864158885000,5.854885009765625,0.8347389698028564,0.08907439559698105,2.9594078063964844
1733512864168961300,5.864961181640625,0.746809184551239,0.18062421679496765,2.7797939777374268
1733512864179036200,5.8750361328125,0.6137807965278625,0.3113017976284027,2.489759922027588
1733512864189111300,5.885111328125,0.4247385263442993,0.4698289930820465,2.093305826187134
1733512864199186400,5.8951865234375,0.2277303785085678,0.6246238946914673,1.6550565958023071
1733512864209261000,5.905260986328125,0.08004269748926163,0.6397666931152344,1.2291803359985352
1733512864219336200,5.915336181640625,-0.007039207965135574,0.5267317295074463,0.8341954350471497
1733512864229411000,5.9254111328125,-0.049532823264598846,0.29043352603912354,0.4829152524471283
1733512864239487200,5.9354873046875,-0.08484899997711182,-0.12422145903110504,0.21141555905342102
1733512864249562400,5.945562255859375,-0.12931674718856812,-0.6590666174888611,0.03218063339591026
1733512864259637000,5.955636962890625,-0.2035829871892929,-1.2148948907852173,-0.04583640396595001
1733512864269712100,5.965712158203125,-0.327008992433548,-1.6790205240249634,-0.04843451455235481
1733512864279787300,5.975787353515625,-0.4995133876800537,-1.9415466785430908,-0.0017951051704585552
1733512864289862100,5.985862060546875,-0.6842325329780579,-1.9649052619934082,0.0729658305644989
1733512864299937300,5.995937255859375,-0.8404091000556946,-1.7704596519470215,0.1769803762435913
1733512864310013200,6.00601318359375,-0.9359341263771057,-1.425648808479309,0.3116680383682251
1733512864320088000,6.016088134765625,-0.9759646058082581,-0.9826260209083557,0.4674523174762726
1733512864330163200,6.0261630859375,-0.9718310832977295,-0.538864254951477,0.6158532500267029
1733512864340238300,6.03623828125,-0.9056829810142517,-0.2296004295349121,0.7358547449111938
1733512864350313200,6.046313232421875,-0.7724915146827698,-0.10614022612571716,0.7944862246513367
1733512864360388400,6.056388427734375,-0.6082625985145569,-0.08862674981355667,0.7706860899925232
1733512864370463200,6.066463134765625,-0.42373573780059814,-0.10054465383291245,0.6594253182411194
1733512864380538000,6.0765380859375,-0.2502651512622833,-0.08365968614816666,0.49995627999305725
1733512864390614300,6.0866142578125,-0.09215549379587173,-0.0574161671102047,0.31476083397865295
1733512864400689200,6.096689208984375,0.0586278960108757,-0.06473799794912338,0.1102718710899353
1733512864410764300,6.106764404296875,0.20642238855361938,-0.09849100559949875,-0.09312079846858978
1733512864420839400,6.11683935546875,0.3336043059825897,-0.13969436287879944,-0.29133400321006775
1733512864430914000,6.1269140625,0.45208126306533813,-0.1349114328622818,-0.4869314134120941
1733512864440989200,6.1369892578125,0.5383738279342651,-0.06458055227994919,-0.6876964569091797
1733512864451064000,6.14706396484375,0.5674494504928589,0.039036691188812256,-0.8757357001304626
1733512864461140200,6.15714013671875,0.5295524001121521,0.04205964505672455,-1.037722110748291
1733512864471215400,6.16721533203125,0.4428454339504242,-0.08827655762434006,-1.2023760080337524
1733512864481290200,6.177290283203125,0.3239824175834656,-0.4772498607635498,-1.27711021900177
1733512864491365000,6.187365234375,0.07675684988498688,-1.3831300735473633,-0.9424829483032227
1733512864501440300,6.197440185546875,-0.16589653491973877,-1.9299061298370361,-0.4978136420249939
1733512864511515100,6.20751513671875,-0.17949841916561127,-1.7855628728866577,-0.13593646883964539
1733512864521590300,6.21759033203125,-0.08345577865839005,-1.419640302658081,0.19843165576457977
1733512864531666200,6.227666259765625,0.027805138379335403,-0.9475533962249756,0.3704914450645447
1733512864541741000,6.237740966796875,0.08956784009933472,-0.41815507411956787,0.25344789028167725
1733512864551816200,6.247816162109375,0.0540645569562912,-0.08266069740056992,-0.017856832593679428
1733512864561892000,6.25789208984375,-0.0850943922996521,-0.03790387883782387,-0.30024778842926025
1733512864571967200,6.26796728515625,-0.27529868483543396,-0.11382916569709778,-0.49521198868751526
1733512864582041900,6.278041748046875,-0.4140283465385437,-0.2225378006696701,-0.5250118970870972
1733512864592117000,6.288116943359375,-0.4301544427871704,-0.4115459620952606,-0.4142395257949829
1733512864602193200,6.298193115234375,-0.3130137026309967,-0.736940860748291,-0.18009145557880402
1733512864612268300,6.308268310546875,-0.13537444174289703,-1.2114328145980835,0.1336560696363449
1733512864622343200,6.31834326171875,0.05659818276762962,-1.7767428159713745,0.4845283329486847
1733512864632418000,6.32841796875,0.2560063600540161,-2.299020528793335,0.814414381980896
1733512864642493000,6.338492919921875,0.3784576952457428,-2.5567026138305664,0.976701557636261
1733512864652568000,6.348568115234375,0.3564662039279938,-2.360832929611206,0.7055201530456543
1733512864662643200,6.358643310546875,0.31938832998275757,-1.7839577198028564,0.09060616046190262
1733512864672718000,6.368718017578125,0.3639373183250427,-1.130416989326477,-0.4413529336452484
1733512864682794000,6.3787939453125,0.40003618597984314,-0.4980144798755646,-0.7052053809165955
1733512864692869000,6.388869140625,0.36203616857528687,0.17540016770362854,-0.7819823026657104
1733512864702944000,6.398944091796875,0.3315858542919159,0.8983269333839417,-0.8253443837165833
1733512864713019100,6.40901904296875,0.3146556615829468,1.7118624448776245,-0.8499919772148132
1733512864723094000,6.419093994140625,0.3105866312980652,2.376884698867798,-0.8564122915267944
1733512864733169200,6.429169189453125,0.3443463146686554,2.735767126083374,-0.8205423951148987
1733512864743244300,6.439244384765625,0.4230453670024872,2.7469747066497803,-0.7342035174369812
1733512864753320000,6.44931982421875,0.538749635219574,2.417104482650757,-0.5938685536384583
1733512864763395000,6.45939501953125,0.6845449209213257,1.8701547384262085,-0.4307294189929962
1733512864773470200,6.46947021484375,0.8098073601722717,1.172464370727539,-0.34273749589920044
1733512864783545000,6.479545166015625,0.8807110786437988,0.5976721048355103,-0.3625125288963318
1733512864793620200,6.4896201171875,0.8652518391609192,0.45901837944984436,-0.4866280257701874
1733512864803695000,6.499695068359375,0.779715895652771,0.45645320415496826,-0.6680694818496704
1733512864813770000,6.50977001953125,0.66486656665802,0.39826640486717224,-0.8466393351554871
1733512864823846100,6.51984619140625,0.6479246020317078,0.11356301605701447,-1.1817435026168823
1733512864833921300,6.52992138671875,0.6847047805786133,-0.6287980675697327,-1.8397413492202759
1733512864843996200,6.53999609375,0.6413788795471191,-1.4870160818099976,-2.5111279487609863
1733512864854071000,6.550071044921875,0.42680367827415466,-2.1095590591430664,-2.8576154708862305
1733512864864146000,6.56014599609375,0.10158538073301315,-2.598690986633301,-2.831239700317383
1733512864874221000,6.570220947265625,-0.1738128364086151,-2.960223913192749,-2.514362335205078
1733512864884296200,6.580296142578125,-0.29710251092910767,-3.1908814907073975,-2.066232681274414
1733512864894372000,6.5903720703125,-0.27771228551864624,-3.3610353469848633,-1.6432313919067383
1733512864904447000,6.600447021484375,-0.21678714454174042,-3.5040433406829834,-1.296194076538086
1733512864914522000,6.610522216796875,-0.2573898732662201,-3.568117141723633,-1.0265413522720337
1733512864924597000,6.620596923828125,-0.3447332978248596,-3.56679630279541,-0.8180331587791443
1733512864934672100,6.630672119140625,-0.44350665807724,-3.5574092864990234,-0.6680266857147217
1733512864944747300,6.640747314453125,-0.5491345524787903,-3.5019867420196533,-0.5778456926345825
1733512864954822100,6.650822265625,-0.6296545267105103,-3.334087610244751,-0.5340117812156677
1733512864964897300,6.660897216796875,-0.6510232090950012,-3.0335779190063477,-0.5270060896873474
1733512864974973200,6.67097314453125,-0.6031740307807922,-2.6201283931732178,-0.5179390907287598
1733512864985048000,6.681048095703125,-0.5087846517562866,-2.1416878700256348,-0.4763987958431244
1733512864995123200,6.691123291015625,-0.3999474346637726,-1.6334214210510254,-0.41361305117607117
1733512865005198000,6.701197998046875,-0.287131130695343,-1.1344960927963257,-0.3538479804992676
1733512865015273200,6.711273193359375,-0.18711265921592712,-0.6874837875366211,-0.29149937629699707
1733512865025348000,6.72134814453125,-0.10727241635322571,-0.31043800711631775,-0.24961954355239868
1733512865035423000,6.731423095703125,-0.03696663677692413,0.004919893573969603,-0.23266802728176117
1733512865045499100,6.7414990234375,0.024759046733379364,0.2664375305175781,-0.258449524641037
1733512865055574300,6.75157421875,0.07498151808977127,0.44509851932525635,-0.33178630471229553
1733512865065649200,6.761649169921875,0.13030175864696503,0.5274296402931213,-0.46765413880348206
1733512865075724000,6.77172412109375,0.19451171159744263,0.5077444314956665,-0.6549422740936279
1733512865085799000,6.781798828125,0.2682090997695923,0.4083791971206665,-0.859378457069397
1733512865095874000,6.7918740234375,0.33550313115119934,0.30876225233078003,-1.0309228897094727
1733512865105949200,6.80194921875,0.38302937150001526,0.09600390493869781,-1.1767916679382324
1733512865116025000,6.812025146484375,0.417159765958786,-0.23762831091880798,-1.2809988260269165
1733512865126100000,6.822099853515625,0.4189605712890625,-0.6219544410705566,-1.3252760171890259
1733512865136175000,6.832175048828125,0.3924020230770111,-0.982660174369812,-1.307275414466858
1733512865146250000,6.84225,0.3477908968925476,-1.2260162830352783,-1.2305121421813965
1733512865156325000,6.8523251953125,0.3040420114994049,-1.3028684854507446,-1.0719093084335327
1733512865166400300,6.862400146484375,0.21876147389411926,-1.2102853059768677,-0.8374575972557068
1733512865176475100,6.87247509765625,0.1218801885843277,-1.0028823614120483,-0.5709753036499023
1733512865186551000,6.882551025390625,0.027273785322904587,-0.7679077386856079,-0.3526219427585602
1733512865196626200,6.892626220703125,-0.047534164041280746,-0.5298751592636108,-0.17156702280044556
1733512865206701000,6.902701171875,-0.12542018294334412,-0.23474496603012085,0.07747075706720352
1733512865216776200,6.912776123046875,-0.2670834958553314,0.2211419939994812,0.48760882019996643
1733512865226851000,6.92285107421875,-0.4669172465801239,0.8168724775314331,1.040042757987976
1733512865236926000,6.932926025390625,-0.6884444952011108,1.3643947839736938,1.6187891960144043
1733512865247001000,6.9430009765625,-0.9283449649810791,1.5416523218154907,2.0604023933410645
1733512865257077000,6.953076904296875,-1.1475403308868408,1.1781929731369019,2.1721837520599365
1733512865267152100,6.963152099609375,-1.2507306337356567,0.39214983582496643,1.942762017250061
1733512865277227300,6.973227294921875,-1.146249532699585,-0.45213162899017334,1.5942022800445557
1733512865287302100,6.98330224609375,-0.9698454737663269,-1.0697612762451172,1.3066445589065552
1733512865297377000,6.993376953125,-0.8534230589866638,-1.5327675342559814,1.13801908493042
1733512865307452200,7.0034521484375,-0.8338792324066162,-1.9512430429458618,1.0705026388168335
1733512865317527000,7.013527099609375,-0.982291579246521,-2.344071865081787,1.069085955619812
1733512865327603200,7.023603271484375,-1.2598729133605957,-2.8906867504119873,0.9775916934013367
1733512865337678000,7.033677978515625,-1.4889700412750244,-3.257514238357544,0.6587691307067871
1733512865347753000,7.0437529296875,-1.5496954917907715,-3.286574125289917,0.2881188690662384
1733512865357828000,7.053828125,-1.4660022258758545,-2.9867498874664307,0.2167079597711563
1733512865367903000,7.063903076171875,-1.2268955707550049,-2.5645344257354736,0.6097047924995422
1733512865377978000,7.07397802734375,-0.8587308526039124,-2.155025005340576,1.364375114440918
1733512865388053200,7.08405322265625,-0.5071493983268738,-1.8318036794662476,2.1572442054748535
1733512865398129000,7.09412890625,-0.2957700788974762,-1.5697764158248901,2.7202839851379395
1733512865408204000,7.1042041015625,-0.09711902588605881,-1.3154346942901611,2.9867141246795654
1733512865418279200,7.114279052734375,0.22846119105815887,-1.0333235263824463,3.072197914123535
1733512865428354000,7.12435400390625,0.6803897619247437,-0.7951809763908386,3.0689094066619873
1733512865438429200,7.13442919921875,1.139783501625061,-0.6374703645706177,3.0455708503723145
1733512865448504300,7.14450439453125,1.457566738128662,-0.44225212931632996,3.0279934406280518
1733512865458579000,7.154578857421875,1.6005548238754272,-0.0603451132774353,3.0016980171203613
1733512865468655000,7.164655029296875,1.5826168060302734,0.5090392827987671,2.904895305633545
1733512865478730200,7.174730224609375,1.4579296112060547,1.2048275470733643,2.694589138031006
1733512865488805000,7.18480517578125,1.22274911403656,1.8180127143859863,2.3489205837249756
1733512865498880300,7.19488037109375,0.9675853252410889,2.3364338874816895,1.8090711832046509
1733512865508955000,7.204954833984375,0.760305643081665,2.5855650901794434,1.090410828590393
1733512865519030000,7.215030029296875,0.602360188961029,2.4036247730255127,0.3639986515045166
1733512865529105200,7.225105224609375,0.4721132218837738,1.8328135013580322,-0.24504710733890533
1733512865539181000,7.23518115234375,0.3527486026287079,0.9831442832946777,-0.6960112452507019
1733512865549256200,7.245256103515625,0.14414401352405548,-0.02299291081726551,-0.8939049243927002
1733512865559330800,7.255330810546875,-0.14954303205013275,-0.9959560632705688,-0.8329123258590698
1733512865569405700,7.26540576171875,-0.4676509499549866,-1.790709137916565,-0.5719947218894958
1733512865579480800,7.275480712890625,-0.7781824469566345,-2.3223512172698975,-0.20494288206100464
1733512865589556000,7.285555908203125,-1.074008822441101,-2.6003568172454834,0.11512912809848785
1733512865599630800,7.295630859375,-1.3113962411880493,-2.6482129096984863,0.31400319933891296
1733512865609706800,7.305706787109375,-1.4816616773605347,-2.44181227684021,0.3952445387840271
1733512865619782000,7.315781982421875,-1.5499873161315918,-1.9704962968826294,0.39604803919792175
1733512865629856800,7.325856689453125,-1.5233194828033447,-1.2478076219558716,0.34125643968582153
1733512865639932000,7.335931884765625,-1.4243357181549072,-0.3446267247200012,0.27872106432914734
1733512865650006800,7.3460068359375,-1.3061896562576294,0.5854114294052124,0.2275334894657135
1733512865660082000,7.35608203125,-1.1701648235321045,1.2598068714141846,0.1707577109336853
1733512865670157000,7.366156982421875,-0.9962782859802246,1.581286907196045,0.11520709842443466
1733512865680233000,7.37623291015625,-0.8181209564208984,1.6312474012374878,0.06509295105934143
1733512865690307800,7.386307861328125,-0.6585419178009033,1.4703091382980347,0.018599750474095345
1733512865700383000,7.396383056640625,-0.5149522423744202,1.229770302772522,-0.025421764701604843
1733512865710457900,7.406457763671875,-0.3835848569869995,1.0406185388565063,-0.07556269317865372
1733512865720533000,7.416532958984375,-0.25973573327064514,0.9320088028907776,-0.14515383541584015
1733512865730607900,7.42660791015625,-0.14378412067890167,0.8734261989593506,-0.24443596601486206
1733512865740682800,7.436682861328125,-0.017286507412791252,0.8189133405685425,-0.3956293761730194
1733512865750759000,7.446759033203125,0.10356774181127548,0.7771579027175903,-0.5972666144371033
1733512865760834000,7.456833984375,0.2202417552471161,0.7237487435340881,-0.8213805556297302
1733512865770909000,7.466908935546875,0.3257242441177368,0.6456493735313416,-1.029017686843872
1733512865780983800,7.47698388671875,0.40293997526168823,0.5675472617149353,-1.1659038066864014
1733512865791058700,7.48705859375,0.4105750024318695,0.41999614238739014,-0.9947075247764587
1733512865801133800,7.4971337890625,0.3602117598056793,0.22154764831066132,-0.45593181252479553
1733512865811209000,7.507208984375,0.33809927105903625,0.25349119305610657,-0.026519186794757843
1733512865821284900,7.517284912109375,0.38365036249160767,0.5125499963760376,0.15900461375713348
1733512865831359700,7.52735986328125,0.4074060320854187,0.7977748513221741,0.25618574023246765
1733512865841435000,7.537434814453125,0.3730771243572235,0.9918293356895447,0.3138639032840729
1733512865851509800,7.547509765625,0.299402117729187,1.1250782012939453,0.32479164004325867
1733512865861585000,7.5575849609375,0.2179597169160843,1.2221486568450928,0.3136065602302551
1733512865871660000,7.567659912109375,0.16110335290431976,1.3313289880752563,0.2986728847026825
1733512865881735000,7.57773486328125,0.14238382875919342,1.3808386325836182,0.26506179571151733
1733512865891810800,7.587810791015625,0.13710811734199524,1.266085147857666,0.17638970911502838
1733512865901886000,7.597885986328125,0.13166654109954834,0.9834567904472351,0.013740889728069305
1733512865911960800,7.6079609375,0.11905806511640549,0.5848665237426758,-0.20110191404819489
1733512865922036000,7.618035888671875,0.10140343755483627,0.17850731313228607,-0.40138494968414307
1733512865932110800,7.62811083984375,0.09325097501277924,-0.13384446501731873,-0.5332310795783997
1733512865942186000,7.63818603515625,0.11166708916425705,-0.34985411167144775,-0.57767254114151
1733512865952260900,7.6482607421875,0.17134319245815277,-0.5501600503921509,-0.5550239682197571
1733512865962336800,7.658336669921875,0.2641972601413727,-0.8114748597145081,-0.49374669790267944
1733512865972412000,7.668411865234375,0.3472883999347687,-1.186039924621582,-0.3869217336177826
1733512865982487000,7.678487060546875,0.3894968628883362,-1.650888442993164,-0.21229302883148193
1733512865992562000,7.68856201171875,0.4392532408237457,-2.137773275375366,0.07995560765266418
1733512866002636800,7.69863671875,0.43603575229644775,-2.6238205432891846,0.17494356632232666
1733512866012712000,7.7087119140625,0.27135252952575684,-2.7640891075134277,-0.37195441126823425
1733512866022786800,7.718786865234375,0.0450870506465435,-2.530869245529175,-1.1724718809127808
1733512866032863000,7.728863037109375,-0.11847124993801117,-2.2789199352264404,-1.5667425394058228
1733512866042938000,7.738938232421875,-0.24990606307983398,-1.987331748008728,-1.4861563444137573
1733512866053012700,7.7490126953125,-0.3283897042274475,-1.5932917594909668,-1.1189104318618774
1733512866063087900,7.759087890625,-0.2892858386039734,-0.9151653051376343,-0.702782928943634
1733512866073162800,7.769162841796875,-0.14986161887645721,0.21182961761951447,-0.35731497406959534
1733512866083238000,7.77923779296875,0.09623882174491882,1.5656790733337402,-0.07781399041414261
1733512866093313000,7.78931298828125,0.4149923026561737,2.7695369720458984,0.11586759984493256
1733512866103388700,7.799388671875,0.7540862560272217,3.6754252910614014,0.19259577989578247
1733512866113463800,7.8094638671875,1.04763662815094,4.531805992126465,0.14549537003040314
1733512866123539000,7.8195390625,1.2631746530532837,4.926320552825928,0.17409327626228333
1733512866133613800,7.82961376953125,1.3475675582885742,4.80056095123291,0.21952733397483826
1733512866143689000,7.83968896484375,1.1827795505523682,4.478867053985596,0.17945532500743866
1733512866153763800,7.849763916015625,0.8252728581428528,3.9505672454833984,0.05399833992123604
1733512866163839000,7.8598388671875,0.49130329489707947,2.9779725074768066,-0.17823894321918488
1733512866173915000,7.869914794921875,0.323074609041214,1.9006403684616089,-0.5150384902954102
1733512866183990000,7.879989990234375,0.2241334766149521,0.6564637422561646,-1.0927824974060059
1733512866194065000,7.89006494140625,0.15976008772850037,-0.7201316952705383,-1.7313185930252075
1733512866204140000,7.90014013671875,0.0806061178445816,-1.7569708824157715,-2.160878896713257
1733512866214215000,7.91021484375,-0.01574438437819481,-2.4845240116119385,-2.3809664249420166
1733512866224289800,7.920289794921875,-0.07614488154649734,-2.948509693145752,-2.392531633377075
1733512866234365000,7.930364990234375,-0.06841985136270523,-3.329360008239746,-2.2682578563690186
1733512866244440800,7.94044091796875,-0.020136967301368713,-3.600324869155884,-2.079928159713745
1733512866254516000,7.950515869140625,-0.012583710253238678,-3.764448642730713,-1.8846802711486816
1733512866264591000,7.960591064453125,-0.05010881647467613,-3.7141740322113037,-1.7055402994155884
1733512866274665700,7.970665771484375,-0.0960206463932991,-3.468410015106201,-1.5230344533920288
1733512866284740900,7.980740966796875,-0.12776611745357513,-3.0430400371551514,-1.3285648822784424
1733512866294815700,7.990815673828125,-0.11814890801906586,-2.5002408027648926,-1.146963119506836
1733512866304892000,8.000891845703125,-0.08043590933084488,-1.8681108951568604,-0.9987378120422363
1733512866314967000,8.010967041015626,-0.029440635815262794,-1.2283368110656738,-0.9109328985214233
1733512866325041700,8.021041748046875,0.02268376760184765,-0.6287509202957153,-0.856839656829834
1733512866335116800,8.03111669921875,0.055456094443798065,-0.09001391381025314,-0.7970956563949585
1733512866345192000,8.04119189453125,0.07038901001214981,0.36108461022377014,-0.7255170345306396
1733512866355266800,8.051266845703125,0.09471166133880615,0.6804966330528259,-0.6578596830368042
1733512866365342000,8.061342041015624,0.12030341476202011,0.8246163725852966,-0.6292646527290344
1733512866375417900,8.07141796875,0.14359702169895172,0.8212802410125732,-0.662693440914154
1733512866385492700,8.08149267578125,0.14402586221694946,0.7079508304595947,-0.7626456022262573
1733512866395567900,8.09156787109375,0.11513429135084152,0.489244282245636,-0.9405876398086548
1733512866405643000,8.10164306640625,0.0635208711028099,0.12867282330989838,-1.1837480068206787
1733512866415718000,8.1117177734375,0.012026526033878326,-0.30854979157447815,-1.420798420906067
1733512866425793000,8.12179296875,0.008649148046970367,-0.7421758770942688,-1.5690418481826782
1733512866435868000,8.131867919921875,0.08955758064985275,-1.1418108940124512,-1.6115928888320923
1733512866445943800,8.14194384765625,0.26201847195625305,-1.3791362047195435,-1.4745752811431885
1733512866456019000,8.15201904296875,0.465584933757782,-1.3570588827133179,-1.1228947639465332
1733512866466093800,8.16209375,0.6081423759460449,-1.0135445594787598,-0.5927152633666992
1733512866476169000,8.1721689453125,0.6697719693183899,-0.40312695503234863,-0.012106766924262047
1733512866486243800,8.182243896484374,0.6323591470718384,0.2716694176197052,0.46347713470458984
1733512866496318700,8.192318603515625,0.4855174720287323,0.8912433981895447,0.7563071846961975
1733512866506393900,8.202393798828124,0.23110909759998322,1.4112826585769653,0.8999752998352051
1733512866516470000,8.212469970703125,-0.10233063995838165,1.8583394289016724,0.9876606464385986
1733512866526545000,8.222544921875,-0.46369078755378723,2.1831183433532715,1.0825554132461548
1733512866536619800,8.232619873046875,-0.7973995208740234,2.3346779346466064,1.2545170783996582
1733512866546695000,8.24269482421875,-1.0864888429641724,2.2179577350616455,1.5006855726242065
1733512866556770000,8.25277001953125,-1.3300514221191406,1.6966980695724487,1.6749948263168335
1733512866566845000,8.262844970703124,-1.4767001867294312,0.8901688456535339,1.7483816146850586
1733512866576920000,8.272920166015625,-1.4985802173614502,-0.057992901653051376,1.7632535696029663
1733512866586996000,8.282995849609375,-1.3803398609161377,-1.046550989151001,1.6821162700653076
1733512866597070800,8.29307080078125,-1.2492895126342773,-1.9328992366790771,1.551482915878296
1733512866607146000,8.30314599609375,-1.2501195669174194,-2.5680105686187744,1.3242141008377075
1733512866617221000,8.31322119140625,-1.3463728427886963,-2.83242130279541,0.9475709199905396
1733512866627296000,8.3232958984375,-1.4238580465316772,-2.670661449432373,0.48352691531181335
1733512866637371100,8.33337109375,-1.4399731159210205,-2.1967310905456543,0.1656980812549591
1733512866647446000,8.343446044921874,-1.36709725856781,-1.5803576707839966,0.1651768684387207
1733512866657522000,8.35352197265625,-1.1048160791397095,-0.9899018406867981,0.5731116533279419
1733512866667597000,8.36359716796875,-0.7689086198806763,-0.6289355158805847,1.234002947807312
1733512866677672000,8.373671875,-0.4336177110671997,-0.40741243958473206,1.8950450420379639
1733512866687747000,8.3837470703125,-0.10170325636863708,-0.25762608647346497,2.35052752494812
1733512866697822200,8.393822265625,0.2908024787902832,-0.21118882298469543,2.5852694511413574
1733512866707896800,8.403896728515624,0.7566747665405273,-0.2645030915737152,2.6412994861602783
1733512866717972000,8.413971923828125,1.1782886981964111,-0.2962367832660675,2.6251182556152344
1733512866728048000,8.424048095703125,1.4744187593460083,-0.22493523359298706,2.637314558029175
1733512866738123000,8.434123046875,1.6484094858169556,0.07553165405988693,2.7118656635284424
1733512866748198100,8.4441982421875,1.7025535106658936,0.44115713238716125,2.756589651107788
1733512866758273000,8.45427294921875,1.6495072841644287,0.8434252142906189,2.718709945678711
1733512866768348000,8.464347900390624,1.4332185983657837,1.3603918552398682,2.5353147983551025
1733512866778423000,8.474423095703125,1.1378117799758911,1.9136608839035034,2.1865127086639404
1733512866788499200,8.484499267578125,0.8840880393981934,2.254775047302246,1.6790287494659424
1733512866798574000,8.494573974609375,0.6614259481430054,2.154177665710449,1.049261212348938
1733512866808649000,8.50464892578125,0.46682271361351013,1.7096073627471924,0.3983440399169922
1733512866818723800,8.514723876953125,0.2702486515045166,1.2746822834014893,-0.13694123923778534
1733512866828799000,8.524799072265624,0.08767707645893097,0.863723874092102,-0.5132369995117188
1733512866838874000,8.5348740234375,-0.10094556957483292,0.31830745935440063,-0.763058066368103
1733512866848949000,8.544948974609374,-0.34190553426742554,-0.4098050594329834,-0.8075976371765137
1733512866859025000,8.55502490234375,-0.5949562191963196,-1.1446160078048706,-0.648717999458313
1733512866869100000,8.56510009765625,-0.8547579646110535,-1.7292981147766113,-0.36934250593185425
1733512866879175000,8.5751748046875,-1.0929564237594604,-1.929823875427246,-0.07529517263174057
1733512866889250000,8.58525,-1.2725276947021484,-1.7845121622085571,0.17290595173835754
1733512866899325000,8.595324951171875,-1.383581280708313,-1.4711731672286987,0.38668587803840637
1733512866909400000,8.605400146484374,-1.4209944009780884,-1.0554203987121582,0.5322679877281189
1733512866919475200,8.61547509765625,-1.3742015361785889,-0.5313981771469116,0.5951446890830994
1733512866929551000,8.625551025390624,-1.2865920066833496,0.07466360181570053,0.575564444065094
1733512866939626000,8.6356259765625,-1.1955894231796265,0.6767984628677368,0.4965713918209076
1733512866949701000,8.645701171875,-1.1188687086105347,1.2128329277038574,0.41069090366363525
1733512866959776000,8.65577587890625,-1.0369834899902344,1.5511935949325562,0.34049901366233826
1733512866969851100,8.66585107421875,-0.9458798170089722,1.6154166460037231,0.29328471422195435
1733512866979926000,8.675926025390625,-0.8532494902610779,1.4628307819366455,0.2465488761663437
1733512866990002000,8.686001953125,-0.7644875049591064,1.2115752696990967,0.17183327674865723
1733512867000077000,8.6960771484375,-0.685099184513092,0.9404734373092651,0.05919328331947327
1733512867010152200,8.706152099609374,-0.6080580353736877,0.6967766880989075,-0.08974674344062805
1733512867020227000,8.71622705078125,-0.5329843163490295,0.5199622511863708,-0.25000059604644775
1733512867030302000,8.726302001953124,-0.4427511394023895,0.44176819920539856,-0.4293464124202728
1733512867040376800,8.736376953125,-0.3281342685222626,0.443299800157547,-0.6255441904067993
1733512867050452000,8.746451904296874,-0.19476820528507233,0.5272749066352844,-0.853538990020752
1733512867060528000,8.756528076171875,-0.03816820681095123,0.6792734861373901,-1.1028326749801636
1733512867070603000,8.76660302734375,0.13007324934005737,0.8792561292648315,-1.3569462299346924
1733512867080678000,8.776677978515625,0.28420478105545044,1.0641716718673706,-1.4925320148468018
1733512867090753000,8.7867529296875,0.33573117852211,0.9559503793716431,-1.1068904399871826
1733512867100828000,8.796827880859375,0.27748173475265503,0.7146554589271545,-0.3304298520088196
1733512867110903000,8.806903076171874,0.2412339746952057,0.5924558043479919,0.22763210535049438
1733512867120978200,8.816978271484375,0.2008601725101471,0.4320320188999176,0.5861007571220398
1733512867131053800,8.8270537109375,0.15924803912639618,0.2803390622138977,0.7222565412521362
1733512867141129000,8.83712890625,0.14921271800994873,0.3507016599178314,0.5933970808982849
1733512867151204000,8.8472041015625,0.15132994949817657,0.5783546566963196,0.3356193006038666
1733512867161279000,8.857279052734375,0.11198893189430237,0.7367932796478271,0.09739819914102554
1733512867171354000,8.86735400390625,0.03597971051931381,0.6928817629814148,-0.04880737140774727
1733512867181429000,8.877428955078125,-0.06261610239744186,0.5592264533042908,-0.1219542846083641
1733512867191504100,8.887504150390624,-0.13273578882217407,0.4027066230773926,-0.08833860605955124
1733512867201580000,8.897580078125,-0.12572528421878815,0.2338707447052002,0.0010778303258121014
1733512867211655000,8.907655029296874,-0.04517766460776329,-0.02379462495446205,0.09123320132493973
1733512867221730000,8.91772998046875,0.09958697855472565,-0.40660566091537476,0.17899101972579956
1733512867231805200,8.92780517578125,0.3040642738342285,-0.8908637762069702,0.31851157546043396
1733512867241880000,8.937880126953125,0.5472359657287598,-1.4146103858947754,0.5215912461280823
1733512867251955000,8.947954833984374,0.763169527053833,-1.7918230295181274,0.6699972152709961
1733512867262031000,8.958031005859375,0.7840628623962402,-1.8118377923965454,0.5059097409248352
1733512867272106000,8.96810595703125,0.5187558531761169,-1.455168604850769,-0.12548644840717316
1733512867282181000,8.97818115234375,0.24615898728370667,-0.9522189497947693,-0.7731575965881348
1733512867292256000,8.988256103515624,0.06777793169021606,-0.37604644894599915,-1.1540311574935913
1733512867302331000,8.998330810546875,-0.03738364204764366,0.25311338901519775,-1.2841790914535522
1733512867312406000,9.008406005859374,-0.03611157834529877,0.9415242075920105,-1.2930901050567627
1733512867322481000,9.01848095703125,0.055905427783727646,1.6990569829940796,-1.233216404914856
1733512867332557000,9.02855712890625,0.15397416055202484,2.3271985054016113,-1.160897970199585
1733512867342632000,9.0386318359375,0.2577064037322998,2.630399703979492,-1.064066767692566
1733512867352706800,9.048706787109374,0.3971644341945648,2.7194254398345947,-0.9441468715667725
1733512867362782000,9.058781982421875,0.5446780323982239,2.7026994228363037,-0.8139105439186096
1733512867372857000,9.068857177734374,0.6898233294487,2.445382595062256,-0.6728014945983887
1733512867382932000,9.078931884765625,0.7875919938087463,2.232262134552002,-0.5991714596748352
1733512867393007900,9.0890078125,0.8047903180122375,2.085981845855713,-0.5686483979225159
1733512867403083000,9.0990830078125,0.7366645336151123,1.7034865617752075,-0.5760245323181152
1733512867413158000,9.109157958984374,0.6703692078590393,1.30899178981781,-0.528866171836853
1733512867423233000,9.11923291015625,0.5717374086380005,0.84296715259552,-0.5185109972953796
1733512867433308200,9.12930810546875,0.5005642771720886,0.055482715368270874,-0.824529230594635
1733512867443383000,9.139383056640625,0.4962693750858307,-1.1498429775238037,-1.5018202066421509
1733512867453458200,9.149458251953124,0.37333157658576965,-2.240868330001831,-2.124844551086426
1733512867463534000,9.1595341796875,0.10508176684379578,-2.9099764823913574,-2.412706136703491
1733512867473609000,9.16960888671875,-0.17557886242866516,-3.1344523429870605,-2.3944694995880127
1733512867483684000,9.17968408203125,-0.308557391166687,-3.083338975906372,-2.1687800884246826
1733512867493759000,9.189759033203124,-0.2911612093448639,-2.8484325408935547,-1.8508456945419312
1733512867503834000,9.199834228515625,-0.22323063015937805,-2.5020575523376465,-1.540327787399292
1733512867513909000,9.209908935546874,-0.16170251369476318,-2.1631481647491455,-1.2783950567245483
1733512867523984000,9.21998388671875,-0.16002339124679565,-1.872849941253662,-1.0742576122283936
1733512867534060000,9.23006005859375,-0.22301658987998962,-1.5750970840454102,-0.916878879070282
1733512867544135200,9.24013525390625,-0.3510107696056366,-1.176504373550415,-0.7851927876472473
1733512867554210000,9.2502099609375,-0.47124168276786804,-0.7325465679168701,-0.6408547163009644
1733512867564285200,9.26028515625,-0.513270914554596,-0.33124393224716187,-0.4976786673069
1733512867574360300,9.2703603515625,-0.4694914221763611,-0.030878104269504547,-0.36627089977264404
1733512867584435200,9.280435302734375,-0.39211007952690125,0.16977937519550323,-0.24763770401477814
1733512867594511400,9.290511474609374,-0.3182527422904968,0.2798844277858734,-0.13471390306949615
1733512867604586200,9.300586181640625,-0.2882562279701233,0.29788926243782043,-0.016960635781288147
1733512867614661000,9.3106611328125,-0.3115271031856537,0.24919620156288147,0.0950227677822113
1733512867624736300,9.320736328125,-0.34781959652900696,0.16809283196926117,0.19454190135002136
1733512867634811100,9.33081103515625,-0.381180077791214,0.0908251628279686,0.2474750429391861
1733512867644886300,9.34088623046875,-0.38605445623397827,0.05705920606851578,0.22491487860679626
1733512867654961400,9.35096142578125,-0.3574376702308655,0.04146931320428848,0.07358139008283615
1733512867665037000,9.361037109375,-0.2998553216457367,0.008144914172589779,-0.2120775282382965
1733512867675112200,9.3711123046875,-0.24731026589870453,-0.13749010860919952,-0.6269549131393433
1733512867685187300,9.381187255859375,-0.22310638427734375,-0.35037386417388916,-1.0298421382904053
1733512867695262200,9.39126220703125,-0.12903107702732086,-0.6762406826019287,-1.3921492099761963
1733512867705337300,9.40133740234375,0.013099970296025276,-0.9984613656997681,-1.7085444927215576
1733512867715412500,9.41141259765625,0.1391724944114685,-1.4056645631790161,-1.9750769138336182
1733512867725487400,9.4214873046875,0.2535102665424347,-1.869809865951538,-2.153235912322998
1733512867735563300,9.431563232421874,0.40700891613960266,-2.291095018386841,-2.1767210960388184
1733512867745638400,9.441638427734375,0.5858569145202637,-2.5169060230255127,-1.9916013479232788
1733512867755713300,9.45171337890625,0.7249703407287598,-2.4431557655334473,-1.5877342224121094
1733512867765788400,9.461788330078125,0.7596274018287659,-2.0700008869171143,-1.034045934677124
1733512867775863300,9.47186328125,0.7058232426643372,-1.4682163000106812,-0.4419669806957245
1733512867785938200,9.481938232421875,0.5776620507240295,-0.7472821474075317,0.059822093695402145
1733512867796014300,9.492014404296874,0.3964810073375702,-0.10063019394874573,0.3592876195907593
1733512867806089200,9.502089111328125,0.2020593285560608,0.34563010931015015,0.4461916387081146
1733512867816164400,9.512164306640624,0.027043556794524193,0.6403038501739502,0.48365285992622375
1733512867826239200,9.5222392578125,-0.1628163903951645,0.874192476272583,0.605309247970581
1733512867836314000,9.532314208984374,-0.38988661766052246,1.013060212135315,0.8187024593353271
1733512867846389200,9.54238916015625,-0.6490236520767212,0.9778934121131897,1.04527747631073
1733512867856465400,9.55246533203125,-0.899596095085144,0.698602557182312,1.1785259246826172
1733512867866540300,9.562540283203125,-1.1061443090438843,0.1921716332435608,1.224801778793335
1733512867876615200,9.572615234375,-1.2182797193527222,-0.41760656237602234,1.2246488332748413
1733512867886690300,9.582690185546875,-1.254098653793335,-1.0548185110092163,1.2004649639129639
1733512867896765200,9.59276513671875,-1.218863606452942,-1.6287169456481934,1.1925792694091797
1733512867906840300,9.60284033203125,-1.1520518064498901,-2.0980050563812256,1.188071370124817
1733512867916915200,9.612915283203124,-1.1748809814453125,-2.3988187313079834,1.0652891397476196
1733512867926991000,9.6229912109375,-1.2986239194869995,-2.441117525100708,0.7869382500648499
1733512867937066200,9.633066162109374,-1.3803317546844482,-2.18131422996521,0.5612249374389648
1733512867947141000,9.64314111328125,-1.2758924961090088,-1.7791659832000732,0.6409301161766052
1733512867957216300,9.65321630859375,-0.9773527383804321,-1.4341925382614136,1.0766323804855347
1733512867967291400,9.66329150390625,-0.5506973266601562,-1.203221321105957,1.7893091440200806
1733512867977366300,9.6733662109375,-0.1550544798374176,-0.986971378326416,2.537799119949341
1733512867987441400,9.68344140625,0.1434912085533142,-0.689595103263855,3.1307873725891113
1733512867997517300,9.693517333984374,0.38308873772621155,-0.2864362299442291,3.4453048706054688
1733512868007592200,9.70359228515625,0.6538047194480896,0.11339506506919861,3.572983741760254
1733512868017667300,9.713667236328124,0.9391463994979858,0.5346394181251526,3.6199400424957275
1733512868027742200,9.7237421875,1.1455968618392944,1.0738722085952759,3.6300525665283203
1733512868037817300,9.7338173828125,1.1950315237045288,1.59456205368042,3.608612060546875
1733512868047892200,9.743892333984375,1.0941438674926758,1.973543405532837,3.4841465950012207
1733512868057968400,9.753968505859374,0.9310808777809143,2.1199562549591064,3.20629620552063
1733512868068043300,9.764043212890625,0.751710832118988,2.014864683151245,2.7444753646850586
1733512868078118400,9.774118408203124,0.5290942788124084,1.882675290107727,2.0346360206604004
1733512868088193300,9.784193359375,0.3369986116886139,1.6659352779388428,1.1604516506195068
1733512868098268200,9.79426806640625,0.22672520577907562,1.2863438129425049,0.31755152344703674
1733512868108343300,9.80434326171875,0.13329192996025085,0.6658587455749512,-0.3402596712112427
1733512868118418200,9.814418212890626,0.09941798448562622,-0.10184665769338608,-0.773649275302887
1733512868128494300,9.824494384765625,0.11710856109857559,-0.8313733339309692,-1.018111228942871
1733512868138569500,9.834569580078124,0.09279891103506088,-1.4266074895858765,-1.1181104183197021
1733512868148644000,9.84464404296875,-0.005517537239938974,-1.8136245012283325,-1.0796881914138794
1733512868158719200,9.85471923828125,-0.18324404954910278,-1.9544771909713745,-0.9042800664901733
1733512868168794000,9.864794189453125,-0.4110087752342224,-1.8762503862380981,-0.6076417565345764
1733512868178869200,9.874869140625,-0.625045657157898,-1.5877397060394287,-0.219136580824852
1733512868188945400,9.8849453125,-0.7603302597999573,-1.11773681640625,0.1514662504196167
1733512868199020000,9.89502001953125,-0.8000404238700867,-0.6049460172653198,0.41375014185905457
1733512868209095200,9.90509521484375,-0.7590003609657288,-0.14870601892471313,0.5350896120071411
1733512868219170300,9.91517041015625,-0.6854097843170166,0.20058530569076538,0.5328751802444458
1733512868229245200,9.9252451171875,-0.6265137195587158,0.5239266157150269,0.4539251923561096
1733512868239320300,9.9353203125,-0.5901150703430176,0.8473638296127319,0.3418133556842804
1733512868249395500,9.9453955078125,-0.5762069821357727,1.0833476781845093,0.24838538467884064
1733512868259471000,9.95547119140625,-0.5733429193496704,1.1685820817947388,0.17888179421424866
1733512868269546200,9.965546142578125,-0.571442186832428,1.0816775560379028,0.12697598338127136
1733512868279621400,9.975621337890624,-0.545704185962677,0.9325221180915833,0.06528624892234802
1733512868289696300,9.9856962890625,-0.5071975588798523,0.8185758590698242,-0.014936154708266258
1733512868299771400,9.995771484375,-0.46135973930358887,0.7684677243232727,-0.1036442220211029
1733512868309846300,10.00584619140625,-0.410770058631897,0.7100406289100647,-0.21344341337680817
1733512868319922200,10.015922119140624,-0.35701602697372437,0.537269115447998,-0.3297034502029419
1733512868329997300,10.025997314453125,-0.29341626167297363,0.21789807081222534,-0.4318157136440277
1733512868340072200,10.036072265625,-0.23631948232650757,-0.1241980493068695,-0.503622829914093
1733512868350147300,10.046147216796875,-0.20284567773342133,-0.42242440581321716,-0.4832128584384918
1733512868360222500,10.056222412109374,-0.19615864753723145,-0.5866385698318481,-0.3968678414821625
1733512868370297000,10.066297119140625,-0.1944129467010498,-0.5645444393157959,-0.2851804494857788
1733512868380372200,10.076372314453126,-0.18931257724761963,-0.36555442214012146,-0.16849710047245026
1733512868390448400,10.086448486328125,-0.18700973689556122,-0.05328094959259033,-0.043190572410821915
1733512868400523300,10.096523193359374,-0.18638606369495392,0.33623525500297546,0.07991886883974075
1733512868410598400,10.106598388671875,-0.19245754182338715,0.7730557322502136,0.18276989459991455
1733512868420673300,10.11667333984375,-0.21397165954113007,1.1934678554534912,0.26765093207359314
1733512868430748200,10.126748046875,-0.25731033086776733,1.5446586608886719,0.32142841815948486
1733512868440823300,10.1368232421875,-0.3247261345386505,1.7302165031433105,0.3605344891548157
1733512868450899500,10.1468994140625,-0.4078143835067749,1.6857409477233887,0.40447983145713806
1733512868460974300,10.156974365234374,-0.47167542576789856,1.4535059928894043,0.42521777749061584
1733512868471049200,10.16704931640625,-0.48742055892944336,1.1384172439575195,0.3525316119194031
1733512868481124000,10.1771240234375,-0.4345201253890991,0.7792510390281677,0.17704732716083527
1733512868491199200,10.18719921875,-0.37494707107543945,0.5848019123077393,-0.0369991809129715
1733512868501274400,10.1972744140625,-0.40488263964653015,0.5113122463226318,-0.23392637073993683
1733512868511349200,10.207349365234375,-0.4909392297267914,0.45439034700393677,-0.3901713490486145
1733512868521425200,10.217425048828124,-0.5897421836853027,0.3890921473503113,-0.5020551681518555
1733512868531500300,10.227500244140625,-0.66248619556427,0.2748025953769684,-0.559326171875
1733512868541575200,10.2375751953125,-0.6469705104827881,0.08087605983018875,-0.5647278428077698
1733512868551650300,10.247650390625,-0.5189193487167358,-0.24581284821033478,-0.5543553829193115
1733512868561724700,10.257724609375,-0.28496113419532776,-0.7045365571975708,-0.5538791418075562
1733512868571799800,10.2677998046875,0.01613507978618145,-1.2853724956512451,-0.5645480155944824
1733512868581875700,10.277875732421874,0.34291592240333557,-1.996872067451477,-0.5507521629333496
1733512868591950600,10.28795068359375,0.6129090189933777,-2.8860678672790527,-0.40971970558166504
1733512868602025700,10.298025634765626,0.7784899473190308,-3.6567013263702393,-0.25970548391342163
1733512868612100900,10.308100830078125,0.777278482913971,-3.5568907260894775,-0.6755232214927673
1733512868622175700,10.31817578125,0.6022029519081116,-2.4365522861480713,-1.6178882122039795
1733512868632251000,10.3282509765625,0.36737367510795593,-1.397934913635254,-2.2883944511413574
1733512868642325800,10.33832568359375,0.1899188756942749,-0.9778966307640076,-2.422034502029419
1733512868652401700,10.348401611328125,0.09907311946153641,-0.8758552074432373,-2.0439512729644775
1733512868662476800,10.358476806640626,0.13017311692237854,-0.7588478326797485,-1.3035417795181274
1733512868672551700,10.3685517578125,0.24862094223499298,-0.3878071904182434,-0.5360341668128967
1733512868682626800,10.378626708984376,0.4576665759086609,0.3524204194545746,0.06377357989549637
1733512868692701700,10.38870166015625,0.7107816934585571,1.5746846199035645,0.3882419168949127
1733512868702776600,10.398776611328126,0.9964208602905273,2.7581570148468018,0.5123520493507385
1733512868712852700,10.408852783203125,1.2910010814666748,3.5311436653137207,0.47048842906951904
1733512868722927900,10.418927978515624,1.63485586643219,4.039638042449951,0.4319552481174469
1733512868733002800,10.429002685546875,1.885890245437622,4.571124076843262,0.3639189600944519
1733512868743077600,10.43907763671875,1.9230130910873413,4.994128227233887,0.2427195906639099
1733512868753152500,10.449152587890625,1.7439640760421753,5.178658962249756,0.1036170944571495
1733512868763227600,10.4592275390625,1.4164081811904907,5.067684173583984,-0.03791797533631325
1733512868773303800,10.4693037109375,0.9957178831100464,4.604689598083496,-0.2387075424194336
1733512868783379000,10.47937890625,0.6360287070274353,3.516319513320923,-0.8669659495353699
1733512868793453600,10.48945361328125,0.44419345259666443,1.4733670949935913,-2.026217222213745
1733512868803528700,10.49952880859375,0.17422020435333252,-0.20710904896259308,-2.80251145362854
1733512868813603600,10.509603515625,-0.13917526602745056,-1.1363991498947144,-2.9653027057647705
1733512868823678700,10.5196787109375,-0.3990984559059143,-1.5890496969223022,-2.686497449874878
1733512868833753900,10.52975390625,-0.48582911491394043,-1.7718877792358398,-2.223987340927124
1733512868843829500,10.53982958984375,-0.41416099667549133,-1.8956269025802612,-1.7125622034072876
1733512868853904600,10.549904541015625,-0.3015899658203125,-2.067080497741699,-1.2814966440200806
1733512868863979800,10.559979736328126,-0.32480886578559875,-2.305840492248535,-1.0325738191604614
1733512868874054700,10.5700546875,-0.49048465490341187,-2.54422664642334,-0.9793398380279541
1733512868884129800,10.5801298828125,-0.6441782116889954,-2.691189765930176,-1.000728964805603
1733512868894204700,10.59020458984375,-0.6945273876190186,-2.6646835803985596,-0.9493048787117004
1733512868904280600,10.600280517578126,-0.6269044280052185,-2.450448989868164,-0.8098317980766296
1733512868914355700,10.610355712890625,-0.5319927930831909,-2.0942726135253906,-0.6208062171936035
1733512868924430600,10.6204306640625,-0.4671475887298584,-1.6956084966659546,-0.44042062759399414
1733512868934505700,10.630505615234375,-0.44071224331855774,-1.3482532501220703,-0.31377291679382324
1733512868944580900,10.640580810546876,-0.4426167905330658,-1.094127893447876,-0.26107993721961975
1733512868954655700,10.65065576171875,-0.46162137389183044,-0.9477494359016418,-0.292852520942688
1733512868964731600,10.660731689453126,-0.47807127237319946,-0.8837006092071533,-0.40203675627708435
1733512868974806800,10.670806884765625,-0.46507105231285095,-0.852950930595398,-0.5688624978065491
1733512868984881700,10.680881591796876,-0.3885958790779114,-0.8106385469436646,-0.7248495221138
1733512868994956800,10.690956787109375,-0.32949182391166687,-0.7704527974128723,-0.8283718824386597
1733512869005032000,10.701031982421876,-0.2063557505607605,-0.6858446002006531,-1.0107544660568237
1733512869015106600,10.7111064453125,-0.06772144138813019,-0.529172956943512,-1.3102072477340698
1733512869025181700,10.721181640625,0.04124409705400467,-0.3882119059562683,-1.6870970726013184
1733512869035257900,10.7312578125,0.10791207104921341,-0.344673752784729,-2.073885917663574
1733512869045332700,10.741332763671876,0.1439959704875946,-0.41126811504364014,-2.376687526702881
1733512869055407900,10.751407958984375,0.21420647203922272,-0.6045547723770142,-2.4832613468170166
1733512869065482500,10.761482421875,0.36055266857147217,-0.8282008767127991,-2.3648924827575684
1733512869075557600,10.7715576171875,0.5581416487693787,-1.0155177116394043,-2.020083427429199
1733512869085632800,10.7816328125,0.7101417779922485,-1.078080415725708,-1.4452707767486572
1733512869095708700,10.791708740234375,0.7310510277748108,-0.8968768119812012,-0.7026110887527466
1733512869105783800,10.80178369140625,0.6335426568984985,-0.4768695831298828,0.09250052273273468
1733512869115858700,10.811858642578125,0.5034757852554321,0.03221575543284416,0.7700060606002808
1733512869125933600,10.82193359375,0.37225744128227234,0.5769038796424866,1.3028844594955444
1733512869136008700,10.8320087890625,0.24480174481868744,1.1906216144561768,1.798000454902649
1733512869146083800,10.842083740234376,0.05267636477947235,1.7771013975143433,2.2664499282836914
1733512869156159700,10.85215966796875,-0.3154025971889496,2.066312551498413,2.579077959060669
1733512869166234600,10.862234619140626,-0.8066692352294922,1.7540600299835205,2.6256320476531982
1733512869176309800,10.872309814453125,-1.1954941749572754,0.993607759475708,2.486416816711426
1733512869186384600,10.882384521484376,-1.3532136678695679,0.15641875565052032,2.3514628410339355
1733512869196459800,10.892459716796875,-1.367266058921814,-0.56833416223526,2.255936622619629
1733512869206534700,10.90253466796875,-1.25419282913208,-1.1238459348678589,2.2450568675994873
1733512869216609800,10.91260986328125,-1.1118940114974976,-1.5800658464431763,2.2955026626586914
1733512869226685700,10.922685791015626,-1.0579662322998047,-1.9022363424301147,2.2600669860839844
1733512869236760600,10.932760498046875,-1.0889246463775635,-2.0499017238616943,2.0506653785705566
1733512869246835700,10.942835693359376,-1.1389527320861816,-2.0477328300476074,1.744262456893921
1733512869256910800,10.952910888671875,-1.2015223503112793,-1.95052170753479,1.4623180627822876
1733512869266985700,10.96298583984375,-1.1676119565963745,-1.7799943685531616,1.3368198871612549
1733512869277060900,10.973060791015625,-1.0233913660049438,-1.6673431396484375,1.426701307296753
1733512869287136800,10.98313671875,-0.7950049042701721,-1.4542768001556396,1.5705010890960693
1733512869297211600,10.993211669921875,-0.46966248750686646,-1.0140947103500366,1.6588882207870483
1733512869307286800,11.003286865234376,0.002370222005993128,-0.47617632150650024,1.6624139547348022
1733512869317362000,11.01336181640625,0.4894282817840576,0.06517854332923889,1.6675010919570923
1733512869327436800,11.023436767578126,0.8349336385726929,0.6635903120040894,1.761358380317688
1733512869337511700,11.03351171875,1.0338690280914307,1.0731393098831177,1.8938056230545044
1733512869347587800,11.043587890625,1.1133126020431519,1.436682939529419,2.0226738452911377
1733512869357662700,11.053662841796875,1.067958950996399,1.7399001121520996,2.067040205001831
1733512869367737900,11.06373779296875,0.9546184539794922,1.9857829809188843,1.9728962182998657
1733512869377812700,11.073812744140625,0.8332030773162842,2.033325433731079,1.7148542404174805
1733512869387887600,11.0838876953125,0.7530638575553894,1.8301420211791992,1.3007959127426147
1733512869397962800,11.093962646484375,0.6737304329872131,1.3869600296020508,0.7979405522346497
1733512869408037600,11.10403759765625,0.5175967216491699,0.7574986815452576,0.3372753858566284
1733512869418113800,11.11411376953125,0.2998177707195282,0.035958632826805115,-0.018787918612360954
1733512869428189000,11.12418896484375,0.05877327173948288,-0.6324355602264404,-0.2467198222875595
1733512869438263600,11.134263671875,-0.1745619773864746,-1.1098220348358154,-0.3845876455307007
1733512869448338700,11.144338623046876,-0.38870325684547424,-1.3553653955459595,-0.4678440988063812
1733512869458413800,11.154413818359375,-0.571281909942627,-1.4139983654022217,-0.5018680691719055
1733512869468488700,11.16448876953125,-0.7141000032424927,-1.3745745420455933,-0.4494462311267853
1733512869478564900,11.17456494140625,-0.828082799911499,-1.3205474615097046,-0.28000155091285706
1733512869488639700,11.1846396484375,-0.9225223064422607,-1.1745058298110962,0.0032334935385733843
1733512869498714600,11.194714599609375,-0.9571271538734436,-0.7955098152160645,0.28991904854774475
1733512869508789800,11.204789794921876,-0.9406120181083679,-0.24691982567310333,0.5187492370605469
1733512869518864600,11.21486474609375,-0.8769907355308533,0.3488524854183197,0.6701586842536926
1733512869528939800,11.224939697265626,-0.7895026206970215,0.8859876394271851,0.7517068982124329
1733512869539015700,11.235015625,-0.7020923495292664,1.3314414024353027,0.7625874876976013
1733512869549090600,11.245090576171876,-0.6370751261711121,1.6083744764328003,0.737711489200592
1733512869559166000,11.255166015625,-0.5931726098060608,1.695312261581421,0.6910398602485657
1733512869569241000,11.265240966796876,-0.578204333782196,1.5841588973999023,0.6318479776382446
1733512869579316000,11.27531591796875,-0.5768463611602783,1.3356162309646606,0.5356324911117554
1733512869589391000,11.28539111328125,-0.5816524028778076,1.01915442943573,0.40194228291511536
1733512869599466000,11.295466064453125,-0.5762549638748169,0.686806321144104,0.23466035723686218
1733512869609542100,11.305542236328124,-0.5488015413284302,0.4098080098628998,0.045517828315496445
1733512869619617000,11.315616943359375,-0.4896940290927887,0.1853511780500412,-0.16059619188308716
1733512869629692200,11.325692138671876,-0.38127580285072327,0.026278767734766006,-0.397287517786026
1733512869639767000,11.33576708984375,-0.21628203988075256,-0.02815624512732029,-0.64719557762146
1733512869649842000,11.345842041015626,-0.02974923700094223,0.025470329448580742,-0.8983460664749146
1733512869659917000,11.3559169921875,0.13791513442993164,0.16363753378391266,-1.1460683345794678
1733512869669993000,11.365992919921876,0.2839910387992859,0.31637659668922424,-1.3884162902832031
1733512869680068000,11.376068115234375,0.4017624258995056,0.46879491209983826,-1.5099560022354126
1733512869690143200,11.386143310546874,0.42049649357795715,0.5007123351097107,-1.225177526473999
1733512869700217900,11.3962177734375,0.3852146565914154,0.5848157405853271,-0.716745138168335
1733512869710293000,11.40629296875,0.37923625111579895,0.823056697845459,-0.3867468535900116
1733512869720367900,11.416367919921875,0.38406428694725037,0.8604232668876648,-0.25862136483192444
1733512869730444000,11.426444091796874,0.34430402517318726,0.5387311577796936,-0.21810996532440186
1733512869740519200,11.436519287109375,0.26995018124580383,0.09774498641490936,-0.24400760233402252
1733512869750593800,11.44659375,0.19417621195316315,-0.18531866371631622,-0.3115648329257965
1733512869760669000,11.4566689453125,0.140952929854393,-0.23349684476852417,-0.35184621810913086
1733512869770744000,11.466744140625,0.09989739954471588,-0.14770567417144775,-0.3291415572166443
1733512869780819000,11.47681884765625,0.06234550103545189,-0.12768295407295227,-0.23619697988033295
1733512869790895000,11.48689501953125,0.04318786412477493,-0.24397364258766174,-0.08797231316566467
1733512869800970000,11.496969970703125,0.08134058117866516,-0.5248982906341553,0.08965174108743668
1733512869811044900,11.507044921875,0.1348273605108261,-0.9639132022857666,0.3505464196205139
1733512869821120000,11.5171201171875,0.23508977890014648,-1.5245530605316162,0.6390575170516968
1733512869831195100,11.527195068359376,0.3851354718208313,-1.9893364906311035,0.7747548818588257
1733512869841270000,11.53727001953125,0.4772973656654358,-2.1361441612243652,0.6320512890815735
1733512869851346000,11.547345947265624,0.43220987915992737,-2.0307669639587402,0.3634430468082428
1733512869861421000,11.557421142578125,0.2353263646364212,-1.575023889541626,0.12868964672088623
1733512869871496000,11.567495849609376,0.06062387675046921,-0.6002143621444702,-0.15023531019687653
1733512869881571000,11.577571044921875,0.029512828215956688,0.8003848791122437,-0.49546194076538086
1733512869891646000,11.58764599609375,0.0967467874288559,2.310783624649048,-0.7804127335548401
1733512869901721000,11.59772119140625,0.2005416303873062,3.5578534603118896,-0.9773998260498047
1733512869911796000,11.6077958984375,0.3278927505016327,4.326949596405029,-1.0294908285140991
1733512869921872000,11.617871826171875,0.4839300215244293,4.421942710876465,-0.894415557384491
1733512869931947000,11.627947021484376,0.6752447485923767,3.8383758068084717,-0.6398624777793884
1733512869942022100,11.638022216796875,0.9256609678268433,2.8292417526245117,-0.3440753221511841
1733512869952097000,11.648096923828126,1.112289309501648,1.8075065612792969,-0.19653825461864471
1733512869962172000,11.658171875,1.1439378261566162,1.191711187362671,-0.27012351155281067
1733512869972247000,11.6682470703125,1.0676604509353638,0.7832002639770508,-0.4339998960494995
1733512869982323000,11.678322998046875,0.900712251663208,0.33479318022727966,-0.6295725703239441
1733512869992398000,11.688398193359374,0.7231951951980591,-0.07580843567848206,-0.7920514345169067
1733512870002473200,11.69847314453125,0.6022853255271912,-0.43021684885025024,-0.9936639070510864
1733512870012548000,11.708548095703126,0.5988057851791382,-1.0549817085266113,-1.494404911994934
1733512870022623000,11.718623046875,0.5539922118186951,-1.8435364961624146,-2.20977783203125
1733512870032697900,11.72869775390625,0.4037024974822998,-2.440459966659546,-2.763538360595703
1733512870042774000,11.73877392578125,0.25610852241516113,-2.6787900924682617,-2.973074197769165
1733512870052849200,11.74884912109375,0.17249707877635956,-2.586735963821411,-2.855695962905884
1733512870062924000,11.758924072265625,0.14044193923473358,-2.263521194458008,-2.490750789642334
1733512870072999000,11.7689990234375,0.12762808799743652,-1.8044195175170898,-2.0202155113220215
1733512870083074000,11.779073974609375,0.1104525700211525,-1.2666172981262207,-1.566204309463501
1733512870093149000,11.78914892578125,0.05642366781830788,-0.7842690944671631,-1.1776806116104126
1733512870103225000,11.79922509765625,-0.0554293654859066,-0.4063367247581482,-0.8776640295982361
1733512870113300000,11.809300048828124,-0.2526620924472809,-0.08430634438991547,-0.6970834136009216
1733512870123374800,11.819374755859375,-0.46190133690834045,0.2570328712463379,-0.6060805320739746
1733512870133450000,11.829449951171876,-0.5863460302352905,0.568593442440033,-0.5183836817741394
1733512870143525000,11.839525146484375,-0.6098987460136414,0.823157012462616,-0.4019071161746979
1733512870153600000,11.84960009765625,-0.5607302188873291,0.9949778914451599,-0.25157466530799866
1733512870163676000,11.859676025390625,-0.4889175295829773,1.0859253406524658,-0.054259710013866425
1733512870173751000,11.8697509765625,-0.46243801712989807,1.1168055534362793,0.17567197978496552
1733512870183826000,11.879825927734375,-0.48379790782928467,1.0645625591278076,0.41805824637413025
1733512870193901000,11.889901123046876,-0.5335731506347656,0.931926965713501,0.6423925161361694
1733512870203976000,11.899975830078125,-0.5763397812843323,0.7143323421478271,0.8378024697303772
1733512870214051000,11.910051025390626,-0.6016845703125,0.42014825344085693,0.9523184895515442
1733512870224126200,11.920126220703125,-0.5963408946990967,0.026396432891488075,0.9170947074890137
1733512870234201900,11.930201904296876,-0.5491807460784912,-0.40193864703178406,0.6575667858123779
1733512870244277000,11.940277099609375,-0.4782504141330719,-0.6461851000785828,0.21099840104579926
1733512870254352100,11.95035205078125,-0.43275609612464905,-0.7886737585067749,-0.3248465955257416
1733512870264427000,11.960427001953125,-0.4618290364742279,-0.8973778486251831,-0.767343282699585
1733512870274502100,11.970502197265626,-0.4578370153903961,-1.034367322921753,-1.1815224885940552
1733512870284577000,11.980576904296875,-0.4244340658187866,-1.1455318927764893,-1.5412732362747192
1733512870294653000,11.99065283203125,-0.3562788963317871,-1.2283450365066528,-1.8907874822616577
1733512870304728000,12.00072802734375,-0.18670901656150818,-1.3075445890426636,-2.2041990756988525
1733512870314803200,12.01080322265625,0.11691386997699738,-1.4742863178253174,-2.4006755352020264
1733512870324878000,12.020878173828125,0.5197787284851074,-1.6659032106399536,-2.315983533859253
1733512870334953000,12.030952880859376,0.9124875664710999,-1.7753711938858032,-1.8918230533599854
1733512870345027800,12.04102783203125,1.093213677406311,-1.64024019241333,-1.227171778678894
1733512870355104000,12.05110400390625,1.0518484115600586,-1.140234112739563,-0.48945170640945435
1733512870365179100,12.06117919921875,0.933091938495636,-0.30343395471572876,0.15786075592041016
1733512870375254000,12.07125390625,0.8254949450492859,0.7292478680610657,0.6178015470504761
1733512870385329000,12.081328857421875,0.6607768535614014,1.7586021423339844,0.8524342775344849
1733512870395404000,12.091404052734376,0.4038073420524597,2.5440266132354736,0.8809806108474731
1733512870405479000,12.10147900390625,0.036983806639909744,2.882606029510498,0.7143809795379639
1733512870415555000,12.11155517578125,-0.34459933638572693,2.6274101734161377,0.409658282995224
1733512870425630200,12.121630126953125,-0.5814329385757446,1.868351697921753,0.1208757758140564
1733512870435704800,12.131704833984376,-0.7593420147895813,0.9356535077095032,-0.011671995744109154
1733512870445780000,12.141780029296875,-0.9629763960838318,0.04519448056817055,0.04114141687750816
1733512870455855000,12.151855224609376,-1.15912926197052,-0.7064516544342041,0.23614594340324402
1733512870465930000,12.161929931640625,-1.3024132251739502,-1.2980225086212158,0.4146917164325714
1733512870476006100,12.172006103515624,-1.407137393951416,-1.7521648406982422,0.45319798588752747
1733512870486081000,12.1820810546875,-1.4062366485595703,-1.8269439935684204,0.6179206371307373
1733512870496156000,12.192156005859376,-1.2260847091674805,-1.5143842697143555,1.0702425241470337
1733512870506231000,12.20223095703125,-0.8987249135971069,-1.1613966226577759,1.7242335081100464
1733512870516306000,12.212305908203126,-0.5248262286186218,-1.0088399648666382,2.376809597015381
1733512870526381000,12.222381103515625,-0.2087779939174652,-0.9775943756103516,2.9087605476379395
1733512870536457000,12.23245703125,0.006098891142755747,-0.9964027404785156,3.286929130554199
1733512870546531800,12.24253173828125,0.13095320761203766,-1.0540152788162231,3.5424437522888184
1733512870556607000,12.25260693359375,0.23554877936840057,-1.1438040733337402,3.699826240539551
1733512870566681900,12.262681884765625,0.3956092596054077,-1.1756011247634888,3.778311014175415
1733512870576756700,12.2727568359375,0.6462825536727905,-0.9514774680137634,3.820854902267456
1733512870586832000,12.282831787109375,0.8736685514450073,-0.41095587611198425,3.825394630432129
1733512870596907800,12.29290771484375,0.9778475165367126,0.4850459098815918,3.766446590423584
1733512870606982700,12.302982666015625,0.8896111249923706,1.2303205728530884,3.5577309131622314
1733512870617057800,12.313057861328126,0.6591295003890991,1.6471456289291382,3.2021172046661377
1733512870627132700,12.323132568359375,0.38913875818252563,1.9827377796173096,2.691636800765991
1733512870637207800,12.333207763671876,0.21138541400432587,2.099626302719116,1.9870116710662842
1733512870647283000,12.343282958984375,0.16441337764263153,1.930209994316101,1.1585779190063477
1733512870657358600,12.353358642578126,0.19085544347763062,1.5285402536392212,0.39985769987106323
1733512870667433700,12.363433837890625,0.22404402494430542,0.8983734846115112,-0.16820815205574036
1733512870677508900,12.3735087890625,0.23027844727039337,0.13275276124477386,-0.5587894320487976
1733512870687583700,12.383583740234375,0.15667374432086945,-0.5706138610839844,-0.7896577715873718
1733512870697659000,12.393658935546876,0.0028162477537989616,-1.047008752822876,-0.9127020239830017
1733512870707733800,12.403733642578125,-0.19841966032981873,-1.3479355573654175,-0.9420079588890076
1733512870717809700,12.4138095703125,-0.4311889410018921,-1.570062518119812,-0.8656105995178223
1733512870727884800,12.423884765625,-0.6651428937911987,-1.7205755710601807,-0.6846743822097778
1733512870737960000,12.4339599609375,-0.8646702170372009,-1.7291176319122314,-0.4111343324184418
1733512870748034800,12.444034912109375,-1.007772445678711,-1.5248547792434692,-0.0736905112862587
1733512870758109700,12.454109619140626,-1.087436556816101,-1.0560781955718994,0.2606811821460724
1733512870768184600,12.4641845703125,-1.0924729108810425,-0.45040327310562134,0.5477073788642883
1733512870778259700,12.474259765625,-1.0557770729064941,0.21075865626335144,0.7501116394996643
1733512870788335900,12.4843359375,-1.0127220153808594,0.8431768417358398,0.8725842833518982
1733512870798410800,12.49441064453125,-0.9860444664955139,1.360028862953186,0.9295588731765747
1733512870808485600,12.504485595703125,-0.9921423196792603,1.6936752796173096,0.9284150004386902
1733512870818560800,12.514560791015626,-1.0037161111831665,1.7578437328338623,0.8921811580657959
1733512870828635600,12.5246357421875,-1.0123682022094727,1.5791184902191162,0.8386841416358948
1733512870838710800,12.534710693359376,-1.0101335048675537,1.254773736000061,0.7369686961174011
1733512870848787000,12.544786865234375,-1.0031501054763794,0.842121422290802,0.560947060585022
