time,seconds_elapsed,z,y,x
1733512858325389600,0.0213896484375,-0.08738879898712039,0.02838789009451866,0.1742627072546631
1733512858335464400,0.03146435546875,-0.019447481661289928,-0.02722936770915985,0.0898415259014815
1733512858345539600,0.04153955078125,0.04165595246851444,-0.008238836035132409,-0.02001658678613603
1733512858355614700,0.05161474609375,0.059935705524683,0.08373217617571353,-0.12851546688452362
1733512858365689600,0.061689697265625,0.0972229413896799,0.1583393811315298,-0.1768975858028978
1733512858375765500,0.071765625,0.13016601057052613,0.14558160636723042,-0.15132000388875602
1733512858385840600,0.081840576171875,0.1193833352714777,0.08238602226376533,-0.09318827904611826
1733512858395915500,0.09191552734375,0.08117080125510692,-0.029251228925585744,-0.00977832056209445
1733512858405990700,0.10199072265625,0.07328677000701427,-0.12227671862542629,0.08367394318245351
1733512858416065800,0.112065673828125,0.03800035257041454,-0.12221885095834731,0.13610709105730057
1733512858426140700,0.122140625,-0.014026771786808967,-0.07975392019450664,0.15568682079613208
1733512858436215600,0.132215576171875,-0.06123685125112533,-0.02637713479399681,0.16519180430956185
1733512858446290400,0.14229052734375,-0.13290668758079408,0.0041799160331487655,0.15989764342419802
1733512858456365600,0.152365478515625,-0.21116203978061676,0.013280337333679199,0.11019180162139236
1733512858466441700,0.162441650390625,-0.26853271712288257,0.03579845861196518,0.03876388428881764
1733512858476516600,0.1725166015625,-0.2744363882087171,0.08077157280445098,-0.03748546185083687
1733512858486591500,0.182591552734375,-0.2562204941689968,0.10107084898948669,-0.04774922784231603
1733512858496666600,0.19266650390625,-0.2138797743067145,0.05545242263078689,-0.00920044760890305
1733512858506741500,0.202741455078125,-0.172837569822371,0.038244682720303534,0.09613353871777654
1733512858516816600,0.212816650390625,-0.1413999367684126,0.009858546191453934,0.22598003501035271
1733512858526891800,0.222891845703125,-0.15967194490954278,-0.04700608132481575,0.2822195894308388
1733512858536966700,0.232966552734375,-0.17321064091846347,-0.09470365204513072,0.23366496348977087
1733512858547042600,0.24304248046875,-0.15745616855621336,-0.07838204731941223,0.060271732546016574
1733512858557117200,0.2531171875,-0.06740589527487754,-0.03415887471139431,-0.16289879800155757
1733512858567192300,0.2631923828125,-0.016936521753668783,0.019597849917411803,-0.32356844871155915
1733512858577267200,0.27326708984375,0.03627323651686311,0.03835691092312336,-0.33133331055939197
1733512858587342300,0.28334228515625,0.05685483677461743,0.033520576807856556,-0.19915917503684757
1733512858597417200,0.293417236328125,-0.004913198743760586,-0.010998948398232459,0.020357947569712997
1733512858607492000,0.3034921875,-0.07207257191166282,-0.0697825612783432,0.2145404301725328
1733512858617567200,0.313567138671875,-0.09819953133687376,-0.08895546378195285,0.2911646009739488
1733512858627642000,0.32364208984375,-0.11515022774636745,-0.04590250399708748,0.24939167106226084
1733512858637718300,0.33371826171875,-0.027549101182818413,-0.012831424522399902,0.16099939412102102
1733512858647793400,0.34379345703125,0.02800093660354614,0.0484936895340681,0.08159399510324
1733512858657868000,0.353867919921875,0.11457681177258491,0.07180091536343097,0.09808036193661392
1733512858667943200,0.363943115234375,0.12153145321607589,0.07237608490288257,0.235160462744534
1733512858678018300,0.374018310546875,0.07909531015530229,0.03585223462581634,0.37829854841716587
1733512858688093200,0.38409326171875,0.0488379729270935,-0.0033668460845947264,0.38748715945780277
1733512858698168300,0.394168212890625,0.04362228410542011,-0.005344283637404442,0.21010632018260655
1733512858708243200,0.4042431640625,0.06279197173863649,-0.027535072657465933,-0.0969130717229098
1733512858718319000,0.414319091796875,0.10940671565830706,-0.05747253028154373,-0.34148053749911483
1733512858728394200,0.424394287109375,0.15864771642833947,-0.09166413821876049,-0.4264272770963609
1733512858738469000,0.43446923828125,0.15666940209269523,-0.1204331365853548,-0.42681503430493173
1733512858748544300,0.444544189453125,0.05564648389816284,-0.12502630959451197,-0.44626331968382
1733512858758619400,0.454619384765625,-0.09568126490563153,-0.07541033803224563,-0.5063953514982015
1733512858768694300,0.4646943359375,-0.25030776299387214,-0.007363806766271591,-0.5539899733006954
1733512858778769200,0.47476904296875,-0.3303174115151167,0.013833879563212394,-0.5144682563818991
1733512858788844000,0.484843994140625,-0.34507045174986123,0.0140688573628664,-0.3658130877882242
1733512858798919200,0.494919189453125,-0.327250717420876,0.0001958148330450058,-0.10396218651682138
1733512858808995300,0.504995361328125,-0.3155545805387199,-0.007338087803125381,0.14129538041539488
1733512858819070500,0.515070556640625,-0.28035920238643885,-0.011968085691332817,0.3355781085222959
1733512858829145000,0.52514501953125,-0.3296848127000034,-0.0648719928830862,0.4762031153954565
1733512858839220200,0.53522021484375,-0.4567892437428236,-0.12461714427173137,0.5219568585716188
1733512858849295000,0.545295166015625,-0.5803256070405245,-0.08174538627266884,0.42579782008640465
1733512858859370200,0.555370361328125,-0.718266051004827,0.0622141718506813,0.18229849499836562
1733512858869445400,0.5654453125,-0.7743047490909695,0.20937574088573455,-0.152267513871938
1733512858879520300,0.575520263671875,-0.6926701297163963,0.29843057338893414,-0.47987595868930216
1733512858889595400,0.585595458984375,-0.43833413411974903,0.2441033553957939,-0.7105924476370215
1733512858899671300,0.59567138671875,-0.1877665511459112,0.0644926381766796,-0.7764129734165967
1733512858909746200,0.60574609375,0.03981850790828466,-0.17014438521564007,-0.7061021504804491
1733512858919821300,0.6158212890625,0.21778993348777292,-0.39680969907641406,-0.5664584827948361
1733512858929896200,0.625896240234375,0.30938831299394365,-0.5418862785309553,-0.3527461009442806
1733512858939971300,0.635971435546875,0.21495412553995846,-0.5405623364508152,-0.18764628576710818
1733512858950046200,0.646046142578125,0.05589855896309018,-0.41195699932575225,-0.15667239776737987
1733512858960121000,0.65612109375,0.023092267904430627,-0.23022914382219314,-0.3043197775579989
1733512858970196200,0.6661962890625,0.18094751878082752,-0.11453706428408622,-0.48314255926981564
1733512858980272400,0.6762724609375,0.22333178552389144,0.06870937908887863,-0.658705024011433
1733512858990347300,0.68634716796875,0.19054142268672583,0.2635848854571581,-0.7748509847968816
1733512859000422100,0.696422119140625,0.12357611078619957,0.40470951241552827,-0.8498248311080038
1733512859010497300,0.706497314453125,0.10905307991504669,0.4657862046688795,-0.797621181140095
1733512859020572200,0.716572265625,0.20828151590824126,0.42534255059957504,-0.5688173939459026
1733512859030647300,0.726647216796875,0.2780062095195055,0.2628735223174095,-0.216795296427235
1733512859040722200,0.73672216796875,0.19306538820639252,0.023119009780883788,0.08279920617453754
1733512859050797300,0.74679736328125,0.009981880310177802,-0.15998831738233565,0.2809727311749011
1733512859060873200,0.756873291015625,-0.1842538668498397,-0.21816811915040016,0.38627727221138775
1733512859070948000,0.766947998046875,-0.33732349088490005,-0.14985913755595684,0.3602583032052964
1733512859081023200,0.777023193359375,-0.3678068919539451,-0.01159457620382309,0.13154939122032375
1733512859091098400,0.787098388671875,-0.26379180620610715,0.13982932645082474,-0.20076365109141914
1733512859101173200,0.79717333984375,-0.1863968702279031,0.2297907524049282,-0.4479498479986563
1733512859111248100,0.807248046875,-0.17841814643368123,0.23152327528595923,-0.600451572485268
1733512859121323000,0.817322998046875,-0.18252105170786379,0.18820143543183804,-0.6444587642550468
1733512859131398100,0.827398193359375,-0.2698375161111355,0.08584405376315116,-0.5861831374296919
1733512859141473300,0.837473388671875,-0.3826651461288333,-0.05624152718186378,-0.478945363308303
1733512859151549400,0.847549560546875,-0.46568215977251526,-0.20270166994929312,-0.40530426343828435
1733512859161624300,0.857624267578125,-0.6585035100899637,-0.3212526460498571,-0.41544268601704387
1733512859171699200,0.86769921875,-0.9196411485254764,-0.3931839097946882,-0.552932098278217
1733512859181774000,0.877774169921875,-1.1502033236943185,-0.3723006962418556,-0.7625868387684226
1733512859191849200,0.88784912109375,-1.3465712605774403,-0.24272446825802324,-0.9435827267356216
1733512859201924400,0.89792431640625,-1.5085507517769932,-0.09084522305130958,-1.0445610020708291
1733512859211999200,0.907999267578125,-1.7182861197553574,0.016516835036873817,-1.0890293816115706
1733512859222074400,0.918074462890625,-1.9782512072801588,0.014223755663633346,-1.1509502696041016
1733512859232150300,0.928150390625,-2.239336969397962,-0.06286825184524059,-1.2146288149189204
1733512859242225200,0.93822509765625,-2.3250737633943555,-0.14053835150301455,-1.2743003896147012
1733512859252300300,0.94830029296875,-2.244163658902049,-0.16514730758070945,-1.298497257760167
1733512859262375200,0.958375244140625,-2.3476629040822385,-0.13530629606842995,-1.2593154403202236
1733512859272450300,0.9684501953125,-2.5416104819506407,-0.09675941553115844,-1.126456099012494
1733512859282525200,0.978525146484375,-2.467022566217184,-0.06585632774531841,-0.9891798180453478
1733512859292600000,0.98860009765625,-2.2145482728391883,-0.042832010510563845,-0.9265341959748417
1733512859302675200,0.99867529296875,-2.1281889630302784,-0.0013864859223365782,-0.8716236982010305
1733512859312750300,1.008750244140625,-2.2642513381630183,0.16443535991907118,-0.9050234981734305
1733512859322826200,1.018826171875,-2.5163354631796477,0.5363625466734171,-1.0773889935046435
1733512859332901000,1.028901123046875,-2.7683716574013233,0.9311901320219039,-1.428610515230149
1733512859342976300,1.038976318359375,-2.880365174682438,1.0924228965073823,-1.9443344707615673
1733512859353051100,1.049051025390625,-2.978440933509171,1.0631377653121947,-2.4311529420651494
1733512859363126300,1.059126220703125,-3.222442874357104,1.0169196194946766,-2.685783975085616
1733512859373201200,1.069201171875,-3.4645050793141126,1.079860936576128,-2.8003803683415054
1733512859383276300,1.0792763671875,-3.0112901869267223,1.2612813335657118,-2.939611436638236
1733512859393351400,1.089351318359375,-2.0273913780242205,1.4587415957301855,-2.939121315033734
1733512859403426000,1.099426025390625,-1.1331173104673624,1.5848346577733754,-2.655000129765272
1733512859413502200,1.109502197265625,-0.31615327708423135,1.5789304021656512,-2.1571720425389707
1733512859423577300,1.119577392578125,0.6747279380515218,1.385846455389261,-1.606183589141816
1733512859433652200,1.12965234375,1.777648847697675,1.1583826846271752,-1.061172456588596
1733512859443727400,1.139727294921875,2.598813839901984,0.6763882724791764,-0.26381215487439186
1733512859453802000,1.149802001953125,3.0853830126196145,0.10232874009609222,0.7881294224344193
1733512859463877000,1.159877197265625,3.3457115266293287,-0.47815644142031666,1.8318815192751585
1733512859473952300,1.1699521484375,3.352067909918725,-0.9979816947907209,2.7467960776701568
1733512859484027100,1.180027099609375,3.128264415229857,-1.369869134056568,3.4947982185080644
1733512859494103300,1.190103271484375,2.7846397783741352,-1.5877631124407052,3.9587779582768676
1733512859504178200,1.20017822265625,2.663428350892663,-1.6675047576755284,3.9855172043815252
1733512859514253000,1.210253173828125,2.963149548614025,-1.4635942964583635,3.39691242929548
1733512859524328200,1.220328125,3.326860987947881,-1.0223825610756874,2.292440052423626
1733512859534403300,1.2304033203125,3.4853333478093145,-0.7400994048893451,1.1197905767086893
1733512859544478200,1.240478271484375,3.398960301735997,-0.6970937913775443,-0.026438071200996636
1733512859554554000,1.25055419921875,3.1321251823112366,-0.8116559901028871,-1.0553392934557049
1733512859564629000,1.26062890625,2.802982952055335,-0.9591080665171146,-1.8623086601123213
1733512859574705000,1.270704833984375,2.508725864958763,-1.212617548161745,-2.358214108712971
1733512859584780000,1.280780029296875,2.2574916347697376,-1.5172838010698555,-2.4696043994039294
1733512859594855200,1.290855224609375,2.160995546349883,-1.8449241023302076,-2.239110321035236
1733512859604930000,1.300929931640625,2.263201536849141,-2.1654718149811027,-1.7567974905878305
1733512859615005000,1.3110048828125,2.3722303591057656,-2.4588141253203153,-1.2317185544729232
1733512859625079800,1.321079833984375,2.3931451368406416,-2.6167741517454384,-0.6989687914691866
1733512859635155000,1.331155029296875,2.3013363294541835,-2.5524849271863697,-0.1664437771320343
1733512859645230000,1.34122998046875,1.8533099456205964,-2.248677336934209,0.43883046626932914
1733512859655305000,1.351304931640625,1.0182865239337087,-1.8657137923806906,1.089971484767273
1733512859665380900,1.361380859375,0.3808721252322197,-1.527482539001107,1.6861431149110198
1733512859675456000,1.3714560546875,0.18328297599107027,-1.4053151259690522,2.064936680303514
1733512859685531000,1.38153076171875,-0.029094284798204896,-1.4020412188649176,2.3765604972645638
1733512859695606000,1.39160595703125,-0.4823173604920506,-1.4900591095358133,2.5397663153886794
1733512859705681200,1.40168115234375,-1.2088617027595638,-1.5670347971886396,2.4369921696126458
1733512859715756000,1.411756103515625,-2.6643378669530153,-1.45481653124094,2.0226015133991835
1733512859725831000,1.421830810546875,-3.3539854339778423,-1.4909721327275036,1.8312161872342227
1733512859735905800,1.43190576171875,-3.179358934912085,-1.5999930639386175,2.1138544404685495
1733512859745982000,1.44198193359375,-4.127662406559288,-1.1068968275398015,2.5656036442175507
1733512859756057000,1.45205712890625,-6.134295950976014,-0.28148411476314067,2.7849583428040146
1733512859766132000,1.462132080078125,-6.9862272528439755,0.4376262781113386,2.934558829423785
1733512859776206800,1.472206787109375,-6.328888548749685,1.5684318045049905,3.2661262409999963
1733512859786282000,1.482281982421875,-5.098731836766004,3.731886434444785,3.7804233785986896
1733512859796356900,1.49235693359375,-3.0331255866378544,6.615945495209098,4.453073925854265
1733512859806432000,1.502431884765625,-2.8001491899341344,9.871230316460132,4.95336241184473
1733512859816507000,1.5125068359375,-3.706863636869192,11.834447620737551,5.151465063565969
1733512859826582000,1.52258203125,-3.9739486394017933,10.480732333624362,4.639451945251226
1733512859836658000,1.532657958984375,-3.2680139544427393,5.050159236776828,3.4719869595021007
1733512859846732800,1.54273291015625,-2.2060493245631454,-0.32652035731971263,2.4914924060851336
1733512859856808000,1.552807861328125,-1.1520640029996634,-3.3514725743740796,1.794420826539397
1733512859866883000,1.562883056640625,-0.5911234799087047,-5.2884255565822125,1.1520780315250159
1733512859876958000,1.5729580078125,-0.11194470970332622,-6.063332655480504,0.6346985638715327
1733512859887033000,1.583033203125,0.9571674538433551,-5.523953975856304,0.048399764172919094
1733512859897108000,1.59310791015625,2.170398311597854,-4.2865673126190895,-0.6285680982924997
1733512859907182800,1.603182861328125,3.212587835296988,-3.0131618260174986,-1.6086156385943293
1733512859917259000,1.613259033203125,3.658304480883479,-1.8437497978538273,-2.664938463194668
1733512859927334100,1.623334228515625,3.5640649392187593,-0.6910697087824345,-3.2789588345661755
1733512859937409000,1.633408935546875,3.379381741040945,0.5586041890978812,-3.5571582285702226
1733512859947484000,1.64348388671875,2.9876848549336192,1.7901736904889345,-3.7070232113450765
1733512859957558800,1.653558837890625,2.395126958307624,2.7444565288066864,-3.8755259668335316
1733512859967634000,1.663634033203125,1.7941279810726642,3.420947092616558,-3.864169875560701
1733512859977709000,1.673708984375,1.439387491440773,3.7387411226451395,-3.9232279214680195
1733512859987784000,1.683783935546875,1.3034474275134502,3.5836990294933315,-3.838016320389509
1733512859997859000,1.693859130859375,1.2630758157670496,2.7335142790317533,-3.531461477255821
1733512860007935000,1.70393505859375,1.2484276972115038,1.5753881995141505,-3.0786449365362523
1733512860018009900,1.714009765625,1.147585469346121,0.558791236102581,-2.4621724958375095
1733512860028085000,1.7240849609375,0.9960762264955788,-0.2554612002342939,-2.0107151146419344
1733512860038160100,1.73416015625,0.7549469184745102,-0.7450766087800264,-1.7012604584135114
1733512860048235000,1.744235107421875,0.37753512629661706,-0.8645949686080217,-1.4387683366291224
1733512860058310100,1.75431005859375,-0.026547815185785292,-0.6952940484791994,-1.2333607687219976
1733512860068384800,1.764384765625,-0.3731120126247406,-0.42491058892309663,-1.0515431160431354
1733512860078460000,1.7744599609375,-0.5639981570959091,-0.13582768959403038,-0.8316224541369825
1733512860088536000,1.7845361328125,-0.6848124019533396,0.13329144911468027,-0.6116344260830432
1733512860098611000,1.79461083984375,-0.8012333802878856,0.27034254302382466,-0.3824459138875827
1733512860108686000,1.80468603515625,-0.9301263021826743,0.24186580560207366,-0.13258730116700754
1733512860118761000,1.814760986328125,-1.0789251170307397,0.14179448904395103,0.1255504795990884
1733512860128835800,1.8248359375,-1.228569150531292,-0.019652794975042343,0.27699856684692203
1733512860138911000,1.834910888671875,-1.3170201719224452,-0.2739981429219246,0.2860203699532896
1733512860148985900,1.84498583984375,-1.3092600593149661,-0.5938572887867689,0.19526282518543303
1733512860159061000,1.85506103515625,-1.2009610126376151,-0.8990840981870889,0.10285970516763628
1733512860169136000,1.86513623046875,-0.9809013806521892,-1.0900205115407704,0.02867870800094679
1733512860179211800,1.875211669921875,-0.6832675105988979,-1.1356903758257626,0.04605447968840599
1733512860189287000,1.885286865234375,-0.4091922107875347,-0.9410697210013866,0.09781122613903134
1733512860199362000,1.895362060546875,-0.14445524181895888,-0.6393249084979296,0.11313970990786328
1733512860209437000,1.90543701171875,0.11587561027831397,-0.3269505654305219,0.11215237937094644
1733512860219512000,1.915511962890625,0.3489771037995815,-0.023826281267404555,0.12175521550197153
1733512860229587200,1.925587158203125,0.5592682059645653,0.19020108481645584,0.11566831507002934
1733512860239661800,1.935661865234375,0.7701625347197055,0.20983692865669726,0.14376770707936956
1733512860249737000,1.945737060546875,0.9968599972844123,0.07107552369832992,0.24149052428258583
1733512860259813000,1.955813232421875,1.2075871527791022,-0.17778116370439528,0.3405325891245156
1733512860269888000,1.965887939453125,1.4149416169703006,-0.4499579364180565,0.4320129317415878
1733512860279963100,1.975963134765625,1.5418132621705531,-0.707894586855173,0.5265995332783088
1733512860290037800,1.986037841796875,1.6093723021805286,-0.9762532625854015,0.5858567915521562
1733512860300113000,1.99611279296875,1.777035391974449,-1.1410773295611143,0.5232837232612073
1733512860310188000,2.00618798828125,1.7826828963421284,-1.2713421243309975,0.5980670154362917
1733512860320263000,2.016262939453125,1.5367606549561024,-1.2484563387840986,0.7106426434542983
1733512860330338000,2.026338134765625,0.9870984086614102,-0.8971575140386819,0.7071030711513012
1733512860340414000,2.0364140625,0.17709493500590323,-0.3125163818866014,0.6604496757216751
1733512860350488800,2.04648876953125,-0.712023649483919,0.34950375802218914,0.576644178581424
1733512860360564000,2.05656396484375,-1.445469880094379,1.022055228817463,0.459539090440236
1733512860370639000,2.06663916015625,-1.9751263532578944,1.5062491968363523,0.366086132575944
1733512860380714000,2.0767138671875,-2.2761527883589268,1.8320991075485944,0.2718592129307799
1733512860390789000,2.0867890625,-2.2140485066235063,2.0331705459475518,0.19729464154029264
1733512860400864000,2.096864013671875,-2.329807221657038,1.9440403101205825,0.11373690861603244
1733512860410939000,2.10693896484375,-3.2085856139183044,1.620897320279479,0.026850268731079995
1733512860421014000,2.117013916015625,-4.378845198822021,1.662082148104906,-0.04134495029058307
1733512860431090000,2.12708984375,-5.216313091051578,1.7415584204018115,-0.15974347577579318
1733512860441165000,2.1371650390625,-5.7319093285501,1.3527531640827655,-0.2833531965706497
1733512860451240000,2.147239990234375,-6.019086101996899,0.8665256444096565,-0.32816512885205446
1733512860461314800,2.157314697265625,-6.359810925757885,0.6156488493561745,-0.3969968556789681
1733512860471390000,2.167389892578125,-6.804298906332254,0.7391577401250601,-0.6415940224736929
1733512860481464800,2.17746484375,-7.125842059761285,1.6036445721834898,-1.0294768301855772
1733512860491540000,2.1875400390625,-7.024316452741623,3.5036493412226437,-1.5582430034458636
1733512860501615000,2.197614990234375,-6.548827769225835,5.760118354946375,-2.079097599864006
1733512860511690800,2.207690673828125,-5.906981817817687,7.064606962075829,-2.4803274534702298
1733512860521766000,2.217765869140625,-5.034940624856948,6.867440714421868,-2.7356159274861214
1733512860531841000,2.227841064453125,-4.143211273346841,5.370864185816049,-2.7077415398716926
1733512860541916000,2.237916015625,-3.4395138459205628,3.437158807227015,-2.343886162022501
1733512860551990500,2.247990478515625,-2.9141666142582894,1.9051789568066595,-1.7259712674304841
1733512860562065700,2.258065673828125,-2.359245059195906,1.0621242043554782,-1.0515597018517553
1733512860572140800,2.268140869140625,-1.6273616939879954,0.599289835229516,-0.46344833630584176
1733512860582215400,2.27821533203125,-0.8333050734616816,0.27093583274185656,-0.016001104067079722
1733512860592290600,2.28829052734375,-0.14396547640748322,-0.07654606406390667,0.269810335843265
1733512860602366700,2.29836669921875,0.24621925157122312,-0.49820963388979433,0.45910471761096266
1733512860612441600,2.308441650390625,0.45048510209731757,-0.9900497327476739,0.7275866178620606
1733512860622516700,2.318516845703125,0.5979717383682728,-1.5070587596535683,1.1159667075715958
1733512860632591400,2.32859130859375,0.8775193321108817,-1.7867103982925414,1.4036086143121123
1733512860642666500,2.33866650390625,1.1761737773835659,-2.0014099645495413,1.5820010417826473
1733512860652741600,2.34874169921875,1.6060826129853725,-2.067851398706436,1.5343252445027231
1733512860662816500,2.35881640625,2.210619701218605,-1.914338999339938,1.2334177596062421
1733512860672891600,2.3688916015625,2.8541344626218077,-1.5858932269155979,0.848035901864618
1733512860682967600,2.378967529296875,3.4858781222105026,-0.995825393539667,0.28586010135766116
1733512860693042400,2.38904248046875,4.108246635210514,-0.09211772720515728,-0.5418912104343995
1733512860703117600,2.39911767578125,4.664743622896075,0.942930254176259,-1.1681674349300564
1733512860713192700,2.409192626953125,5.2322050721883775,1.9125275660037993,-1.612098220013082
1733512860723267600,2.419267578125,5.7063166221320625,2.6324527823925017,-2.0916165974363685
1733512860733342700,2.4293427734375,5.817112161800265,2.884203437671065,-2.5689348344668743
1733512860743417600,2.43941748046875,5.626542243671417,2.642652104845643,-3.1814310650110245
1733512860753492500,2.449492431640625,5.162829922667146,2.0989964785546062,-4.0591234156012534
1733512860763568600,2.459568603515625,4.516972397530079,1.3604320281475781,-4.668530155697464
1733512860773643500,2.4696435546875,3.8999686264336106,0.42426995293200015,-4.991730428683757
1733512860783718700,2.47971875,3.3712136321544643,-0.543714663001895,-5.124748321554065
1733512860793793800,2.489793701171875,2.9090479560703035,-1.384742878061533,-5.109029943418503
1733512860803868400,2.499868408203125,2.5222195527821776,-1.9499211848527191,-4.767174946583808
1733512860813943600,2.509943603515625,2.1396640045076607,-2.1552631401777265,-4.179191810527444
1733512860824018400,2.520018310546875,1.9542992538064716,-1.9811989511698482,-3.3824490196570753
1733512860834093600,2.530093505859375,1.8792074802041052,-1.6609750636458396,-2.3422172058969735
1733512860844169700,2.540169677734375,1.824675095027685,-1.3399240776479244,-1.2924087316267192
1733512860854244600,2.55024462890625,1.737708174714446,-1.0722598139226436,-0.3369826415579766
1733512860864319500,2.560319580078125,1.624683268558979,-0.793908736488223,0.47264092940185215
1733512860874394600,2.57039453125,1.5868717165589332,-0.46975452377796173,1.178526697185263
1733512860884469500,2.580469482421875,1.6375561941355465,-0.24424890134632585,1.7070730902150273
1733512860894544600,2.590544677734375,1.7588585147708653,-0.0846791016370058,2.065836551752686
1733512860904619800,2.600619873046875,1.8221295021980999,0.08862053273916244,2.3333668138347563
1733512860914694700,2.610694580078125,1.7407903586387634,0.123774848228693,2.4858397871509195
1733512860924769500,2.62076953125,1.6672808857917785,0.07305705290436744,2.473134327095747
1733512860934845700,2.630845703125,1.465105870065093,-0.02269406236708164,2.396304477654397
1733512860944920600,2.640920654296875,1.0633604681521653,-0.2961263880997896,2.4085014036655426
1733512860954995700,2.65099560546875,0.6814198369055986,-0.6138251410603522,2.488373105020821
1733512860965070600,2.661070556640625,0.1268774904191494,-0.7330459792464971,2.648750421720743
1733512860975145500,2.6711455078125,-0.6101958446472883,-0.49496553740203375,2.8984420986428856
1733512860985220600,2.681220703125,-1.4932476764440537,-0.02995557780265808,3.5070512586206197
1733512860995295500,2.69129541015625,-2.5199019234895705,0.3513321424931288,4.419076963706314
1733512861005370600,2.70137060546875,-4.011606462144852,0.5980500643014908,5.441791240954399
1733512861015445800,2.71144580078125,-7.327861008143424,0.7147025133043527,6.472495055651664
1733512861025521400,2.721521484375,-12.730839995622635,0.6530623419493436,6.787836431831121
1733512861035596500,2.731596435546875,-12.250593303924799,-0.03833060743808746,4.968181210792064
1733512861045671700,2.741671630859375,-7.981316733324527,-1.4107429962366818,3.6300317416012287
1733512861055746600,2.75174658203125,-5.326806432902813,-2.24059924441874,2.538072955474257
1733512861065821700,2.76182177734375,-3.773315007898211,-2.351475448107719,1.538002325580269
1733512861075896600,2.771896484375,-2.3895488659143447,-1.8838222805231808,0.9833261235810816
1733512861085971700,2.7819716796875,-1.2790630739718676,-0.7171762099415063,0.8946103868391364
1733512861096047600,2.792047607421875,-0.1488098476987332,0.9495897120654583,0.7361165457982569
1733512861106122500,2.80212255859375,2.0168144544303415,2.5777526394337413,0.1772120585795492
1733512861116197600,2.81219775390625,5.659346196642518,4.229266631773114,-0.48785263665691014
1733512861126272800,2.822272705078125,9.266589183330534,5.277140192458034,-1.5559309271112083
1733512861136347600,2.83234765625,11.681771672195195,5.097608385694027,-3.0560496583685275
1733512861146422500,2.842422607421875,10.942599319022893,4.205874065747857,-4.321407155331969
1733512861156497400,2.852497314453125,8.647284149554372,3.4103578940629955,-4.72240027757287
1733512861166572500,2.862572509765625,6.528405158922076,1.7151655035167932,-4.2818791548028585
1733512861176647700,2.872647705078125,5.998757599717378,-0.5075543853402138,-4.549526467393338
1733512861186723600,2.8827236328125,6.718918378427625,-3.1574411176145074,-6.173901985177397
1733512861196798500,2.892798583984375,6.570542172905802,-4.980731480285525,-7.416659820058942
1733512861206873600,2.90287353515625,4.529654184448718,-4.790275543925166,-6.198332662078738
1733512861216948500,2.912948486328125,1.4802864880621431,-2.4746768803626296,-4.43971233997792
1733512861227023600,2.923023681640625,-0.542504118168354,0.2163140157163143,-3.6972833230972286
1733512861237098800,2.9330986328125,-1.8598294105172155,1.9604963548809289,-3.3570734631210564
1733512861247173600,2.943173583984375,-2.5417057590186594,3.2377029873311516,-3.4432752442806955
1733512861257248800,2.953248779296875,-2.9026959566950796,3.915134631383419,-3.8451802206695076
1733512861267324700,2.96332470703125,-2.9087866747856137,3.8861902764499185,-4.291465021532773
1733512861277399600,2.973399658203125,-2.6322353402495384,3.2136750460118053,-4.437598416563868
1733512861287474700,2.983474609375,-2.3334406097233296,2.2074130141317845,-4.472353503602743
1733512861297549600,2.993549560546875,-2.350769637925923,1.3393787187248467,-4.697811779761314
1733512861307624700,3.003624755859375,-2.7674294081151483,0.5123772754520177,-5.081116100576519
1733512861317699600,3.013699462890625,-3.225486479836702,-0.44197745905816554,-5.581555100953579
1733512861327774500,3.0237744140625,-3.4231612615346907,-1.3280010001420974,-5.68446427128613
1733512861337849600,3.033849609375,-3.431372625041008,-1.9760171646177767,-5.424390024298429
1733512861347925800,3.04392578125,-3.285810307896137,-2.2748732699424026,-4.899112058480084
1733512861358000600,3.054000732421875,-3.0895091526389122,-2.088869636815786,-3.9967631132781505
1733512861368075500,3.064075439453125,-3.036716596867144,-1.6368845784842967,-2.914901942795515
1733512861378150700,3.074150634765625,-3.0319840153872963,-1.2182494165688753,-1.8976164125978945
1733512861388225500,3.0842255859375,-2.9514965202212333,-0.8702356048434973,-1.1586999338828026
1733512861398300700,3.09430078125,-2.8368881442666054,-0.5369412233442068,-0.6217871329154819
1733512861408375600,3.10437548828125,-2.6359832946062087,-0.11139409008324146,-0.17609196850843725
1733512861418450700,3.11445068359375,-2.2823956282712516,0.4704939439684152,0.264131048097834
1733512861428526600,3.124526611328125,-1.6565739060774445,1.0575298623025418,0.7481745747953653
1733512861438601500,3.1346015625,-0.6181881585754454,1.3758458703786134,1.380311617615819
1733512861448676600,3.144676513671875,0.6925473070543259,1.4056769450187683,2.13805218539685
1733512861458751700,3.154751708984375,1.8576736937880516,1.1180606111109257,2.9213448353245854
1733512861468826600,3.16482666015625,2.774861019420624,0.5828928271800279,3.8078584980130192
1733512861478901500,3.174901611328125,3.3609038350641725,-0.19084931959211826,4.533389279323816
1733512861488976400,3.184976318359375,2.99853767285943,-0.9485691368460655,4.94765630915761
1733512861499051500,3.195051513671875,1.735021273718029,-1.4743722955822944,4.617192474909126
1733512861509126700,3.205126708984375,0.1104135546132922,-1.372077457755804,3.4637998536542054
1733512861519202800,3.215202880859375,-1.607453170686215,-0.41264030541479585,2.5650053860634565
1733512861529277400,3.22527734375,-3.098433632850647,0.7311258248388767,1.6622046054407953
1733512861539352600,3.2353525390625,-4.168309766507148,1.5535978079885244,0.5283834575530141
1733512861549427500,3.245427490234375,-4.8181236280545585,2.1503379587352276,-0.6626053193856031
1733512861559502000,3.255502197265625,-5.257161818790435,2.848526559612155,-1.614045262427628
1733512861569577000,3.265576904296875,-5.505663701406121,4.271819240820408,-2.3713275650471446
1733512861579652000,3.275652099609375,-5.6939364485085004,6.645068713840842,-2.867938531568646
1733512861589727200,3.285727294921875,-5.893639521163702,8.887688650432228,-3.3988030653476713
1733512861599803100,3.29580322265625,-5.908156706815958,10.539712930381297,-3.8785622657895087
1733512861609878000,3.3058779296875,-5.52435378882885,11.243089163029193,-3.8619507382065055
1733512861619953200,3.315953125,-4.902795715428889,10.25792427971363,-2.96044525809139
1733512861630028000,3.326028076171875,-4.419315156376362,7.90408210247457,-1.5162915751621127
1733512861640103200,3.336103271484375,-4.207222557747364,5.351984128779173,-0.2687322217503562
1733512861650178300,3.34617822265625,-4.262389149174094,3.7848610687851902,0.8621380769751965
1733512861660253000,3.3562529296875,-4.812399989710748,2.997527034512162,2.0843531823046506
1733512861670328000,3.366328125,-5.268060813945532,2.457093292877078,3.390671781340241
1733512861680404200,3.376404296875,-4.6846997847318645,1.9179864159315823,4.456192057874799
1733512861690479000,3.38647900390625,-3.405465445846319,1.2496411646544932,4.85976613651961
1733512861700554200,3.39655419921875,-1.7302549360990522,0.4373591516077518,4.748319147205352
1733512861710628900,3.40662890625,0.07141688448190689,-0.10560089363455771,4.4333103639811275
1733512861720704000,3.4167041015625,1.4950328062951563,-0.4562129051595926,4.251634238664805
1733512861730779100,3.426779052734375,2.9053683907747265,-0.7624795790016651,4.425195154325664
1733512861740854000,3.43685400390625,4.742432427254319,-1.199737608322501,4.904112350985407
1733512861750929200,3.44692919921875,6.811259392994642,-1.5014765756070614,5.382644639980793
1733512861761005000,3.457005126953125,8.568013628962635,-1.3273574415415526,5.188416199344396
1733512861771080000,3.467079833984375,9.620135494741797,-0.6236199743658304,4.6329579070568085
1733512861781155000,3.477155029296875,9.716762808325885,0.03861000890135765,4.171037437905371
1733512861791230200,3.487230224609375,9.049189710465074,0.5231529364883899,4.134118158569931
1733512861801305000,3.49730517578125,7.900918670007586,0.9760007491290569,4.140425442020595
1733512861811380200,3.507380126953125,6.684478348687291,1.0644593693047761,4.045605177858472
1733512861821455000,3.517455078125,5.831878353777528,0.9097855249434709,3.7638703032046554
1733512861831530000,3.527530029296875,5.300374353051185,0.7497048531025647,3.444681311686337
1733512861841606100,3.537606201171875,4.894546065738797,0.5464566551864147,3.2665739847674966
1733512861851681000,3.547680908203125,4.541184463244677,0.288723418366909,3.3473794598415494
1733512861861756200,3.557756103515625,4.213710166200995,0.04119944087266922,3.5933547465890645
1733512861871831300,3.567831298828125,3.8211271449089046,-0.19321195707023142,3.8756197825968264
1733512861881906000,3.577906005859375,3.3381524895519017,-0.3245990338683128,4.1060540936023
1733512861891981000,3.58798095703125,2.8647452884852886,-0.3281237008631229,4.217255291461944
1733512861902056000,3.598055908203125,2.474238488945365,-0.29958909577429294,4.201435791039467
1733512861912131000,3.608131103515625,2.2748434593260285,-0.3536977025806904,4.058053156021237
1733512861922207200,3.618207275390625,2.1985155680574477,-0.42982817158102987,3.7496138143152
1733512861932282000,3.6282822265625,2.1973596760205925,-0.4509796806812286,3.285849470862746
1733512861942357000,3.63835693359375,2.242676196823269,-0.625741204303503,2.847870141530037
1733512861952432000,3.64843212890625,2.3531175162263214,-1.0173498276054858,2.5052061664000154
1733512861962507000,3.658507080078125,2.5847312462747096,-1.4059960939705372,2.122375746706873
1733512861972582100,3.66858203125,2.919773348224163,-1.8061422439932822,1.7276377393379807
1733512861982657300,3.6786572265625,3.2756127390086647,-2.158433002385497,1.3323736622683704
1733512861992732200,3.688732177734375,3.6694992441147565,-2.326677106937766,0.9537669977501034
1733512862002808000,3.69880810546875,4.243097588726878,-2.4330296957224604,0.6086423315949737
1733512862012883200,3.70888330078125,4.7385248984217645,-2.449440732297301,0.1321804191328585
1733512862022958000,3.7189580078125,4.854027592867612,-2.4286545493781566,-0.29558256354667245
1733512862033033200,3.729033203125,4.6584418924033635,-2.3372060997366906,-0.7664397878695279
1733512862043108000,3.739108154296875,3.997403749269247,-2.079255420774221,-1.435460527255386
1733512862053183000,3.749182861328125,3.340446153447032,-1.6083564031362532,-2.220659595326334
1733512862063258000,3.759258056640625,2.6191741986244916,-0.8652163153767585,-3.216681826612353
1733512862073333000,3.7693330078125,1.3714168018899857,-0.13950316323637962,-4.621178037413954
1733512862083409200,3.7794091796875,-0.6221113233685494,0.12886135771274565,-6.143340258175134
1733512862093484300,3.789484375,-3.21996976224184,-0.19321897133290766,-7.507571678605675
1733512862103559000,3.799558837890625,-5.205766562595963,-0.95879943895936,-8.052863966187834
1733512862113634000,3.809634033203125,-6.063470602646469,-1.6457821706891058,-7.516414910274744
1733512862123709200,3.819709228515625,-6.211329506295919,-1.6396826847702264,-6.534767679691314
1733512862133784000,3.8297841796875,-6.209286017769575,-1.2398907550126312,-5.996446400165557
1733512862143859200,3.839859130859375,-7.145899343883991,-0.8572843533337116,-5.341745058837533
1733512862153934000,3.84993408203125,-8.707641295361519,-0.4220499387949705,-4.1705023081153625
1733512862164010000,3.860010009765625,-9.331032721668482,-0.05720774186551571,-2.4626935971021653
1733512862174085000,3.870085205078125,-8.109612273848056,0.1254787295371294,-0.2752789034474641
1733512862184160000,3.880159912109375,-6.109884563297033,0.47988078099489206,1.9274233757100998
1733512862194235100,3.890235107421875,-4.364795630681514,1.5345184289872646,3.734444886755943
1733512862204310300,3.900310302734375,-3.1433284211099144,3.168811237412691,4.867048987004161
1733512862214385200,3.91038525390625,-2.2670646420180796,5.1292310199260704,5.5130310153037305
1733512862224460000,3.9204599609375,-1.2018716977417467,7.788465426260233,5.966560964989662
1733512862234535000,3.930534912109375,0.27612993078622966,10.431892022609711,6.099938338822126
1733512862244611000,3.940611083984375,1.855546618631482,11.692706907707452,5.979906768774986
1733512862254686200,3.950686279296875,3.5038527548402545,9.702071435150504,6.2658981318295
1733512862264761000,3.960760986328125,4.651496018788218,5.501376817867159,6.967361224332452
1733512862274836000,3.9708359375,5.816211413568258,1.8889485374957322,6.781296800929308
1733512862284911000,3.9809111328125,7.510531697455048,-1.0412024123579262,5.451373892813921
1733512862294986000,3.990986083984375,8.67078368308544,-3.1495728684574362,3.6708044814944265
1733512862305061000,4.00106103515625,8.496025082072615,-4.32021005450189,2.609592715808749
1733512862315136300,4.01113623046875,7.177528992378711,-4.7632115959107875,1.893881609983742
1733512862325212000,4.0212119140625,6.255045313903689,-5.051586639231443,0.8575729610167443
1733512862335287000,4.031287109375,5.630231161317229,-5.201060576862097,-0.39043987178355455
1733512862345362200,4.041362060546875,5.602400905105471,-4.551777753451466,-1.123953468541801
1733512862355437000,4.05143701171875,4.35749436775744,-2.930515106990933,-1.1532678258314728
1733512862365512200,4.06151220703125,2.272749701917171,-0.9592208792418241,-1.0276301794055849
1733512862375587000,4.071587158203125,1.0232792176544665,1.1162719741284846,-0.8705090149573981
1733512862385662000,4.081661865234375,0.3774550102651119,2.8866140059441325,-0.8392267185956239
1733512862395737000,4.091737060546875,0.5516226596474647,4.333314450746775,-1.486106718648225
1733512862405813000,4.10181298828125,-0.10206453620195388,4.957983641904592,-2.661348622009158
1733512862415888100,4.11188818359375,-1.585551866132021,4.125906795063615,-3.543451774778962
1733512862425963300,4.12196337890625,-2.4646003075063225,2.637052385142445,-4.103576889833808
1733512862436038100,4.1320380859375,-2.9707950949311255,1.0520727659404276,-4.15089773619622
1733512862446113000,4.142113037109375,-3.2850667960524556,-0.5249667079120874,-3.5160561105921864
1733512862456188200,4.152188232421875,-3.4043712208688257,-1.7891168749123811,-2.9112866749078035
1733512862466263000,4.162262939453125,-3.306825038874149,-2.5201754797339437,-2.4756027630358934
1733512862476338200,4.172338134765625,-3.3201123904705048,-2.5209534783691168,-2.3705396295398473
1733512862486414000,4.1824140625,-3.3906945776939392,-1.8326438819497823,-2.6270564763069153
1733512862496489000,4.192489013671875,-3.383154245316982,-0.7222469373345375,-3.056386342976987
1733512862506564000,4.202564208984375,-3.3396763381183145,0.008153495839238167,-3.1674618686303493
1733512862516639000,4.212638916015625,-3.2785470388948914,0.13098901739120483,-3.010815555152297
1733512862526714000,4.222714111328125,-3.303365838330984,-0.09151742322444915,-2.6960344432041046
1733512862536789200,4.232789306640625,-3.297235372751951,-0.38420682261288164,-2.2122043400615454
1733512862546864000,4.242864013671875,-3.1890330644473432,-0.5403560002237559,-1.633342375832796
1733512862556940500,4.2529404296875,-2.999933218871057,-0.39207916342318055,-1.0150962034597992
1733512862567015400,4.263015380859375,-2.814562330690026,-0.09045476242899894,-0.44056799411904063
1733512862577090600,4.273090576171875,-2.6592180397212504,0.21876608504354952,0.03469894097142387
1733512862587165400,4.28316552734375,-2.5448610081791876,0.4272551062226295,0.371077438057214
1733512862597240300,4.293240234375,-2.657182442240417,0.3507990585297346,0.15570939795412123
1733512862607315500,4.3033154296875,-2.6628654563128946,0.555260723888874,0.19005002244058997
1733512862617390300,4.313390380859375,-2.7567314884901046,0.7622200512826443,0.08496286874813959
1733512862627465500,4.323465576171875,-3.022682810817659,0.7913689888775348,-0.3631809857189655
1733512862637540600,4.33354052734375,-3.4275650494515895,0.7523539063066244,-0.7784454290922731
1733512862647616500,4.343616455078125,-3.8712054732859134,0.6544523350030184,-1.2191365746669471
1733512862657691400,4.35369140625,-4.299137455856799,0.6157920572191476,-1.7309582620628177
1733512862667766500,4.3637666015625,-4.719204988662899,0.6241513047635555,-2.2537270215392113
1733512862677841400,4.37384130859375,-5.061543385100364,0.7068383558005095,-2.7302915175929665
1733512862687916500,4.38391650390625,-5.290035329866409,1.0704700078964233,-3.1659067481428385
1733512862697991400,4.393991455078125,-5.515646750760078,2.0407786828637122,-3.6715333802908656
1733512862708066600,4.404066650390625,-5.728299321359396,4.080304735317826,-4.437975140921771
1733512862718142500,4.414142578125,-5.815981696465611,7.17678431149125,-5.196433501583337
1733512862728217300,4.42421728515625,-5.740266822528839,9.075178722724319,-5.507779670646786
1733512862738292500,4.43429248046875,-5.11114240552783,9.636659928563237,-5.293012299850583
1733512862748367600,4.44436767578125,-3.8887642185911533,9.195925747564434,-4.063792868717014
1733512862758442500,4.4544423828125,-2.8225682347521186,7.611780241099,-1.8487255404397844
1733512862768517400,4.464517333984375,-2.50262374869138,5.6051253616333,0.46436749697737395
1733512862778592500,4.474592529296875,-2.5056349132061,4.091744413220882,2.130432211912423
1733512862788667400,4.48466748046875,-2.4083844992876053,3.487111463397741,3.2310899989321826
1733512862798743600,4.49474365234375,-2.089108414007723,3.174144999656081,3.9979955776825546
1733512862808818700,4.504818603515625,-1.9602187069833277,2.979231499364972,4.818525486853718
1733512862818893300,4.514893310546875,-2.980163811779022,3.0637159552127122,6.230470844617486
1733512862828968400,4.524968505859375,-5.012691383647918,3.2893302987158295,8.317941720551252
1733512862839043300,4.535043212890625,-5.96218172699213,3.063852733334899,10.104718754339217
1733512862849118500,4.545118408203125,-5.275609329628944,2.1306512614905833,10.288340460765362
1733512862859193600,4.555193603515625,-3.4643723928451537,0.9075181645333766,9.123101334372162
1733512862869268500,4.5652685546875,-1.213700228831917,-0.12912263899743556,7.892408615815639
1733512862879344400,4.575344482421875,0.8162029858827591,-0.9841577520996332,6.9266878531605
1733512862889419500,4.58541943359375,2.2870167122006415,-1.2087152800261973,6.494325194665789
1733512862899494400,4.595494384765625,3.4919331844657657,-1.050265424257517,6.3220303534179925
1733512862909569500,4.605569580078125,4.463297505965828,-0.8298603398352861,5.642461112815141
1733512862919644400,4.61564453125,4.978491007882356,-0.250817173820734,4.248653469288349
1733512862929719600,4.625719482421875,5.5407776848852635,0.4323281717032194,2.492345808044076
1733512862939794400,4.63579443359375,6.249256793630122,1.0905512574166059,0.9181796976707876
1733512862949870600,4.64587060546875,6.755390206256508,1.3112293135613202,0.07740078119710088
1733512862959945500,4.655945556640625,6.9008046393632885,1.4426993924677372,-0.07391914962641895
1733512862970020600,4.6660205078125,7.388396433126926,1.867544514939189,-0.2424750235415995
1733512862980095500,4.676095458984375,7.981056036561727,2.247104973050952,-0.9576784721054136
1733512862990170400,4.68617041015625,7.998928377860784,2.1632880412012336,-1.8275186478905379
1733512863000245500,4.69624560546875,7.419251005595922,1.6815519877284764,-2.54560218193531
1733512863010320400,4.7063203125,6.5729270222157234,0.952167453598976,-3.2296111585512755
1733512863020395500,4.7163955078125,5.667763896375894,0.18927578666508196,-3.9063770321711897
1733512863030471700,4.7264716796875,4.943920045238733,-0.41575463804304597,-4.426512082143128
1733512863040546300,4.73654638671875,4.36312623616457,-0.8916367047905921,-4.708575458098948
1733512863050621400,4.746621337890625,3.7607466182261704,-1.1923527587682008,-4.678019284054637
1733512863060696300,4.7566962890625,3.0621207949757574,-1.30563485455513,-4.160449700656533
1733512863070771500,4.766771484375,2.387714636224508,-1.2081459557056426,-3.1039062190428375
1733512863080846600,4.7768466796875,1.9164172669187187,-0.978921020489931,-1.7727901556201278
1733512863090921500,4.78692138671875,1.6358379920408128,-0.8567080147504806,-0.4155962326109409
1733512863100996600,4.79699658203125,1.5061149029321967,-0.9572621463894844,0.7982036572031677
1733512863111072500,4.807072509765625,1.5747890645772218,-1.2202134101182223,1.8267068931162356
1733512863121147400,4.8171474609375,1.7905571368485689,-1.6806880643755198,2.541916771420836
1733512863131222500,4.827222412109375,2.1117864020228385,-2.118904125073552,3.022594840273261
1733512863141297700,4.837297607421875,2.4121251471206544,-2.5516741953253743,3.371367361411452
1733512863151372500,4.84737255859375,2.7087144765570756,-3.020912001752853,3.6365684498935935
1733512863161447400,4.857447509765625,2.973314968797564,-3.338090530231595,3.9509856969654558
1733512863171522300,4.867522216796875,3.32608912679255,-3.614508009254932,4.245941287720203
1733512863181597400,4.877597412109375,3.5539094559073447,-3.8930741907447572,4.259270724892616
1733512863191673600,4.887673583984375,3.608530980671942,-4.062898257964849,4.124519724619389
1733512863201748500,4.89774853515625,3.583476618914306,-4.023873238521814,3.888101078507304
1733512863211823400,4.9078232421875,3.272173412209749,-3.7966438610374924,3.644673430415988
1733512863221898500,4.9178984375,2.6692998732745647,-3.426647934606671,3.2700559816643593
1733512863231973400,4.927973388671875,1.8200971195876596,-2.7860101899445056,2.831155153572559
1733512863242048500,4.938048583984375,0.7481954714529215,-1.7402561056315897,2.331763031899929
1733512863252123400,4.948123291015625,-1.1939391511768103,-0.031098902618885038,1.2308344651147722
1733512863262199300,4.95819921875,-9.693618664103745,2.8079607404679057,-1.6713085338726639
1733512863272274400,4.9682744140625,-25.385935306692122,6.628945846557617,-7.068440256628394
1733512863282349600,4.978349609375,-18.71173928256631,3.80793214777112,-7.160900513660907
1733512863292424400,4.988424560546875,-13.982327080404758,1.4599299287319183,-6.343076648578047
1733512863302499600,4.99849951171875,-9.274126008576154,0.5840969422727823,-4.337249452108145
1733512863312574500,5.008574462890625,-5.10578935406208,0.29363574032783507,-1.6794985623300074
1733512863322649600,5.018649658203125,-2.286607985269278,-0.2158785469084978,0.058618339315801855
1733512863332724500,5.028724365234375,-0.6081283907234668,-1.1562924343496561,0.7800722265765071
1733512863342800400,5.03880029296875,0.4597179906710982,-2.5190607964903116,1.3585481140971183
1733512863352875500,5.04887548828125,1.5247352861195802,-3.576395428481698,1.9348275144867597
1733512863362950700,5.05895068359375,2.3739048681892454,-3.372067034113407,2.525212304857373
1733512863373025500,5.069025634765625,3.14268369346559,-2.0115683704704046,2.9836724044218657
1733512863383100400,5.079100341796875,4.390881673574447,0.5425654929667711,3.4928023685157297
1733512863393175300,5.08917529296875,6.32697540860474,4.423333744367957,3.8324130935549734
1733512863403250400,5.09925048828125,7.931019793760776,9.673856563535333,4.0784348497927185
1733512863413326600,5.10932666015625,7.880712332803011,15.663283440327643,4.518641499786079
1733512863423401500,5.1194013671875,6.882104030546546,18.75658847811818,4.385500272797048
1733512863433476400,5.129476318359375,6.261442321464419,15.359729532575606,2.702546601577103
1733512863443551500,5.139551513671875,5.897711885169148,7.232627194744348,1.325542939465493
1733512863453626400,5.14962646484375,5.51105533131659,0.9312176045507192,1.554742009587586
1733512863463701500,5.159701416015625,5.100466697734594,-2.48739607668221,1.45055025209859
1733512863473776600,5.169776611328125,4.889515670356154,-4.600230526453256,1.455822931804508
1733512863483851500,5.1798515625,4.604837727987766,-6.371864351645112,1.8327016034863888
1733512863493927400,5.189927490234375,3.7762539839595552,-7.632922397848963,1.879625705616176
1733512863504002600,5.20000244140625,2.3927999766647816,-8.27346311187744,1.712043572103977
1733512863514077400,5.210077392578125,0.8701572789102793,-8.560413675352931,1.4763744291849434
1733512863524152600,5.220152587890625,0.26260347320437427,-8.200080480280517,1.0274619101665914
1733512863534227500,5.2302275390625,0.7655465653568506,-6.154418117028475,0.23531601863242685
1733512863544302300,5.24030224609375,1.059459369060397,-2.899761656808853,-0.4879752401232719
1733512863554377200,5.250377197265625,1.011818570028618,0.3949912514775991,-1.0930474581465124
1733512863564453000,5.260453125,1.2260621361464261,3.518805993822217,-2.266177191659063
1733512863574528300,5.2705283203125,1.381480661395192,6.106623515674472,-2.827035735554993
1733512863584603400,5.280603271484375,1.6975965290784836,7.68197781291902,-2.571612236982584
1733512863594678300,5.29067822265625,2.577072255954146,8.011782598736882,-2.422422669251263
1733512863604753200,5.300753173828125,2.060984435546398,6.479410534128546,-3.0046245915576812
1733512863614828000,5.310828125,0.3883732946425676,3.78249317061007,-3.8210119940966365
1733512863624903200,5.320903076171875,-0.8227601524412631,1.8378449577242135,-4.125491784521937
1733512863634978300,5.330978271484375,-1.719975534147024,0.12642448595464229,-3.643232876218855
1733512863645054500,5.341054443359375,-2.229922952103615,-1.3263690150260925,-2.7460391218230127
1733512863655129000,5.351129150390625,-2.4673989983141422,-2.4250176541805266,-2.071285318677872
1733512863665204200,5.361204345703125,-2.5333237151205537,-3.080734310030937,-1.9296195705801247
1733512863675279000,5.371279052734375,-2.565246793603897,-3.0772949832320213,-2.2706932077787814
1733512863685354200,5.381354248046875,-2.650793910247087,-2.254626016205549,-2.8747102176606654
1733512863695429400,5.391429443359375,-2.7555753041923046,-1.3384428991794586,-3.0563752370610833
1733512863705504300,5.401504150390625,-2.7685703948438167,-0.869473388299346,-2.7113649910658597
1733512863715580200,5.411580078125,-2.748707171988487,-0.66138710270226,-2.0520035489723085
1733512863725655300,5.4216552734375,-2.65157249340415,-0.5113520240575075,-1.2625804334655404
1733512863735730200,5.431730224609375,-2.5247394266486167,-0.3472533487468958,-0.5678663037661462
1733512863745805300,5.441805419921875,-2.4011516254246232,-0.21553075638413427,-0.1423904821757227
1733512863755880200,5.451880126953125,-2.2909014446794984,-0.1475216345191002,0.0878966023787856
1733512863765955300,5.461955322265625,-2.163577525667101,-0.08809680112600327,0.2942609960867092
1733512863776030200,5.4720302734375,-2.0480678169585764,-0.06275193198919296,0.5721566213712096
1733512863786105000,5.48210498046875,-1.9301403795838354,-0.08412731297314166,0.8817421374376863
1733512863796181200,5.49218115234375,-1.8614463441945612,-0.16704758824408053,1.163335046337545
1733512863806256400,5.50225634765625,-1.8643198538042605,-0.21055121440589428,1.2884351518206298
1733512863816331300,5.512331298828125,-1.97071920434013,-0.19588556019365785,1.2067668493721633
1733512863826406100,5.52240625,-2.2003474596597252,-0.08659984056651591,0.9405835449196398
1733512863836481300,5.532481201171875,-2.557402509844303,0.10793956571519374,0.5327705500634387
1733512863846556200,5.54255615234375,-2.949894930243492,0.3014917145252228,0.033290421313792465
1733512863856631300,5.55263134765625,-3.3290716497346757,0.5039338567554951,-0.49024296585954724
1733512863866707200,5.562707275390625,-3.718269997024536,0.7436924609452485,-0.9031097004413604
1733512863876782000,5.572781982421875,-4.074969804030657,1.1076666428685187,-1.2417141710475086
1733512863886857200,5.582857177734375,-4.356863668638468,1.6389789204150438,-1.6600336911424993
1733512863896932000,5.59293212890625,-4.6286640092551705,2.4396634346485135,-2.4088601539753376
1733512863907007200,5.60300732421875,-4.851780398462712,3.4977596986621617,-3.6707676566153764
1733512863917082400,5.613082275390625,-4.831449850356578,4.574929496458172,-4.957261757370829
1733512863927157200,5.6231572265625,-4.369285635577142,5.718665231573581,-5.933596853020787
1733512863937232100,5.633232177734375,-3.30878201816082,6.29368688698709,-6.013554771354794
1733512863947308300,5.643308349609375,-2.064765269259363,5.952469895794987,-4.622784888088703
1733512863957383200,5.653383056640625,-1.4138298563361167,4.423637695750594,-2.2008431342221795
1733512863967458300,5.663458251953125,-1.4545187173381446,3.1858231624901294,0.09891091274293139
1733512863977533400,5.673533447265625,-1.7435609923958777,2.6499206345438955,1.5028677377045154
1733512863987608300,5.6836083984375,-1.9211866732776164,2.512864279937744,1.7528860162325202
1733512863997683200,5.69368310546875,-1.76767617360726,2.5450498087495563,1.273292527746409
1733512864007758000,5.703758056640625,-0.9663957393072545,2.6368302668243646,1.5736036541849374
1733512864017834200,5.713834228515625,-0.5296656793832779,2.611831434646249,2.4063294664539394
1733512864027909400,5.723909423828125,-0.5742714215680956,2.431048166516423,3.554195871633291
1733512864037984300,5.733984375,-0.9495932191967964,1.9549948348551986,4.465359406931698
1733512864048059100,5.74405908203125,-1.51792852871418,1.2044167060494422,5.042253578218817
1733512864058134300,5.75413427734375,-2.2222810590483246,0.3821843768745661,5.408429069578648
1733512864068209200,5.764209228515625,-3.2545372177541254,-0.3851701146870851,5.8527668280273675
1733512864078284300,5.7742841796875,-4.077895920610428,-1.0206640667200089,6.097697866418957
1733512864088360200,5.784360107421875,-4.1023675140440465,-1.4561504101932048,5.980417640906572
1733512864098435000,5.79443505859375,-3.4602339778661726,-1.7183160765022039,5.650701117894053
1733512864108510200,5.80451025390625,-2.3865607900142667,-1.6937427762597799,5.167215590405464
1733512864118585000,5.814585205078125,-1.2763199127435683,-1.3695967468559742,4.72836766154468
1733512864128660200,5.82466015625,-0.16661681387769056,-0.8231155417501926,4.20003060041666
1733512864138735400,5.8347353515625,0.9798848970860242,-0.15969254930615423,3.5611832463026043
1733512864148810200,5.844810302734375,1.8908967489540576,0.2925754176199436,3.098356475961208
1733512864158885000,5.854885009765625,2.6964789721012115,0.7405377963066101,2.4784879630833863
1733512864168961300,5.864961181640625,3.729933546811342,1.359343063867092,1.6159936200164258
1733512864179036200,5.8750361328125,4.66365173600614,2.049997177585959,0.755355060883984
1733512864189111300,5.885111328125,5.483647684431076,2.517867787313461,0.03414605176243931
1733512864199186400,5.8951865234375,6.284933671689033,2.6492607093304392,-0.5736118616808206
1733512864209261000,5.905260986328125,6.924403541615605,2.8101579582512377,-1.109051667486131
1733512864219336200,5.915336181640625,7.1706865791380405,2.8910288997769356,-1.3939981976628302
1733512864229411000,5.9254111328125,7.172572831276058,2.935253241428733,-1.611946098191291
1733512864239487200,5.9354873046875,6.854955911380052,2.7682033150970935,-1.9171859132036566
1733512864249562400,5.945562255859375,6.301162337434292,2.3642197788685557,-2.2827701606720683
1733512864259637000,5.955636962890625,5.592952693280577,1.6286995184630155,-2.5116215864002704
1733512864269712100,5.965712158203125,4.735117135804892,0.8453636139154433,-2.6284599133640527
1733512864279787300,5.975787353515625,3.874184196835756,0.12585983780920504,-2.6069834100931883
1733512864289862100,5.985862060546875,2.9682775591522454,-0.4269266049206257,-2.262034246635437
1733512864299937300,5.995937255859375,2.068390620149672,-0.8044044115394353,-1.4806621895067393
1733512864310013200,6.00601318359375,1.1914166469618677,-1.1515279964268206,-0.39291904831342395
1733512864320088000,6.016088134765625,0.466299999409914,-1.4083973098933695,0.8246856406111269
1733512864330163200,6.0261630859375,0.10797317572385072,-1.531235169532895,1.9114999765217302
1733512864340238300,6.03623828125,0.02156125894486904,-1.7495441584587097,2.849921228840947
1733512864350313200,6.046313232421875,0.3691339027740061,-1.8808055630505083,3.6711627934128046
1733512864360388400,6.056388427734375,1.040460654079914,-1.994084736227989,4.3306735808491705
1733512864370463200,6.066463134765625,1.6943702605083584,-2.3521207602739334,4.747608953109383
1733512864380538000,6.0765380859375,2.3019033156871793,-2.7732757960557937,4.930017192092538
1733512864390614300,6.0866142578125,2.7806127148151396,-3.1556396211504936,4.88969102692306
1733512864400689200,6.096689208984375,3.110512485440075,-3.4741555357128378,4.777039045733213
1733512864410764300,6.106764404296875,3.323284006243944,-3.7401661870121954,4.628045000573993
1733512864420839400,6.11683935546875,3.3978701684117314,-3.901450389423966,4.35845386043936
1733512864430914000,6.1269140625,3.338393897092342,-3.950838397449255,3.8962352851241824
1733512864440989200,6.1369892578125,3.2481811267256733,-3.8700288307219743,3.2256314412653446
1733512864451064000,6.14706396484375,3.1089690553903577,-3.6252012527048585,2.357453937995434
1733512864461140200,6.15714013671875,2.62635738812685,-3.087651542073488,1.2709279905721544
1733512864471215400,6.16721533203125,1.5837775499358773,-2.345795064383745,-0.03445997654981911
1733512864481290200,6.177290283203125,0.33163580063730475,-1.5940286025762558,-1.4557964821889995
1733512864491365000,6.187365234375,-1.4979633067891,-0.8684902224808931,-2.699220964285731
1733512864501440300,6.197440185546875,-5.664529736760258,0.005789104795455933,-4.442503139740229
1733512864511515100,6.20751513671875,-8.298891567644477,0.9080214378803968,-5.400881138417124
1733512864521590300,6.21759033203125,-8.8356901676476,1.295364220431447,-3.616839374811947
1733512864531666200,6.227666259765625,-10.291069008946419,1.5792939747810364,-2.208290527618676
1733512864541741000,6.237740966796875,-10.867337449550629,1.773169364196062,-1.855016749538481
1733512864551816200,6.247816162109375,-9.048121788972615,1.2802888163745403,-1.8380758438706397
1733512864561892000,6.25789208984375,-6.193525554057955,0.6510153462916612,-1.626260893139243
1733512864571967200,6.26796728515625,-3.678520754960179,0.202013687685132,-0.9647945877209305
1733512864582041900,6.278041748046875,-1.5006062225133179,-0.025156068566441533,-0.21155498462095856
1733512864592117000,6.288116943359375,-0.003810498198866844,0.13123510110676287,0.7334910926654934
1733512864602193200,6.298193115234375,0.8642173674672842,0.9151818310290575,1.952036569571495
1733512864612268300,6.308268310546875,1.2568065262392163,2.537473236015439,3.2784237047761677
1733512864622343200,6.31834326171875,1.5814911925643682,5.060372587755322,4.334339117619395
1733512864632418000,6.32841796875,2.0199942535102364,8.181845735409855,5.097798355308175
1733512864642493000,6.338492919921875,2.6231466093868017,11.0812338827312,5.799014779573679
1733512864652568000,6.348568115234375,3.2473733174741266,12.652301296436786,6.051359309092164
1733512864662643200,6.358643310546875,3.813782627364993,10.568432828909158,5.40238102158606
1733512864672718000,6.368718017578125,4.22015335099101,4.801703531390428,3.9890088458895683
1733512864682794000,6.3787939453125,4.241512949883938,-0.15644962186217307,2.957958994233608
1733512864692869000,6.388869140625,3.97609909543395,-2.842170468583703,2.3683332055367528
1733512864702944000,6.398944091796875,3.7334184663176533,-4.479581701290607,2.0282981176055968
1733512864713019100,6.40901904296875,3.7437148194044827,-5.742078840386867,1.8760161368168888
1733512864723094000,6.419093994140625,3.9815164443075655,-6.6586424811631435,1.6776877135157584
1733512864733169200,6.429169189453125,4.186908083993196,-7.306784317845105,1.5324840005502103
1733512864743244300,6.439244384765625,4.108632419657707,-7.577581034377217,1.4605452841512858
1733512864753320000,6.44931982421875,3.7695027561336754,-7.057355968034267,1.4333167932249604
1733512864763395000,6.45939501953125,3.3783103124171494,-5.459111209067702,1.3762912760585546
1733512864773470200,6.46947021484375,3.1517057888329028,-3.2197277701795097,1.2593366292387247
1733512864783545000,6.479545166015625,3.49875163230896,-0.5566507169425488,0.9012374037634581
1733512864793620200,6.4896201171875,3.9936388437777754,1.9214649056971072,0.16071473196074365
1733512864803695000,6.499695068359375,4.650673011967539,3.9238445920616387,-1.1876865205228329
1733512864813770000,6.50977001953125,4.522512496000528,5.19197184599936,-1.9419823546774684
1733512864823846100,6.51984619140625,3.7202854285001754,5.6925318424075835,-2.1222399914979935
1733512864833921300,6.52992138671875,2.944609683316946,5.361227173420787,-2.212823933264613
1733512864843996200,6.53999609375,2.8329923058718443,4.173946311089396,-2.5344752232432364
1733512864854071000,6.550071044921875,2.3365941053181887,2.420467735791206,-3.319638635478914
1733512864864146000,6.56014599609375,1.1586053874671458,1.1547229930758476,-4.113499441172182
1733512864874221000,6.570220947265625,-0.23402857263777405,0.6083247900784016,-4.517558965246379
1733512864884296200,6.580296142578125,-1.4481108961224556,0.1803817015916109,-4.254024056410789
1733512864894372000,6.5903720703125,-2.2810943364143372,-0.2087327668070793,-3.5936283028334377
1733512864904447000,6.600447021484375,-2.75736481795758,-0.4628700249612331,-2.9814325165405866
1733512864914522000,6.610522216796875,-2.969970919066667,-0.5234744235277176,-2.694107859055698
1733512864924597000,6.620596923828125,-3.0761224323213097,-0.23102175550460813,-2.900207354749739
1733512864934672100,6.630672119140625,-3.108251262509823,0.019057167169451713,-2.8659096560895443
1733512864944747300,6.640747314453125,-3.1643688710510727,-0.11387830811440944,-2.2985735867425796
1733512864954822100,6.650822265625,-3.1001088725864885,-0.24160803144872187,-1.8614682637654243
1733512864964897300,6.660897216796875,-3.0177240193665025,-0.28484336206316946,-1.4341887537539004
1733512864974973200,6.67097314453125,-2.9476258162677285,-0.2541606390297413,-0.9721730075344442
1733512864985048000,6.681048095703125,-2.914924154627323,-0.221529120016098,-0.48813561831675467
1733512864995123200,6.691123291015625,-2.9435157506003975,-0.17294249150156973,-0.0712785719897598
1733512865005198000,6.701197998046875,-2.9701474446773526,-0.18769757756292818,0.22961839151270685
1733512865015273200,6.711273193359375,-2.9619442644774914,-0.22158874124884603,0.45194761239793146
1733512865025348000,6.72134814453125,-2.9384090751111507,-0.4061912754058838,0.6251477684549986
1733512865035423000,6.731423095703125,-2.8597417811095713,-0.6919108357816934,0.7572475235670805
1733512865045499100,6.7414990234375,-2.7516344576120373,-0.9498036470770835,0.823729801191017
1733512865055574300,6.75157421875,-2.641044085127115,-1.0955389827013016,0.8630866098716855
1733512865065649200,6.761649169921875,-2.5133015023112297,-1.0713678335189818,0.8724021352276206
1733512865075724000,6.77172412109375,-2.3887280510507525,-0.8368693418145179,0.8523614369135349
1733512865085799000,6.781798828125,-2.341647297054529,-0.49494917078912254,0.7974610221423208
1733512865095874000,6.7918740234375,-2.4235087109223006,-0.11103636268675326,0.6774920690026134
1733512865105949200,6.80194921875,-2.6203847434580325,0.2400245616495609,0.3043241614721715
1733512865116025000,6.812025146484375,-2.868683796977997,0.36840778045654293,-0.09357771675512194
1733512865126100000,6.822099853515625,-3.2222222173437474,0.3464595680207014,-0.4033887121405452
1733512865136175000,6.832175048828125,-3.604633096450567,0.3318967896610498,-0.7597840563073753
1733512865146250000,6.84225,-3.978255981206894,0.2983089928358793,-1.1532146343395113
1733512865156325000,6.8523251953125,-4.262302932195365,0.35193010838627814,-1.543034182267636
1733512865166400300,6.862400146484375,-4.49177365886569,0.49860944686233993,-1.8630116938151418
1733512865176475100,6.87247509765625,-4.713590363651514,0.818547503182292,-2.252531674274802
1733512865186551000,6.882551025390625,-4.872053955684602,1.2242062791466712,-2.6249104041889306
1733512865196626200,6.892626220703125,-4.779865501330793,1.4625643688887358,-2.8523858653888103
1733512865206701000,6.902701171875,-4.559768752205372,1.808447598326206,-2.9788387006551025
1733512865216776200,6.912776123046875,-4.456057910101116,2.678340088820457,-3.158914989559352
1733512865226851000,6.92285107421875,-4.455900381451845,4.220305326682329,-3.4853748488634824
1733512865236926000,6.932926025390625,-4.423222100687027,6.103354284745454,-3.8353500237897036
1733512865247001000,6.9430009765625,-4.098357986141741,7.586292164099216,-3.9476352174937723
1733512865257077000,6.953076904296875,-3.4087691635668276,8.256578028050065,-3.5093817473948
1733512865267152100,6.963152099609375,-2.306739211411029,8.185541667318343,-2.6218697213187814
1733512865277227300,6.973227294921875,-1.1031532570973037,7.098159103065728,-1.1386052403591573
1733512865287302100,6.98330224609375,-0.36541663581654427,5.199590504309534,0.5604144899228587
1733512865297377000,6.993376953125,-0.07441548177599906,3.612902327623963,1.4883929298892615
1733512865307452200,7.0034521484375,-0.049012014319747686,2.6382833882421255,1.921502607358992
1733512865317527000,7.013527099609375,-0.10905074182748795,2.1764643336385485,2.3247364942640063
1733512865327603200,7.023603271484375,-0.373633406150341,1.9455173969358204,2.408737842769921
1733512865337678000,7.033677978515625,-0.37162381989359855,2.0377584582597015,2.8373592689096925
1733512865347753000,7.0437529296875,0.0016577040791511534,1.9850129565000534,4.35463897832632
1733512865357828000,7.053828125,-0.5352138150297105,1.703315491247177,5.960768353062868
1733512865367903000,7.063903076171875,-2.290515514101833,1.3511135801821947,7.7932158356577155
1733512865377978000,7.07397802734375,-4.2994682952463625,0.671424512591958,9.608661914569138
1733512865388053200,7.08405322265625,-5.45670940862298,-0.35683307799696923,10.810412031757831
1733512865398129000,7.09412890625,-5.034558347541093,-1.7130448581010103,10.553982278752326
1733512865408204000,7.1042041015625,-3.287923939049244,-2.6899358340680597,9.246663416633009
1733512865418279200,7.114279052734375,-1.1865946336328983,-3.023880788430571,7.959712219759822
1733512865428354000,7.12435400390625,0.552403580892086,-2.6575562439888714,7.103258472031355
1733512865438429200,7.13442919921875,1.9015841471850872,-1.8718816673606633,6.321421866130828
1733512865448504300,7.14450439453125,2.784166607904434,-1.248241234728694,5.3362020377576345
1733512865458579000,7.154578857421875,3.4822856506764888,-0.6577285801947117,3.9579990828588603
1733512865468655000,7.164655029296875,4.137680819487572,0.16178689123690126,2.3318723374933
1733512865478730200,7.174730224609375,5.039677005729079,1.0886533148407935,0.6971533395450562
1733512865488805000,7.18480517578125,6.069275489532947,1.7259931870013474,-0.7178047171033919
1733512865498880300,7.19488037109375,7.017106375232339,2.3675252501547335,-2.122746187454462
1733512865508955000,7.204954833984375,7.88369690157175,3.206255125144124,-3.3851252531290053
1733512865519030000,7.215030029296875,8.763437416863441,3.841761352136731,-4.535227308405935
1733512865529105200,7.225105224609375,8.634475521385669,3.92529654443562,-5.646369810691476
1733512865539181000,7.23518115234375,7.668132242918014,3.3714743289172646,-6.861361102247238
1733512865549256200,7.245256103515625,6.41616117401123,2.522898182696104,-8.024564338898658
1733512865559330800,7.255330810546875,4.955654906696081,1.5660282504945993,-9.104501263320445
1733512865569405700,7.26540576171875,3.2164801665604115,0.45163609876334665,-9.516217439627647
1733512865579480800,7.275480712890625,1.658771416121721,-0.6289291866898536,-8.830390307673811
1733512865589556000,7.285555908203125,0.4782137245655059,-1.173486145734787,-7.236202715143561
1733512865599630800,7.295630859375,0.007036620638519525,-1.1324310817688703,-5.342461682674289
1733512865609706800,7.305706787109375,0.08397124562859534,-0.8125865489512681,-3.4818066349878904
1733512865619782000,7.315781982421875,0.22723989887833593,-0.1886129388421774,-1.7849391508363186
1733512865629856800,7.325856689453125,0.32762159655988216,0.5223083023577928,-0.10834266662336885
1733512865639932000,7.335931884765625,0.5431785102985799,0.9217290607154369,1.3950707953304051
1733512865650006800,7.3460068359375,0.7987966546602546,0.8865349977374076,2.5541955304965374
1733512865660082000,7.35608203125,1.0096285857036709,0.45123453222513193,3.253791367822885
1733512865670157000,7.366156982421875,1.185526712140441,-0.29827216795682904,3.808313840565085
1733512865680233000,7.37623291015625,1.434163619312644,-1.2293611776918172,4.210498218417167
1733512865690307800,7.386307861328125,1.5548587678350507,-2.290835393705964,4.387717364324629
1733512865700383000,7.396383056640625,1.625859911122918,-3.282239463672042,4.455483325083554
1733512865710457900,7.406457763671875,1.7126031056828797,-4.05650008136034,4.490950067523122
1733512865720533000,7.416532958984375,1.733771127526462,-4.518616657605767,4.52518522234112
1733512865730607900,7.42660791015625,1.793999386256933,-4.692561019626259,4.599182186444104
1733512865740682800,7.436682861328125,1.8806185160458087,-4.5720717689394945,4.684612690970301
1733512865750759000,7.446759033203125,1.9178755029030143,-4.048053740054368,4.7883770168274635
1733512865760834000,7.456833984375,1.815102380040288,-3.2823534454405308,4.7592970528155565
1733512865770909000,7.466908935546875,1.45145479972288,-2.4557687662750483,4.582634079486131
1733512865780983800,7.47698388671875,0.46186303987577554,-1.5903367623209952,4.263026278033852
1733512865791058700,7.48705859375,-1.4807500139206646,-0.5099678762227297,3.697275724312663
1733512865801133800,7.4971337890625,-5.3446168148815625,0.8028349702656269,2.5861650784701107
1733512865811209000,7.507208984375,-10.07989177159667,2.288340069758892,1.0199036768067629
1733512865821284900,7.517284912109375,-10.798299569159745,2.784050872570276,-0.07163067336305975
1733512865831359700,7.52735986328125,-8.161553473487496,2.0817945838630196,-0.40956119023039933
1733512865841435000,7.537434814453125,-6.361570336645841,1.6550731461256742,-0.826644811854884
1733512865851509800,7.547509765625,-5.016463887923956,1.3971815038740634,-1.3484697876751421
1733512865861585000,7.5575849609375,-3.633281683307886,1.0394131908535957,-1.7369225772947072
1733512865871660000,7.567659912109375,-2.2187574149668214,0.5862690256148576,-1.94631570770666
1733512865881735000,7.57773486328125,-0.8140233037561178,0.10826222179830074,-1.955459675887972
1733512865891810800,7.587810791015625,0.5091204656131565,-0.31742870384752747,-1.8256030235275624
1733512865901886000,7.597885986328125,1.485572319510579,-0.8020113789230585,-1.7925427577078341
1733512865911960800,7.6079609375,2.0134956852711734,-1.5054039781838655,-1.8569333968147634
1733512865922036000,7.618035888671875,2.171694488888234,-2.284414420747757,-1.9680095069900154
1733512865932110800,7.62811083984375,2.185574691811204,-3.0182109261006116,-1.7954169979698955
1733512865942186000,7.63818603515625,2.15551316941604,-3.457522965341806,-1.4068214388787745
1733512865952260900,7.6482607421875,2.137930166452378,-3.27508140861094,-0.8418954994134604
1733512865962336800,7.658336669921875,2.112335121946782,-2.1943670700758693,-0.04754289161525666
1733512865972412000,7.668411865234375,2.1887151817940174,-0.18127835817039012,0.8109094095192849
1733512865982487000,7.678487060546875,2.343594193338603,2.706334011161327,1.6017542283922432
1733512865992562000,7.68856201171875,2.513164139667153,6.417832322093844,2.270987222289294
1733512866002636800,7.69863671875,2.4013201138593256,10.454660319256782,3.060743369142711
1733512866012712000,7.7087119140625,2.325887271734327,13.745465951222181,3.7110417993366718
1733512866022786800,7.718786865234375,2.6127503030568358,14.575902045118807,3.3363638525694608
1733512866032863000,7.728863037109375,2.3770091178148984,9.55310135538876,2.203902375662327
1733512866042938000,7.738938232421875,1.455191209772229,2.2648574873626233,1.5326071885384618
1733512866053012700,7.7490126953125,0.6291401990920304,-1.744420239573717,1.4589068692944942
1733512866063087900,7.759087890625,0.15560615677535533,-3.812113232848048,1.6249571170642971
1733512866073162800,7.769162841796875,0.2832861957490444,-5.283120435911417,1.9408590497359632
1733512866083238000,7.77923779296875,0.8815520216930657,-6.551493189042806,2.1711593590982257
1733512866093313000,7.78931298828125,1.6532728187054395,-7.599568994301557,2.406127660271525
1733512866103388700,7.799388671875,2.303630139479786,-7.709796378692984,2.441003743341565
1733512866113463800,7.8094638671875,2.9823768116533755,-6.785288500913977,2.137859731564671
1733512866123539000,7.8195390625,3.8485266084879632,-5.079688113600016,1.4043516877643762
1733512866133613800,7.82961376953125,3.7645173689365383,-2.8483558792203665,0.8400118776239455
1733512866143689000,7.83968896484375,3.329527869069576,-0.4157780189186334,0.26974629416372625
1733512866153763800,7.849763916015625,3.4021254877686498,1.9095184473156928,-1.030287781242281
1733512866163839000,7.8598388671875,3.849381179490685,3.8072406583756204,-2.4171140414491292
1733512866173915000,7.869914794921875,3.6682232328295705,4.72741781347394,-2.4253587227031588
1733512866183990000,7.879989990234375,3.188369339841604,4.646033077207208,-1.8771188373617826
1733512866194065000,7.89006494140625,2.8399866948038337,3.658887833729386,-1.5379817211836575
1733512866204140000,7.90014013671875,2.225919561681151,2.5758617111206052,-1.7007842192038893
1733512866214215000,7.91021484375,0.9585346505433321,1.2546850040405988,-1.8970552715837954
1733512866224289800,7.920289794921875,-0.05713000502076465,0.5969266132295131,-2.0503025902733207
1733512866234365000,7.930364990234375,-0.9997264926314353,0.17072890710532665,-2.048603092879057
1733512866244440800,7.94044091796875,-1.7909458439052104,-0.2899567595541477,-1.6334382374227046
1733512866254516000,7.950515869140625,-2.246784070533514,-0.6038116965681314,-1.6663756075151264
1733512866264591000,7.960591064453125,-2.5106769990265367,-0.9092267220169306,-1.9528759430050848
1733512866274665700,7.970665771484375,-2.7450492340028285,-1.0490326675921677,-2.250814348962903
1733512866284740900,7.980740966796875,-2.9617502032101153,-0.9729980601817368,-2.3129994408495724
1733512866294815700,7.990815673828125,-3.133389210897684,-0.770281192663312,-2.2485005190625786
1733512866304892000,8.000891845703125,-3.2205063533365723,-0.685050302362442,-2.063243028128147
1733512866314967000,8.010967041015626,-3.2399700554803013,-0.6962678619474172,-1.8247022752955555
1733512866325041700,8.021041748046875,-3.2282500993311403,-0.7719897501468658,-1.56476349125579
1733512866335116800,8.03111669921875,-3.250591694998741,-0.8088865253895521,-1.3178593992255627
1733512866345192000,8.04119189453125,-3.3208582404017446,-0.7546610142052174,-1.1542144590318202
1733512866355266800,8.051266845703125,-3.3857495225071905,-0.5793126306056976,-1.0214368046581745
1733512866365342000,8.061342041015624,-3.3883494758725163,-0.32388591716289516,-0.8606699771840125
1733512866375417900,8.07141796875,-3.2959389032006263,-0.12838321880698203,-0.6952572236001491
1733512866385492700,8.08149267578125,-3.196459122794866,-0.04343874423205852,-0.6218047416374087
1733512866395567900,8.09156787109375,-3.109330289918184,-0.05862228483855724,-0.6483081331595778
1733512866405643000,8.10164306640625,-3.0485619329616425,-0.05934826102554798,-0.7652457557793706
1733512866415718000,8.1117177734375,-3.0796684343650935,-0.06912555867433548,-0.8158741923198103
1733512866425793000,8.12179296875,-3.3400524779543277,-0.10519289735555648,-0.7444289585262537
1733512866435868000,8.131867919921875,-3.8471860075339674,-0.044155368068814274,-0.527802223598957
1733512866445943800,8.14194384765625,-4.352542298308014,0.08565642223656177,-0.26496947168335316
1733512866456019000,8.15201904296875,-4.867393562658131,0.35284254705607887,-0.26749533689916133
1733512866466093800,8.16209375,-5.330501780289411,0.7059907990604639,-0.6931739875853061
1733512866476169000,8.1721689453125,-5.586889447718859,0.944655178272724,-1.4432453359127044
1733512866486243800,8.182243896484374,-5.518922411429882,1.2037258011758327,-2.43467161771059
1733512866496318700,8.192318603515625,-5.100377850407361,1.5802572668552397,-3.474448088918626
1733512866506393900,8.202393798828124,-4.4992496938347815,2.183707728895545,-4.44930639001429
1733512866516470000,8.212469970703125,-3.8409643565401432,3.055086658555269,-5.287933389151096
1733512866526545000,8.222544921875,-3.29070977037549,4.206811054337025,-5.859015951550006
1733512866536619800,8.232619873046875,-2.9152772058486938,5.948835338684916,-6.083305768451094
1733512866546695000,8.24269482421875,-2.737190921717882,8.016627700680495,-5.8511979712754485
1733512866556770000,8.25277001953125,-2.59817700330317,9.501916527074576,-5.1640603412449355
1733512866566845000,8.262844970703124,-2.176049907618761,9.400968427681923,-3.844129542572796
1733512866576920000,8.272920166015625,-1.711587791160494,7.904152245101332,-1.8260550050787627
1733512866586996000,8.282995849609375,-1.5265769684635102,6.123289988315105,-0.036856717226933684
1733512866597070800,8.29307080078125,-0.8484637718878686,4.6582864095807075,1.6213935793638228
1733512866607146000,8.30314599609375,-0.322048326472193,3.5470132666528222,2.6264994269460438
1733512866617221000,8.31322119140625,0.33038667735904453,2.5605875696212053,3.1557799064040184
1733512866627296000,8.3232958984375,0.9272866217773407,1.756578294879198,3.930261181105673
1733512866637371100,8.33337109375,0.8742180986084044,1.059067739394307,5.1028825267046685
1733512866647446000,8.343446044921874,0.014125555986166,0.6632096419543028,6.567896626833081
1733512866657522000,8.35352197265625,-1.3245616733431815,0.3210907334864139,8.423516310700773
1733512866667597000,8.36359716796875,-2.6042577845215797,0.1204676233768463,9.932605114877223
1733512866677672000,8.373671875,-3.293578603810072,-0.343151758646965,10.665263556110858
1733512866687747000,8.3837470703125,-3.0754782891988754,-1.5328168857663869,10.613774191892146
1733512866697822200,8.393822265625,-1.85583011174798,-2.7150854728937146,9.794524677920341
1733512866707896800,8.403896728515624,-0.3208008106291294,-3.3089380855053663,8.403170857286453
1733512866717972000,8.413971923828125,0.9257587546229362,-2.921535681721568,6.984911494070291
1733512866728048000,8.424048095703125,1.739669830176234,-2.2538006712973115,5.536107939508557
1733512866738123000,8.434123046875,2.212984092262387,-1.5270359642773865,4.0281893481552595
1733512866748198100,8.4441982421875,2.5974451818972826,-0.5311310757607222,2.4750226250603795
1733512866758273000,8.45427294921875,3.1886259449511765,0.4596545700460672,1.0751065816558898
1733512866768348000,8.464347900390624,3.9363451771944757,1.2778694802731274,-0.2145817850962281
1733512866778423000,8.474423095703125,4.9757805798798795,2.0520722302943466,-1.597478450769186
1733512866788499200,8.484499267578125,6.163100605177879,2.9665210708737373,-2.8103505582138895
1733512866798574000,8.494573974609375,7.052393377190828,3.65313613833487,-3.498460248146951
1733512866808649000,8.50464892578125,7.68485073800683,3.9166070420235393,-4.383468182447553
1733512866818723800,8.514723876953125,7.918495827752351,3.4584687217593193,-5.336216650804877
1733512866828799000,8.524799072265624,7.5841627508550875,2.5384640006184576,-6.384104240015149
1733512866838874000,8.5348740234375,6.764586489146947,1.5316151087611913,-7.315711136144399
1733512866848949000,8.544948974609374,5.65477231285572,0.5035130009949207,-8.086165347287059
1733512866859025000,8.55502490234375,4.121052340769768,-0.5415279666125774,-8.617156722316146
1733512866869100000,8.56510009765625,2.5631378386259076,-1.4458417821466922,-8.663290696981548
1733512866879175000,8.5751748046875,1.329727823934704,-2.125092458319664,-7.97196730569899
1733512866889250000,8.58525,0.5630449480243027,-2.3192343897163865,-6.6042176480144255
1733512866899325000,8.595324951171875,0.2400305529989302,-2.1016846947252747,-4.9528258207499976
1733512866909400000,8.605400146484374,0.1237532209187746,-1.6517384487450122,-3.1840625825583935
1733512866919475200,8.61547509765625,0.1319447106808424,-1.1095300986528396,-1.4973025047928095
1733512866929551000,8.625551025390624,0.46407881622910496,-0.45394612927138805,0.02208382151424885
1733512866939626000,8.6356259765625,0.8949415915548801,-0.05997603753507137,1.2301157954514026
1733512866949701000,8.645701171875,1.3212855742819607,-0.03810322842299938,2.1353955334082246
1733512866959776000,8.65577587890625,1.6198130321741102,-0.1929775637924671,2.7917174616754052
1733512866969851100,8.66585107421875,1.8574784634768962,-0.3747451667845249,3.39367739289701
1733512866979926000,8.675926025390625,2.1279332347035407,-0.7088035183936358,3.8967292061209675
1733512866990002000,8.686001953125,2.454430211147666,-1.2137415837556123,4.226858109326661
1733512867000077000,8.6960771484375,2.643781985658407,-1.8278847047239541,4.447665052548051
1733512867010152200,8.706152099609374,2.8229367758035657,-2.431175007766485,4.624069374941289
1733512867020227000,8.71622705078125,2.915930701321363,-2.8815953009992836,4.736216036957502
1733512867030302000,8.726302001953124,2.873215010666847,-3.1261341252028942,4.882794545407593
1733512867040376800,8.736376953125,2.6939123364835975,-3.139377637657523,4.9690977411150925
1733512867050452000,8.746451904296874,2.437012043356895,-2.9476731625407933,5.054545489037037
1733512867060528000,8.756528076171875,2.08030229947865,-2.672745629814267,5.055458512228727
1733512867070603000,8.76660302734375,1.4344745849579572,-2.2487492331266403,4.9386131710022685
1733512867080678000,8.776677978515625,0.38458968445062636,-1.5385732573360205,4.5321384024798865
1733512867090753000,8.7867529296875,-1.6466026932917535,-0.6023842941135168,3.7860225137799977
1733512867100828000,8.796827880859375,-6.702092915832996,0.6615513533532619,2.222106140872836
1733512867110903000,8.806903076171874,-11.7262619713068,1.9099258590728043,0.21301314754001796
1733512867120978200,8.816978271484375,-11.129822849333285,1.869590341553092,-0.7380858731098473
1733512867131053800,8.8270537109375,-9.897463658869265,1.5178139624238014,-1.4630197114408015
1733512867141129000,8.83712890625,-8.317242047849296,1.47085522737205,-2.0451829091720284
1733512867151204000,8.8472041015625,-5.222411992448568,1.4761778836995363,-2.1299308382615445
1733512867161279000,8.857279052734375,-2.2828711368285117,1.664414974966645,-2.0070865488812326
1733512867171354000,8.86735400390625,-0.4267851506233215,1.6460235782295465,-1.9080431140661238
1733512867181429000,8.877428955078125,0.6339934843420982,1.1229846235096455,-1.5869567644938825
1733512867191504100,8.887504150390624,1.1996902620494365,0.39571722766458983,-1.1895984916239977
1733512867201580000,8.897580078125,1.393635940221697,-0.2925602200508117,-0.6746132256306707
1733512867211655000,8.907655029296874,1.630448846348375,-0.5520113667041063,0.0371460738286376
1733512867221730000,8.91772998046875,2.042429372680187,-0.08165420085787772,0.8590968095831573
1733512867231805200,8.92780517578125,2.512590723693371,1.1981944705337286,1.724131923174113
1733512867241880000,8.937880126953125,2.9433927087426186,3.385454338952899,2.6084724796071646
1733512867251955000,8.947954833984374,3.4398441007882354,6.546404925993085,3.3975346528470514
1733512867262031000,8.958031005859375,4.073498562434316,9.910740489071607,3.846716636456549
1733512867272106000,8.96810595703125,4.782923719857632,11.412395928376913,3.469450134500861
1733512867282181000,8.97818115234375,5.3467140794217585,8.58816735919714,2.0059110753610727
1733512867292256000,8.988256103515624,5.087413739416003,2.9669086088865995,0.8880639608703553
1733512867302331000,8.998330810546875,4.388952166816592,-1.1419833384901283,0.7373275290232151
1733512867312406000,9.008406005859374,3.833753402248025,-3.4199124888718124,0.8802088634558022
1733512867322481000,9.01848095703125,3.5632360871791837,-5.01651181871891,1.1553461664754896
1733512867332557000,9.02855712890625,3.4204198538720605,-6.283795607569814,1.384824711126089
1733512867342632000,9.0386318359375,3.4446447790682315,-7.158180733308195,1.436468681384623
1733512867352706800,9.048706787109374,3.3118624485194683,-7.5576283796727655,1.4000436153069138
1733512867362782000,9.058781982421875,2.9072634107410904,-7.237830608606338,1.2610562926381825
1733512867372857000,9.068857177734374,2.657943197479844,-5.912200429248809,1.0001596233516932
1733512867382932000,9.078931884765625,2.407678542975336,-3.930268487629294,0.8150646295025944
1733512867393007900,9.0890078125,2.544969729250669,-1.3415467104136942,0.36508660014458
1733512867403083000,9.0990830078125,3.111529261267185,1.430207575163245,-0.44888311026077715
1733512867413158000,9.109157958984374,2.926259787634015,3.6693028447598217,-0.8271165210198611
1733512867423233000,9.11923291015625,2.1527163783043624,5.269974538612366,-1.0638744090236723
1733512867433308200,9.12930810546875,1.447889946848154,6.1455515044838185,-1.2633568246655165
1733512867443383000,9.139383056640625,1.372616386938095,6.085144089794158,-1.3602197005711496
1733512867453458200,9.149458251953124,1.5252332987695931,4.8777866541177035,-1.4233417810469864
1733512867463534000,9.1595341796875,0.9898363822579384,3.1065877132117747,-2.251365406974405
1733512867473609000,9.16960888671875,-0.1569149012863636,1.562626917618513,-2.964635403257608
1733512867483684000,9.17968408203125,-1.1990788521528244,0.6167366445928811,-3.1463249725773927
1733512867493759000,9.189759033203124,-1.852587184303999,-0.0584060117393732,-2.734422918309271
1733512867503834000,9.199834228515625,-2.3530524881660937,-0.6571855593591928,-2.2585586794793606
1733512867513909000,9.209908935546874,-2.619205178284645,-1.0995213303357363,-2.1492209374040363
1733512867523984000,9.21998388671875,-2.7207237710416314,-1.2467431051254272,-2.248101436742395
1733512867534060000,9.23006005859375,-2.8131717531144615,-1.2649684976458548,-2.3248550060771405
1733512867544135200,9.24013525390625,-2.781039415794611,-1.3490887963563203,-2.2978790286071598
1733512867554210000,9.2502099609375,-2.7247967195689675,-1.1749316683679818,-2.237390365374833
1733512867564285200,9.26028515625,-2.6620272519230843,-0.7691670939415692,-1.9600626396387815
1733512867574360300,9.2703603515625,-2.523375152558088,-0.5375374356716871,-1.3682482548564672
1733512867584435200,9.280435302734375,-2.4007788465894757,-0.4670616314321756,-0.8078539674714207
1733512867594511400,9.290511474609374,-2.291282552951574,-0.48063189162313935,-0.38519123054035004
1733512867604586200,9.300586181640625,-2.190312387857586,-0.5768395184904337,-0.08527934168563224
1733512867614661000,9.3106611328125,-2.087032046125084,-0.8150947323799133,0.09092406044118106
1733512867624736300,9.320736328125,-1.9394354466736317,-1.0492904417455196,0.20060546485502273
1733512867634811100,9.33081103515625,-1.7439140436172484,-1.1325158374428748,0.3897038856592029
1733512867644886300,9.34088623046875,-1.4927999326765535,-1.1301099453449248,0.6099435503866523
1733512867654961400,9.35096142578125,-1.1017220552504061,-0.9982675259947776,0.8336736145131289
1733512867665037000,9.361037109375,-0.585038460906595,-0.8092062588632106,1.099587819700688
1733512867675112200,9.3711123046875,-0.04232508390173316,-0.5512836369514466,1.3285709089845419
1733512867685187300,9.381187255859375,0.28054829521775243,-0.1417301916360855,1.5072832160592078
1733512867695262200,9.39126220703125,-0.1134089370369911,0.29754210011661053,1.4023457547694445
1733512867705337300,9.40133740234375,-0.7953766170836984,0.6052408525884151,1.6164055618181823
1733512867715412500,9.41141259765625,-1.5504080720365045,0.6748556560844182,1.7833417986422777
1733512867725487400,9.4214873046875,-2.34636804196611,0.5300923803627491,1.5760169989369808
1733512867735563300,9.431563232421874,-3.0870021382540465,0.43883390033543107,1.3847320644065737
1733512867745638400,9.441638427734375,-3.8455066761448977,0.43217268888056276,1.1724866863686592
1733512867755713300,9.45171337890625,-4.553473451453447,0.5675713394075632,0.7029416406229138
1733512867765788400,9.461788330078125,-5.092177008295059,0.7726759788453579,-0.11637292880858294
1733512867775863300,9.47186328125,-5.359353780764341,1.0680863276302814,-1.1301323033072053
1733512867785938200,9.481938232421875,-5.334017094933986,1.6703338436216115,-2.1499387302845716
1733512867796014300,9.492014404296874,-5.0487581378072495,2.64049405002892,-3.102695089687407
1733512867806089200,9.502089111328125,-4.571538977237045,3.42556832267642,-3.898255977296829
1733512867816164400,9.512164306640624,-3.9666406544759867,4.016442211738228,-4.41897350333184
1733512867826239200,9.5222392578125,-3.6095135619685053,4.923320909324288,-4.7613802888303995
1733512867836314000,9.532314208984374,-3.5722657813310623,6.27214433274269,-5.06349042751491
1733512867846389200,9.54238916015625,-3.6288013230234384,7.508990897753835,-5.207682625350356
1733512867856465400,9.55246533203125,-3.5368764880418775,8.337287057012318,-4.996250536456704
1733512867866540300,9.562540283203125,-3.2373838383793827,8.319948384198545,-4.370515177372098
1733512867876615200,9.572615234375,-2.8972260008513926,6.8304159288853405,-3.111270025809109
1733512867886690300,9.582690185546875,-2.553721190983057,4.458865660998225,-1.4628642286181448
1733512867896765200,9.59276513671875,-2.2105472205042838,2.582906368935108,0.00945117096696049
1733512867906840300,9.60284033203125,-1.9103927459321914,1.1500433108270167,1.1764111663360148
1733512867916915200,9.612915283203124,-1.5860323431253431,0.10124152938127517,2.0610436183877288
1733512867926991000,9.6229912109375,-1.280211805615574,-0.5757113912433386,2.735152109366655
1733512867937066200,9.633066162109374,-1.3465071093000471,-1.0612784011811018,3.5432658968180415
1733512867947141000,9.64314111328125,-2.3511517691113055,-1.3973375712186098,4.950092596393823
1733512867957216300,9.65321630859375,-3.5424423054754732,-1.4250690432310102,6.711771429282426
1733512867967291400,9.66329150390625,-4.204204086709022,-1.4616343945622443,8.181584454125165
1733512867977366300,9.6733662109375,-4.301753775835037,-1.5831483121216297,8.876493887200951
1733512867987441400,9.68344140625,-3.4602012446403503,-1.8290929114699364,8.369298982822894
1733512867997517300,9.693517333984374,-1.9912663178063927,-1.905228641167283,7.215291444540023
1733512868007592200,9.70359228515625,-0.18422378223882988,-1.6232371614038943,5.844771153098344
1733512868017667300,9.713667236328124,1.4243167635589837,-0.9384674295485019,4.722360237823427
1733512868027742200,9.7237421875,2.676397722581029,-0.06842413240671158,3.7663314326211808
1733512868037817300,9.7338173828125,3.7313200327336786,1.2701730805516243,2.5343214939862486
1733512868047892200,9.743892333984375,4.6351522022306915,2.833803622254729,1.0236638330578804
1733512868057968400,9.753968505859374,5.595328774762153,4.227430063995719,-0.43798181355074045
1733512868068043300,9.764043212890625,6.575285568040609,5.289536732694506,-1.4195111168429255
1733512868078118400,9.774118408203124,7.377387547856569,6.101712947279214,-1.9421106572322546
1733512868088193300,9.784193359375,8.56858470684886,6.496857928013801,-2.5809602033033965
1733512868098268200,9.79426806640625,9.700178753271699,6.223870423439145,-3.084011432005465
1733512868108343300,9.80434326171875,9.464378531318902,4.802079378965496,-3.3726553553953766
1733512868118418200,9.814418212890626,8.235793598696588,2.936080924424529,-3.5741841821730134
1733512868128494300,9.824494384765625,6.800183287706971,1.3271616267085076,-3.7383851488143205
1733512868138569500,9.834569580078124,5.367340103343129,-0.27395605734586714,-3.8122619936689732
1733512868148644000,9.84464404296875,3.964241484379768,-1.6136445726722477,-4.047551343490183
1733512868158719200,9.85471923828125,2.703721782836318,-2.670384745901823,-4.351332630257308
1733512868168794000,9.864794189453125,1.4642660582400857,-3.422925114691257,-4.545852162794769
1733512868178869200,9.874869140625,0.24473989973366259,-3.7422067529290914,-4.3485868386805056
1733512868188945400,9.8849453125,-0.7584883174084126,-3.560404078623652,-3.5184468051210045
1733512868199020000,9.89502001953125,-1.02914299512133,-3.0427433098107572,-2.4065692665591834
1733512868209095200,9.90509521484375,-0.5192635278344154,-2.3938702362447977,-1.268391603962332
1733512868219170300,9.91517041015625,0.12621230450868606,-1.7456851449429989,-0.25538791580237447
1733512868229245200,9.9252451171875,0.8200941481024027,-1.2003472646534443,0.504315403418988
1733512868239320300,9.9353203125,1.3668465713649987,-0.8662292918115854,0.9409372537281364
1733512868249395500,9.9453955078125,1.7079264921739696,-0.7997036865025758,1.146826540737599
1733512868259471000,9.95547119140625,1.856888827020675,-0.8895867865234612,1.377271227006614
1733512868269546200,9.965546142578125,1.9636036732465028,-1.1462766517698764,1.6253421708591282
1733512868279621400,9.975621337890624,2.0533225226163863,-1.3764701397567987,1.9217874156497419
1733512868289696300,9.9856962890625,2.0389077744252977,-1.6147025572925806,2.2131693857014176
1733512868299771400,9.995771484375,1.8975952236793934,-1.8629034111350773,2.354614622916281
1733512868309846300,10.00584619140625,1.6771822482116518,-2.103944456350803,2.3580235545769335
1733512868319922200,10.015922119140624,1.3717872426375746,-2.1865707171112296,2.24334547438696
1733512868329997300,10.025997314453125,0.9173242498852312,-1.9878215841799973,2.1469562073424457
1733512868340072200,10.036072265625,0.22035087001696227,-1.591806834873557,2.0938488865330815
1733512868350147300,10.046147216796875,-0.49875002437680954,-1.1859265251129865,1.9603259667500852
1733512868360222500,10.056222412109374,-1.4712722837403416,-0.857363848310709,1.7505249861896037
1733512868370297000,10.066297119140625,-2.3821599247068166,-0.5988169570207595,1.4929513238459824
1733512868380372200,10.076372314453126,-2.932736874693632,-0.43572073675096035,1.2865680427744983
1733512868390448400,10.086448486328125,-3.2420693658471107,-0.30239363180100914,1.0795687486965209
1733512868400523300,10.096523193359374,-3.371410616031289,-0.1987725138068199,0.7138245614260434
1733512868410598400,10.106598388671875,-3.4298253955990075,-0.19567630135715006,0.20839586300291119
1733512868420673300,10.11667333984375,-3.331872094108164,-0.28433424349725245,-0.4741033666372299
1733512868430748200,10.126748046875,-3.282662657520175,-0.37312662567198274,-1.3659411469578742
1733512868440823300,10.1368232421875,-3.3494542202889916,-0.32861469925045966,-2.467121058155596
1733512868450899500,10.1468994140625,-3.493926404109597,-0.12930968600213527,-3.686535134589672
1733512868460974300,10.156974365234374,-3.5563995191574094,0.1302718090325594,-4.809438217295706
1733512868471049200,10.16704931640625,-2.9939123511463404,0.38841128856539725,-5.527939830622077
1733512868481124000,10.1771240234375,-1.8294558995634316,0.5038035083740949,-5.458602090501785
1733512868491199200,10.18719921875,-0.6561763823166489,0.2484387542515993,-4.358388978509605
1733512868501274400,10.1972744140625,0.11301350797861814,-0.5649678789108992,-2.529710785320401
1733512868511349200,10.207349365234375,0.5707559607930481,-1.536414033475518,-1.4608381296180188
1733512868521425200,10.217425048828124,0.8691565774351357,-2.4581442632347343,-0.6569939823098481
1733512868531500300,10.227500244140625,1.0634884784460068,-3.3264047686129805,0.0727070704229176
1733512868541575200,10.2375751953125,1.3536562504023313,-4.002460448136925,0.7499764365855603
1733512868551650300,10.247650390625,1.6934806181922555,-3.937900589942932,1.5956212785951793
1733512868561724700,10.257724609375,2.074404765872657,-2.708811214929819,2.5851824971735478
1733512868571799800,10.2677998046875,2.3742788160681725,-0.4338607880979776,3.6293715241268276
1733512868581875700,10.277875732421874,2.697425313040614,2.7738375215917825,4.616968603025376
1733512868591950600,10.28795068359375,3.0452947478592396,6.763866942700743,5.5069619245231145
1733512868602025700,10.298025634765626,3.0375667839556932,10.862899759364128,6.441255867779255
1733512868612100900,10.308100830078125,2.4877941360890863,13.758361673152447,7.099266772046684
1733512868622175700,10.31817578125,1.9857893477000295,15.702736329793929,7.038133381170034
1733512868632251000,10.3282509765625,1.2749667445689439,13.859172994422911,5.909810319241881
1733512868642325800,10.33832568359375,0.3728700205624103,6.160064013960957,3.7150647712424396
1733512868652401700,10.348401611328125,-0.26575930688679217,-0.2800999669283628,2.7338442416384816
1733512868662476800,10.358476806640626,-0.810880329555273,-3.4762457859903573,2.6299861000180242
1733512868672551700,10.3685517578125,-1.1922054592519997,-5.190706940630078,2.7523820611089467
1733512868682626800,10.378626708984376,-1.1073667831391096,-6.4301300781309605,2.835379493269324
1733512868692701700,10.38870166015625,-0.5491939711958169,-7.652145569235086,3.05585910423249
1733512868702776600,10.398776611328126,0.9932856459289788,-8.441787295928597,3.0319518666833636
1733512868712852700,10.408852783203125,2.335032262828946,-8.404327041584253,2.512971831965446
1733512868722927900,10.418927978515624,2.9808301667332646,-7.125379118424654,1.776724134068191
1733512868733002800,10.429002685546875,2.9819010108351707,-4.9583600740015505,1.3670759962067007
1733512868743077600,10.43907763671875,3.0833108825206756,-2.0733266152471304,0.6555504324380308
1733512868753152500,10.449152587890625,3.6405876224070783,1.2583049481034279,-0.6262878053355961
1733512868763227600,10.4592275390625,3.808306826302409,4.178243131500483,-1.9382592425011098
1733512868773303800,10.4693037109375,3.770938926416635,6.227642343193292,-3.290854147282243
1733512868783379000,10.47937890625,3.3955706592977046,6.9093632088720796,-4.104819583371281
1733512868793453600,10.48945361328125,3.3969863713145254,6.1169935185194015,-4.603136477027833
1733512868803528700,10.49952880859375,3.8060248528450726,4.284508626523614,-4.884489366626739
1733512868813603600,10.509603515625,2.389299859589338,2.2494816390544177,-5.437337768676877
1733512868823678700,10.5196787109375,0.4161187951803207,1.2292746684521436,-5.799153311261534
1733512868833753900,10.52975390625,-1.1380606120884418,0.2599585116535425,-5.241303155401349
1733512868843829500,10.53982958984375,-2.318465158909559,-0.7076853280186652,-4.164974484604596
1733512868853904600,10.549904541015625,-2.9502234315454956,-1.6140543225169182,-2.9377260612830516
1733512868863979800,10.559979736328126,-3.1331296831786632,-2.2105554038107393,-2.279928945896774
1733512868874054700,10.5700546875,-3.0061691906511783,-2.441915597489476,-2.2836244394138454
1733512868884129800,10.5801298828125,-2.6751696420907973,-2.150379459789395,-2.4933476785629987
1733512868894204700,10.59020458984375,-2.4949498530626295,-1.5206179139286278,-2.303370173369348
1733512868904280600,10.600280517578126,-2.5601357342004776,-0.7908785750120878,-1.9570750021301209
1733512868914355700,10.610355712890625,-2.7414903724774717,-0.3677864336878061,-1.5524590132169425
1733512868924430600,10.6204306640625,-2.8505986897110938,-0.18201368670761583,-1.2860310132883488
1733512868934505700,10.630505615234375,-2.831063968157768,-0.29093466467559337,-1.08489250100255
1733512868944580900,10.640580810546876,-2.726542101931572,-0.5163198755979538,-0.8078036255236715
1733512868954655700,10.65065576171875,-2.5607027204334734,-0.6662725366562604,-0.45039015382286157
1733512868964731600,10.660731689453126,-2.430211715692282,-0.6166910518854856,-0.037827772482484576
1733512868974806800,10.670806884765625,-2.335928481016308,-0.41045828520059585,0.41893538697101174
1733512868984881700,10.680881591796876,-2.2915682380251585,-0.1377659641802311,0.859057938877493
1733512868994956800,10.690956787109375,-2.3858792374908924,0.08147416811585426,1.1648519537065178
1733512869005032000,10.701031982421876,-2.7312162312224504,0.033031916508078574,0.9508538867823779
1733512869015106600,10.7111064453125,-2.647061153459549,0.17173837640881537,1.169756749948114
1733512869025181700,10.721181640625,-2.6085434990167617,0.17246610616147517,1.3015700893342494
1733512869035257900,10.7312578125,-2.8324001851975917,0.1396352651834488,1.1688935572475194
1733512869045332700,10.741332763671876,-3.314421777613461,0.2919248447567224,1.0030791640602053
1733512869055407900,10.751407958984375,-3.9574575233280656,0.7565496044307947,0.7695526591930538
1733512869065482500,10.761482421875,-4.722925178229809,1.3003811718106268,0.7123696864426136
1733512869075557600,10.7715576171875,-5.4533507458448405,1.6084546028137205,0.6756996326278895
1733512869085632800,10.7816328125,-6.0692427563071245,1.617691217714548,0.4253173430930823
1733512869095708700,10.791708740234375,-6.561500203794241,1.5198065975457429,-0.16818996321223675
1733512869105783800,10.80178369140625,-6.874510506677627,1.6815654317319393,-1.1350022474311292
1733512869115858700,10.811858642578125,-6.889328136581182,2.2862889824479815,-2.2545602574929595
1733512869125933600,10.82193359375,-6.42585839216113,3.3781495688974856,-3.2244226499974724
1733512869136008700,10.8320087890625,-5.742829366493225,4.906356330519914,-3.9990120612487194
1733512869146083800,10.842083740234376,-5.252857399594784,6.816221983838081,-4.68134199873656
1733512869156159700,10.85215966796875,-4.769688682970404,8.900727580225468,-5.356177488815784
1733512869166234600,10.862234619140626,-3.988113358354568,10.758686520695687,-6.017155426195264
1733512869176309800,10.872309814453125,-2.972629324620962,11.466085432988404,-5.9976762342214585
1733512869186384600,10.882384521484376,-2.0255228076733647,10.030942739510536,-4.523170667648315
1733512869196459800,10.892459716796875,-1.4404863925933837,6.689137572669982,-2.0941184972546996
1733512869206534700,10.90253466796875,-1.023345853149891,4.031845532575249,-0.10710204631197266
1733512869216609800,10.91260986328125,-0.552436167987436,2.5016233394771814,1.2617103726327419
1733512869226685700,10.922685791015626,0.011876315754652023,1.440547182869911,2.2487428033858534
1733512869236760600,10.932760498046875,0.8370750935196876,0.5572445911824703,2.944587179224193
1733512869246835700,10.942835693359376,1.6014052688241005,-0.22467443230450151,3.7005265428021548
1733512869256910800,10.952910888671875,1.9346306767404078,-1.0040092845171689,4.550990402466058
1733512869266985700,10.96298583984375,1.9691630609393118,-1.6273662240326403,5.41010314027071
1733512869277060900,10.973060791015625,1.8715069888293743,-1.9909879392564296,6.313688641530275
1733512869287136800,10.98313671875,1.724405041027069,-2.281980471599102,7.387210438212752
1733512869297211600,10.993211669921875,1.821877573263645,-2.7060663001358507,8.076534764632582
1733512869307286800,11.003286865234376,2.091882262635231,-3.3828380189746614,8.175836265861987
1733512869317362000,11.01336181640625,2.353885431858897,-3.8498324303895233,7.562196418240666
1733512869327436800,11.023436767578126,2.5850819594085217,-3.560083760628104,6.177849261498451
1733512869337511700,11.03351171875,2.7108167095333338,-2.9101380893945694,4.471354847954213
1733512869347587800,11.043587890625,2.816655503576994,-1.8999790500760076,2.976689998188615
1733512869357662700,11.053662841796875,2.992706482487917,-0.7949842567652463,1.7240885224238036
1733512869367737900,11.06373779296875,3.4161814856499433,0.4285258568108082,0.6029494171829893
1733512869377812700,11.073812744140625,4.03926779153049,1.8564105419844388,-0.20752415820229797
1733512869387887600,11.0838876953125,4.762486204245686,3.305577084639668,-0.7512002792920917
1733512869397962800,11.093962646484375,5.389300006216764,4.510235198229551,-1.1863764608375726
1733512869408037600,11.10403759765625,5.642330179911852,5.149360784763098,-1.751325342787057
1733512869418113800,11.11411376953125,5.4452083559215065,4.821538112673164,-2.5920380621567367
1733512869428189000,11.12418896484375,5.170025387129187,3.796348092961311,-3.3616783265680072
1733512869438263600,11.134263671875,4.7452410549342625,2.3444611854314803,-3.903293679203093
1733512869448338700,11.144338623046876,4.166044744184613,0.9956704952389002,-4.2962732985973355
1733512869458413800,11.154413818359375,3.630836043721437,-0.19839958884119988,-4.585446798819303
1733512869468488700,11.16448876953125,3.0321856754392384,-1.1287187832474708,-4.7183825663641095
1733512869478564900,11.17456494140625,2.1773053145073353,-1.8322119202733038,-4.622662430752814
1733512869488639700,11.1846396484375,1.0705730298794804,-2.1639263391047714,-4.191280892249941
1733512869498714600,11.194714599609375,-0.026163638173788785,-2.0397206982433795,-3.437106784778833
1733512869508789800,11.204789794921876,-0.46509632270857687,-1.618064142680168,-2.4134907363854348
1733512869518864600,11.21486474609375,-0.22888518186733126,-1.2890923005551098,-1.3152443944215775
1733512869528939800,11.224939697265626,0.1902805797934532,-1.1224001016199587,-0.2492137572120875
1733512869539015700,11.235015625,0.7103856730185448,-0.9909078108817339,0.6927017669636756
1733512869549090600,11.245090576171876,1.257528995294869,-0.9806278244078159,1.3826486822612583
1733512869559166000,11.255166015625,1.813333178410679,-1.016255018106103,1.8825006765305994
1733512869569241000,11.265240966796876,2.3291174858272075,-1.1344769083827733,2.2020731144085524
1733512869579316000,11.27531591796875,2.7949773402541873,-1.377896373167634,2.4643892951041457
1733512869589391000,11.28539111328125,3.204569364014268,-1.7636492561787367,2.722998145714402
1733512869599466000,11.295466064453125,3.4928257493913173,-2.272916875177622,2.9737299793392418
1733512869609542100,11.305542236328124,3.7234906542822714,-2.748949748572707,3.265230168943107
1733512869619617000,11.315616943359375,3.79072762273103,-3.0945921549916267,3.5889161796197295
1733512869629692200,11.325692138671876,3.733756612230837,-3.2661955068439243,3.9327185111299157
1733512869639767000,11.33576708984375,3.638569268321991,-3.1744735009580847,4.256393708151578
1733512869649842000,11.345842041015626,3.3199539850383997,-2.8110405863046646,4.493243731418252
1733512869659917000,11.3559169921875,2.695799173143506,-2.3350813626676796,4.562443232111632
1733512869669993000,11.365992919921876,1.9144705167651175,-1.7338544218957423,4.328834967245161
1733512869680068000,11.376068115234375,0.8493880471259355,-1.0138093785196542,3.86336002048254
1733512869690143200,11.386143310546874,-1.3065794419288634,0.050831777092814445,3.039544221508503
1733512869700217900,11.3962177734375,-6.014640228503942,1.5825298879623413,1.3690715539380907
1733512869710293000,11.40629296875,-9.53129985794723,2.9018776260495183,-0.39005131085738537
1733512869720367900,11.416367919921875,-8.527630180647968,2.714978505387902,-1.1075760419756173
1733512869730444000,11.426444091796874,-6.568007101470232,1.735326248013973,-1.4559388132691382
1733512869740519200,11.436519287109375,-5.663607361218333,0.8760375691205262,-1.9140446925684809
1733512869750593800,11.44659375,-4.771942599377036,0.22364567377865313,-2.25742660670951
1733512869760669000,11.4566689453125,-3.2746196363180875,-0.1675765805542469,-2.249131364312023
1733512869770744000,11.466744140625,-1.793621200594306,-0.25885902597904203,-1.8634882252857088
1733512869780819000,11.47681884765625,-0.8607480839215218,-0.09369652082920074,-1.2705994892701507
1733512869790895000,11.48689501953125,-0.3422591937214136,0.499159481960535,-0.5908090071320533
1733512869800970000,11.496969970703125,0.010396890851855278,1.6099299360632895,0.08763568642027676
1733512869811044900,11.507044921875,0.4453057266980409,3.5046249082565306,0.9639509034384042
1733512869821120000,11.5171201171875,0.9491250171631574,5.949831948506832,1.947814275701344
1733512869831195100,11.527195068359376,1.47777961980775,8.389406535828114,2.8707722936898468
1733512869841270000,11.53727001953125,2.170574106556177,10.104176318025589,3.34294849165678
1733512869851346000,11.547345947265624,2.8109885638564824,8.965689589479565,2.976716009412706
1733512869861421000,11.557421142578125,3.389794998505711,4.57439232084155,2.0385607145532965
1733512869871496000,11.567495849609376,3.9418998887121677,0.3063730568259954,1.1613840584002435
1733512869881571000,11.577571044921875,4.8689147808760405,-2.319069554543495,0.989830025582388
1733512869891646000,11.58764599609375,5.773101170638204,-4.249049190607667,1.284631960145384
1733512869901721000,11.59772119140625,5.772825276306271,-5.819981579756736,1.3811862084932625
1733512869911796000,11.6077958984375,5.450717474731802,-7.284834351843595,1.454723299999535
1733512869921872000,11.617871826171875,4.78816132825017,-8.270321891242265,1.4727455711632966
1733512869931947000,11.627947021484376,3.743072429847717,-8.27062876523435,1.5004812809593975
1733512869942022100,11.638022216796875,2.8384821354597807,-6.98062519505322,1.5549455693356693
1733512869952097000,11.648096923828126,2.3278597408510744,-4.981103820729255,1.635849828609079
1733512869962172000,11.658171875,2.673127907130122,-2.488300332045555,1.1647329304367302
1733512869972247000,11.6682470703125,3.8346003744661807,0.3872060044288635,-0.22456322701498865
1733512869982323000,11.678322998046875,4.063831739422679,3.0004987437993287,-1.2263460676543414
1733512869992398000,11.688398193359374,3.4161920070439575,4.999321029943228,-1.738431520552933
1733512870002473200,11.69847314453125,2.5235142687678334,6.199907948571443,-1.8947119233280418
1733512870012548000,11.708548095703126,1.546172041901946,6.6757151965171095,-1.9613434732295572
1733512870022623000,11.718623046875,1.2039765610665083,6.045601183956861,-2.0789675437435506
1733512870032697900,11.72869775390625,1.167814529839158,4.160635578617454,-2.647402221982181
1733512870042774000,11.73877392578125,0.4039981492757797,2.4577350979119537,-3.3676807818531986
1733512870052849200,11.74884912109375,-0.7369991007864475,1.3843775518804788,-3.5847526301994916
1733512870062924000,11.758924072265625,-1.816038199585676,0.6526917550712823,-3.572944995766878
1733512870072999000,11.7689990234375,-2.6511481305122375,0.09216858060956001,-3.571109889294207
1733512870083074000,11.779073974609375,-3.193212688219547,-0.39855391239523885,-3.73411463188827
1733512870093149000,11.78914892578125,-3.4871605632364746,-0.8207453054875135,-3.828004921723902
1733512870103225000,11.79922509765625,-3.620481822967529,-1.0666343752563,-3.8634228565856814
1733512870113300000,11.809300048828124,-3.5927941900968547,-1.1776853509902954,-3.8578234291434286
1733512870123374800,11.819374755859375,-3.4638968842878937,-1.1864976029992103,-3.7896407042771574
1733512870133450000,11.829449951171876,-3.2522073135018346,-0.9224661428183316,-3.5586730170473455
1733512870143525000,11.839525146484375,-3.1252620185434816,-0.6219289525389671,-2.912499850089848
1733512870153600000,11.84960009765625,-3.0077298640966412,-0.5084668240100145,-2.176761124628037
1733512870163676000,11.859676025390625,-2.9074563029646874,-0.5185054029434919,-1.5436887006536126
1733512870173751000,11.8697509765625,-2.8033997161626814,-0.6650204907685517,-1.0796588381327688
1733512870183826000,11.879825927734375,-2.698527136802673,-1.0467109466463327,-0.832457151395455
1733512870193901000,11.889901123046876,-2.5079414365828034,-1.4856453847467899,-0.621542510504648
1733512870203976000,11.899975830078125,-2.1886358329474924,-1.7455536275178194,-0.35314405075330285
1733512870214051000,11.910051025390626,-1.7915772736765443,-1.6327870800375937,-0.008289614091010297
1733512870224126200,11.920126220703125,-1.2364964363992212,-1.26081839222908,0.34870478966422375
1733512870234201900,11.930201904296876,-0.3163200119532645,-0.7290671387434006,0.6140011552143841
1733512870244277000,11.940277099609375,0.9488216503024101,-0.15416764840483665,0.8340457357611507
1733512870254352100,11.95035205078125,1.7191105878807604,0.08740063555538653,1.0794209377236663
1733512870264427000,11.960427001953125,2.057949744025618,-0.08510814070403576,1.24765203666389
1733512870274502100,11.970502197265626,1.4857552748620508,-0.3669634268671274,1.1988978695627301
1733512870284577000,11.980576904296875,1.0627613332152366,-0.42402679182589054,1.7255629788905382
1733512870294653000,11.99065283203125,0.12036591656804084,-0.4842272857666015,2.102714037773013
1733512870304728000,12.00072802734375,-0.816534994316101,-0.285407425686717,2.3678654418945313
1733512870314803200,12.01080322265625,-1.769334608338773,0.09157178376019,2.700047770498693
1733512870324878000,12.020878173828125,-2.7313676223918795,0.6791226658791303,2.9142703668937084
1733512870334953000,12.030952880859376,-3.728424311292171,1.4186515774041413,2.6889590979903937
1733512870345027800,12.04102783203125,-4.618189376991987,2.1837352014243603,1.9102783257722853
1733512870355104000,12.05110400390625,-5.175709862506389,2.9378479340970514,0.489058651445806
1733512870365179100,12.06117919921875,-5.286814029732346,3.9058214441150425,-1.2011938715454191
1733512870375254000,12.07125390625,-5.058201088935136,4.9506853015899654,-2.5456723245620725
1733512870385329000,12.081328857421875,-4.524862273997068,6.176196818116307,-3.5444729345202446
1733512870395404000,12.091404052734376,-3.8783012767657636,7.796256518527865,-4.558076561334729
1733512870405479000,12.10147900390625,-3.2913468992352484,9.493524546304345,-5.460535104390979
1733512870415555000,12.11155517578125,-2.8212030838787556,10.47417165993452,-6.082074765351415
1733512870425630200,12.121630126953125,-2.511273211354017,9.599846739950776,-6.001082243272662
1733512870435704800,12.131704833984376,-2.538924603867531,6.770088593694568,-4.697822008894383
1733512870445780000,12.141780029296875,-2.8924758837148548,3.534436109152436,-3.054512365798652
1733512870455855000,12.151855224609376,-3.303288681441545,1.1694196269482373,-1.7383192923501134
1733512870465930000,12.161929931640625,-3.6317324080392717,-0.19736732318401334,-0.49449956385809923
1733512870476006100,12.172006103515624,-3.6988729303762313,-1.0736825402021408,0.7761238542769103
1733512870486081000,12.1820810546875,-4.112067070281506,-1.8093711429119108,2.2181975891269743
1733512870496156000,12.192156005859376,-6.712564625486731,-2.417161679983139,4.402600168418884
1733512870506231000,12.20223095703125,-8.407790918302535,-2.7714807293325663,6.479969921576976
1733512870516306000,12.212305908203126,-7.940526457774639,-2.9175211853832006,7.706480386012792
1733512870526381000,12.222381103515625,-6.3352855563104145,-2.761318816280365,7.811240152648091
1733512870536457000,12.23245703125,-4.0572564526855945,-2.389686813080311,7.109640282022952
1733512870546531800,12.24253173828125,-2.0671979032337666,-1.9533143344223498,6.249173206999898
1733512870556607000,12.25260693359375,-0.32409634504318235,-1.4367285013645887,5.4116497851908205
1733512870566681900,12.262681884765625,1.023220765465498,-0.7329922032326459,4.819533202591538
1733512870576756700,12.2727568359375,2.053428905600309,0.1774099923044443,4.355250388222933
1733512870586832000,12.282831787109375,2.982745060443878,1.2942588895380496,3.7653023818343874
1733512870596907800,12.29290771484375,3.9694215173661704,2.721095526963472,2.7623694943770767
1733512870606982700,12.302982666015625,5.210274979931116,4.348246062418818,1.2879400617800651
1733512870617057800,12.313057861328126,6.513835366299748,5.662471050664783,-0.21384791786372662
1733512870627132700,12.323132568359375,7.549014280584454,6.570133592104911,-1.3154041150279343
1733512870637207800,12.333207763671876,8.595678465479612,7.148223987439274,-2.2013502069614828
1733512870647283000,12.343282958984375,9.641201663646102,7.176735796174406,-2.5529388084337112
1733512870657358600,12.353358642578126,10.110408490413427,6.323289998090266,-2.5510823669120666
1733512870667433700,12.363433837890625,9.366223862037062,4.903359486791492,-2.761623936706781
1733512870677508900,12.3735087890625,8.052420314073562,3.1619805146098137,-3.2180051841706034
1733512870687583700,12.383583740234375,6.725384944093227,1.5863438932925462,-3.681837039901316
1733512870697659000,12.393658935546876,5.47384875947237,0.16216858403086662,-4.27719479637891
1733512870707733800,12.403733642578125,4.471320068901777,-1.1285662230342626,-4.836718438409268
1733512870717809700,12.4138095703125,3.527212879900634,-2.198345326057076,-5.121949046224356
1733512870727884800,12.423884765625,2.473255323126912,-2.831080334770679,-5.271583727374672
1733512870737960000,12.4339599609375,1.4005702695295215,-2.993513707217574,-5.205357397273183
1733512870748034800,12.444034912109375,0.3778877025939524,-2.715053324189782,-4.708176521909237
1733512870758109700,12.454109619140626,-0.3648578328900039,-2.2013065139502284,-3.6002266781851646
1733512870768184600,12.4641845703125,-0.6415494526796043,-1.664157785335183,-2.238026617451757
1733512870778259700,12.474259765625,-0.3083154230654239,-1.2682903355449437,-0.8639984640195966
1733512870788335900,12.4843359375,0.2875299707986414,-1.094103981462121,0.31513646472450346
1733512870798410800,12.49441064453125,0.9524258122742175,-1.087591238567233,1.2211996446765958
1733512870808485600,12.504485595703125,1.6306301942646502,-1.1268775392949582,1.8862571064546703
1733512870818560800,12.514560791015626,2.25085643453896,-1.2953712346941233,2.413044161661714
1733512870828635600,12.5246357421875,2.7919685138270256,-1.4385259061753748,2.9465631554722784
1733512870838710800,12.534710693359376,3.2706194607660173,-1.7152070045709609,3.4501813704073427
1733512870848787000,12.544786865234375,3.724208154901862,-2.206471933889389,3.8348996496737002
1733512870858861600,12.554861572265626,4.169515635165572,-2.7828432503461835,4.162083439338207
1733512870868936700,12.564936767578125,4.481042421492934,-3.2267092996299267,4.498837313641608
1733512870879011800,12.57501171875,4.6333749634251,-3.392216672694683,4.882886023083329
1733512870889086700,12.585086669921875,4.543949544043839,-3.3053806852847334,5.3212634118229145
1733512870899161900,12.595161865234376,4.25688675236553,-3.038428369221091,5.662831116148829
1733512870909237800,12.60523779296875,3.7600375931739807,-2.6409721889346836,5.8355807154268025
1733512870919312600,12.615312744140626,3.118184042981267,-2.199026294058561,5.7543719202488655
1733512870929387800,12.6253876953125,2.367130259487778,-1.6591536934375761,5.42006105518341
1733512870939462700,12.635462646484376,1.424139068904519,-0.6869833162516356,4.890794019728899
1733512870949537800,12.645537841796875,0.39757074657678604,0.6074795714259147,4.157434736749529
1733512870959613000,12.655613037109376,-1.0593201067201792,1.8705746764153242,3.168423699399829
1733512870969688600,12.6656884765625,-10.424743319898843,3.712721130725741,0.1420265442341566
1733512870979763700,12.675763671875,-23.43538342272043,5.784482396352291,-4.852080258192122
1733512870989838800,12.6858388671875,-15.321729764527081,3.4958050574630497,-4.480704567840695
1733512870999913700,12.695913818359376,-9.432960479748248,1.9005021971672773,-3.5041125748202204
1733512871009988900,12.70598876953125,-5.286493127214908,1.7855974686145781,-2.9543048556402325
1733512871020064000,12.71606396484375,-2.1489783608198163,2.071637346985936,-2.412353695179522
1733512871030139600,12.7261396484375,-0.059434039612859486,1.935878046452999,-1.7877271741196512
1733512871040214800,12.73621484375,1.2582608167007565,1.2133294958233833,-1.1813260455802082
