time,seconds_elapsed,z,y,x
1733512129333148200,0.023148193359375,-0.05450873821973801,0.053101979196071625,-0.1604188233613968
1733512129343223300,0.033223388671875,-0.046135228127241135,0.06537328660488129,-0.13800139725208282
1733512129353297200,0.043297119140625,-0.03455221652984619,0.09584188461303711,-0.12377696484327316
1733512129363372300,0.053372314453125,-0.027704697102308273,0.1377861350774765,-0.11605886369943619
1733512129373447200,0.063447265625,-0.02837584912776947,0.1694905161857605,-0.1079770028591156
1733512129383522300,0.073522216796875,-0.0375341959297657,0.18618188798427582,-0.09803808480501175
1733512129393596200,0.08359619140625,-0.04723014310002327,0.18797145783901215,-0.10471823811531067
1733512129403671300,0.09367138671875,-0.05152102932333946,0.1849820464849472,-0.12605708837509155
1733512129413746400,0.103746337890625,-0.057535745203495026,0.1779390126466751,-0.15849921107292175
1733512129423821300,0.1138212890625,-0.06370788812637329,0.17255224287509918,-0.1953059583902359
1733512129433896200,0.123896240234375,-0.06830506771802902,0.1642778515815735,-0.23033569753170013
1733512129443970300,0.13397021484375,-0.08346431702375412,0.1658131629228592,-0.26958590745925903
1733512129454045200,0.144045166015625,-0.1019323319196701,0.17041516304016113,-0.2974109351634979
1733512129464120000,0.1541201171875,-0.1143336072564125,0.1738290786743164,-0.3060928285121918
1733512129474195200,0.1641953125,-0.12021924555301666,0.1771538257598877,-0.3176898658275604
1733512129484269000,0.17426904296875,-0.1214674711227417,0.18942327797412872,-0.32147422432899475
1733512129494344200,0.18434423828125,-0.13536898791790009,0.203761026263237,-0.30670568346977234
1733512129504419300,0.19441943359375,-0.13173164427280426,0.21536095440387726,-0.29618433117866516
1733512129514494200,0.204494140625,-0.13347093760967255,0.22876033186912537,-0.27513912320137024
1733512129524568300,0.214568359375,-0.14325858652591705,0.2414654791355133,-0.2522721588611603
1733512129534643200,0.224643310546875,-0.15736714005470276,0.26693058013916016,-0.23733699321746826
1733512129544718300,0.23471826171875,-0.17108722031116486,0.2869783043861389,-0.22292876243591309
1733512129554793500,0.24479345703125,-0.18184053897857666,0.3054550886154175,-0.21292580664157867
1733512129564868000,0.2548681640625,-0.1825726330280304,0.3150070607662201,-0.21697726845741272
1733512129574942500,0.2649423828125,-0.1858733594417572,0.32569560408592224,-0.24398957192897797
1733512129585017000,0.27501708984375,-0.17421723902225494,0.3277643620967865,-0.2770553529262543
1733512129595092200,0.28509228515625,-0.1986699402332306,0.3140643239021301,-0.31489574909210205
1733512129605167000,0.2951669921875,-0.21178413927555084,0.2966003715991974,-0.3620864450931549
1733512129615242200,0.3052421875,-0.20462219417095184,0.28443384170532227,-0.4137445092201233
1733512129625316000,0.315316162109375,-0.18014562129974365,0.2807091474533081,-0.46246063709259033
1733512129635391200,0.32539111328125,-0.14939576387405396,0.27843841910362244,-0.5037103891372681
1733512129645466400,0.33546630859375,-0.10149561613798141,0.28260067105293274,-0.5293363928794861
1733512129655541200,0.345541259765625,-0.05408094823360443,0.3006901144981384,-0.5330101847648621
1733512129665615400,0.355615478515625,-0.009249292314052582,0.3439166843891144,-0.5152841806411743
1733512129675690200,0.365690185546875,0.02337493933737278,0.4144766628742218,-0.49659156799316406
1733512129685765400,0.375765380859375,0.056974977254867554,0.49582958221435547,-0.48817306756973267
1733512129695840300,0.38584033203125,0.07454650849103928,0.5680890679359436,-0.48891979455947876
1733512129705914400,0.395914306640625,0.08049681037664413,0.6348451972007751,-0.4912883937358856
1733512129715989200,0.4059892578125,0.09087304025888443,0.7133479714393616,-0.5050881505012512
1733512129726064000,0.416064208984375,0.11975129693746567,0.8119373917579651,-0.551359236240387
1733512129736139300,0.42613916015625,0.14665517210960388,0.9215620756149292,-0.6210362911224365
1733512129746214100,0.436214111328125,0.1691487580537796,1.025891661643982,-0.6681819558143616
1733512129756288300,0.446288330078125,0.17701905965805054,1.081788182258606,-0.6693065762519836
1733512129766363100,0.456363037109375,0.17776474356651306,1.0854673385620117,-0.6224250793457031
1733512129776438300,0.466438232421875,0.1545105129480362,1.0519860982894897,-0.5324692130088806
1733512129786513400,0.476513427734375,0.09475105255842209,1.003171443939209,-0.4107499420642853
1733512129796588300,0.48658837890625,-0.001880828058347106,0.981108546257019,-0.27543187141418457
1733512129806662400,0.496662353515625,-0.10498803853988647,1.0133416652679443,-0.14196620881557465
1733512129816737300,0.5067373046875,-0.1973896324634552,1.0818979740142822,-0.006317380350083113
1733512129826812200,0.516812255859375,-0.257440984249115,1.1904289722442627,0.13946671783924103
1733512129836887300,0.52688720703125,-0.27901604771614075,1.2986128330230713,0.28556227684020996
1733512129846961400,0.53696142578125,-0.27922138571739197,1.3827335834503174,0.4392048120498657
1733512129857036300,0.547036376953125,-0.25983288884162903,1.4323523044586182,0.5933871269226074
1733512129867111400,0.557111328125,-0.24467045068740845,1.4488972425460815,0.7299149036407471
1733512129877186300,0.567186279296875,-0.24068225920200348,1.4409648180007935,0.8256196975708008
1733512129887261400,0.577261474609375,-0.24030941724777222,1.4118613004684448,0.8640461564064026
1733512129897335300,0.587335205078125,-0.2378462851047516,1.3426028490066528,0.8504418730735779
1733512129907410400,0.597410400390625,-0.2393496334552765,1.27324640750885,0.7955107092857361
1733512129917485600,0.607485595703125,-0.25320789217948914,1.199975848197937,0.6946199536323547
1733512129927560400,0.617560546875,-0.283254474401474,1.1116102933883667,0.5538210272789001
1733512129937634600,0.627634521484375,-0.3194759786128998,0.9960498213768005,0.3640724718570709
1733512129947709400,0.63770947265625,-0.3598809242248535,0.8759223222732544,0.1375463753938675
1733512129957784300,0.647784423828125,-0.38634800910949707,0.74837726354599,-0.12867286801338196
1733512129967859200,0.657859130859375,-0.38000810146331787,0.6866875290870667,-0.42728540301322937
1733512129977934300,0.667934326171875,-0.34584730863571167,0.7310795783996582,-0.738761305809021
1733512129988008400,0.678008544921875,-0.30351635813713074,0.8584945797920227,-1.062645673751831
1733512129998083300,0.688083251953125,-0.2663174271583557,1.0409480333328247,-1.3864567279815674
1733512130008158500,0.698158447265625,-0.22352388501167297,1.2267019748687744,-1.690887212753296
1733512130018233300,0.7082333984375,-0.19729319214820862,1.386051893234253,-1.937376856803894
1733512130028307500,0.718307373046875,-0.1869787722826004,1.5175124406814575,-2.113013505935669
1733512130038382300,0.72838232421875,-0.19031712412834167,1.543588399887085,-2.243582248687744
1733512130048457500,0.73845751953125,-0.14884264767169952,1.383833646774292,-2.362060308456421
1733512130058532400,0.748532470703125,0.05161885917186737,0.3313196897506714,-0.8534247279167175
1733512130068607200,0.758607177734375,0.17505185306072235,0.029778746888041496,1.1820145845413208
1733512130078681300,0.768681396484375,0.18664036691188812,0.4751145839691162,2.2626869678497314
1733512130088756200,0.778756103515625,0.18090206384658813,1.018346905708313,2.4645936489105225
1733512130098831400,0.788831298828125,0.23645083606243134,1.3072422742843628,2.2093164920806885
1733512130108906200,0.79890625,0.3265083134174347,1.2355828285217285,1.759783387184143
1733512130118980400,0.80898046875,0.3844628632068634,0.9439864754676819,1.4774993658065796
1733512130129055500,0.819055419921875,0.3617865741252899,0.8460703492164612,1.5783226490020752
1733512130139130400,0.82913037109375,0.21346475183963776,1.0815011262893677,2.0129342079162598
1733512130149205500,0.83920556640625,0.00374080752953887,1.4933867454528809,2.5916359424591064
1733512130159280400,0.8492802734375,-0.18469677865505219,1.829308271408081,3.0547523498535156
1733512130169354500,0.8593544921875,-0.3593732416629791,1.941443681716919,3.289093017578125
1733512130179429400,0.869429443359375,-0.5373371839523315,1.901425838470459,3.305152416229248
1733512130189504500,0.87950439453125,-0.699734091758728,1.6533867120742798,3.1204631328582764
1733512130199579400,0.889579345703125,-0.8243152499198914,1.211195468902588,2.747391700744629
1733512130209653500,0.899653564453125,-0.9367368817329407,0.8117069602012634,2.209225654602051
1733512130219728400,0.909728271484375,-1.0349997282028198,0.6300129890441895,1.6048099994659424
1733512130229803300,0.91980322265625,-1.0356132984161377,0.7052384614944458,1.0766582489013672
1733512130239878400,0.92987841796875,-0.9455795884132385,0.9298301339149475,0.6503134369850159
1733512130249953300,0.939953369140625,-0.7969680428504944,1.197439432144165,0.3191821575164795
1733512130260027400,0.95002734375,-0.6543321013450623,1.3947522640228271,0.051233045756816864
1733512130270102300,0.960102294921875,-0.5540997385978699,1.4955981969833374,-0.17096593976020813
1733512130280177400,0.970177490234375,-0.5073754191398621,1.529744267463684,-0.3735666275024414
1733512130290252500,0.98025244140625,-0.48598891496658325,1.5197211503982544,-0.5273212790489197
1733512130300326400,0.990326416015625,-0.48085087537765503,1.4812544584274292,-0.6088250875473022
1733512130310401500,1.000401611328125,-0.49058791995048523,1.368383765220642,-0.6145482063293457
1733512130320476400,1.010476318359375,-0.5250781178474426,1.1916632652282715,-0.5606455206871033
1733512130330551300,1.02055126953125,-0.6060778498649597,1.016107439994812,-0.4819813370704651
1733512130340626400,1.03062646484375,-0.7636460661888123,0.9048603177070618,-0.4009561538696289
1733512130350700300,1.0407001953125,-0.9890994429588318,0.8579308986663818,-0.339461088180542
1733512130360775400,1.050775390625,-1.2319141626358032,0.9197180867195129,-0.31720972061157227
1733512130370850300,1.060850341796875,-1.420594334602356,1.0597498416900635,-0.3356212377548218
1733512130380925400,1.070925537109375,-1.4736964702606201,1.2244328260421753,-0.4308588206768036
1733512130390999300,1.080999267578125,-1.4091403484344482,1.4385263919830322,-0.6142545342445374
1733512130401074400,1.091074462890625,-1.2981939315795898,1.6362179517745972,-0.9100141525268555
1733512130411149300,1.1011494140625,-1.2453986406326294,1.7407872676849365,-1.2539821863174438
1733512130421224400,1.111224365234375,-1.2733399868011475,1.6309731006622314,-1.6385693550109863
1733512130431299300,1.12129931640625,-1.3044757843017578,1.4016318321228027,-2.056666612625122
1733512130441373400,1.13137353515625,-1.262045979499817,1.3442820310592651,-2.4378178119659424
1733512130451448300,1.1414482421875,-1.00058114528656,1.893855094909668,-1.8836205005645752
1733512130461523200,1.151523193359375,-0.615776538848877,2.3158137798309326,-0.3347207307815552
1733512130471598300,1.161598388671875,-0.30929863452911377,1.8667182922363281,0.6711208820343018
1733512130481672200,1.171672119140625,-0.1132643073797226,1.0787736177444458,1.0334584712982178
1733512130491747300,1.181747314453125,0.024241890758275986,0.3912450075149536,1.0135939121246338
1733512130501822500,1.191822509765625,0.1924547553062439,0.02067817933857441,0.9145730137825012
1733512130511897300,1.2018974609375,0.4080943763256073,-0.012337560765445232,0.7635473012924194
1733512130521971500,1.211971435546875,0.647469162940979,0.21400155127048492,0.4703182280063629
1733512130532046300,1.22204638671875,0.8973109722137451,0.503507137298584,-0.008992716670036316
1733512130542121500,1.23212158203125,1.1834300756454468,0.5796902775764465,-0.49491629004478455
1733512130552196400,1.2421962890625,1.4752486944198608,0.3339894413948059,-0.6460192203521729
1733512130562271200,1.252271240234375,1.6771917343139648,-0.1889919489622116,-0.40267878770828247
1733512130572345600,1.262345703125,1.7067546844482422,-0.7033641934394836,0.09317568689584732
1733512130582420200,1.272420166015625,1.5886940956115723,-0.6208235621452332,0.665850043296814
1733512130592495400,1.282495361328125,1.3782174587249756,-0.2623567581176758,0.8903902173042297
1733512130602570200,1.2925703125,0.9993089437484741,0.006518739741295576,0.9740572571754456
1733512130612645400,1.302645263671875,0.46841415762901306,0.2260415107011795,1.259741187095642
1733512130622719200,1.31271923828125,0.0823620930314064,0.585682213306427,1.4987740516662598
1733512130632794400,1.32279443359375,-0.05587274581193924,1.2913860082626343,1.641174554824829
1733512130642869500,1.332869384765625,0.002727475017309189,2.3722472190856934,1.6268805265426636
1733512130652944400,1.3429443359375,0.14174874126911163,3.7515921592712402,1.3118536472320557
1733512130663018500,1.3530185546875,0.138412207365036,5.209268569946289,0.5751492381095886
1733512130673093400,1.36309326171875,-0.06584212183952332,5.9991774559021,-0.41592878103256226
1733512130683168500,1.37316845703125,-0.3131951689720154,5.841899394989014,-1.338800072669983
1733512130693243400,1.383243408203125,-0.49058061838150024,4.642755508422852,-1.9954134225845337
1733512130703318300,1.393318359375,-0.5719677805900574,2.852403402328491,-2.3375003337860107
1733512130713392400,1.403392333984375,-0.6042264103889465,1.2639280557632446,-2.34394907951355
1733512130723467300,1.41346728515625,-0.6700893044471741,-0.05586928874254227,-2.185166358947754
1733512130733542400,1.42354248046875,-0.7869973182678223,-1.0009617805480957,-1.9831793308258057
1733512130743617300,1.4336171875,-0.929352343082428,-1.67124605178833,-1.772014856338501
1733512130753691400,1.44369140625,-1.080259919166565,-2.1588549613952637,-1.5454349517822266
1733512130763766300,1.453766357421875,-1.208355188369751,-2.45302152633667,-1.3593297004699707
1733512130773841400,1.46384130859375,-1.2665822505950928,-2.6539154052734375,-1.2205462455749512
1733512130783916500,1.47391650390625,-1.2458714246749878,-2.7688143253326416,-1.1597973108291626
1733512130793990400,1.483990478515625,-1.2386374473571777,-2.8601343631744385,-1.3763378858566284
1733512130804065500,1.4940654296875,-1.259087085723877,-2.881894826889038,-2.045912265777588
1733512130814140400,1.504140380859375,-1.2831250429153442,-2.7149367332458496,-2.8430919647216797
1733512130824215300,1.51421533203125,-1.2153277397155762,-2.388640880584717,-3.3209269046783447
1733512130834290200,1.524290283203125,-1.0038814544677734,-1.962079644203186,-3.370481252670288
1733512130844364300,1.5343642578125,-0.7180424332618713,-1.4535382986068726,-3.1116960048675537
1733512130854439400,1.544439453125,-0.4162146747112274,-0.8297466039657593,-2.6851401329040527
1733512130864514300,1.554514404296875,-0.1272372156381607,-0.08749516308307648,-2.170278310775757
1733512130874589400,1.56458935546875,0.1361675262451172,0.6353522539138794,-1.475754737854004
1733512130884663300,1.574663330078125,0.311696857213974,1.1621493101119995,-0.5536644458770752
1733512130894738400,1.584738525390625,0.35589468479156494,1.57859206199646,0.2488708794116974
1733512130904813600,1.5948134765625,0.3743935227394104,1.9316641092300415,0.740074098110199
1733512130914888400,1.604888427734375,0.4088931679725647,2.092200517654419,1.0520044565200806
1733512130924963600,1.614963623046875,0.4542975127696991,2.068186044692993,1.2467635869979858
1733512130935037400,1.625037353515625,0.4878472089767456,1.9108930826187134,1.3712642192840576
1733512130945112600,1.635112548828125,0.49789103865623474,1.69838547706604,1.4650545120239258
1733512130955187200,1.645187255859375,0.4794084429740906,1.4671722650527954,1.5289756059646606
1733512130965262300,1.655262451171875,0.4440058171749115,1.2248715162277222,1.5641882419586182
1733512130975336200,1.665336181640625,0.3789077699184418,0.9631815552711487,1.5566385984420776
1733512130985411300,1.675411376953125,0.31215038895606995,0.7117734551429749,1.494096040725708
1733512130995486500,1.685486572265625,0.2376926839351654,0.5210937857627869,1.3771393299102783
1733512131005561300,1.695561279296875,0.15920192003250122,0.38075360655784607,1.2198617458343506
1733512131015636500,1.705636474609375,0.0698041319847107,0.29511088132858276,1.0226376056671143
1733512131025710300,1.71571044921875,-0.024103902280330658,0.15732096135616302,0.7792097330093384
1733512131035785500,1.725785400390625,-0.10868536680936813,-0.08988030254840851,0.4858383238315582
1733512131045860600,1.735860595703125,-0.17163529992103577,-0.39603888988494873,0.16374145448207855
1733512131055935500,1.745935546875,-0.2170051783323288,-0.6740683317184448,-0.14664943516254425
1733512131066009600,1.756009521484375,-0.23420767486095428,-0.8779271841049194,-0.3966514468193054
1733512131076084500,1.76608447265625,-0.22758439183235168,-1.0104782581329346,-0.5691622495651245
1733512131086159400,1.776159423828125,-0.21124796569347382,-1.0755170583724976,-0.6775538921356201
1733512131096234200,1.786234130859375,-0.18794476985931396,-1.0598478317260742,-0.7310149669647217
1733512131106309400,1.796309326171875,-0.19776609539985657,-0.9820127487182617,-0.7568195462226868
1733512131116383200,1.80638330078125,-0.23152007162570953,-0.8507356643676758,-0.76875901222229
1733512131126458400,1.816458251953125,-0.27368950843811035,-0.6785978674888611,-0.7766864895820618
1733512131136533500,1.826533447265625,-0.2957764267921448,-0.44609326124191284,-0.7937248349189758
1733512131146608400,1.8366083984375,-0.29248523712158203,-0.15450139343738556,-0.8367236852645874
1733512131156682500,1.8466826171875,-0.26691487431526184,0.16075268387794495,-0.924171507358551
1733512131166757400,1.85675732421875,-0.2312764972448349,0.46625590324401855,-1.0551586151123047
1733512131176832500,1.86683251953125,-0.19485004246234894,0.7274840474128723,-1.219302773475647
1733512131186907600,1.87690771484375,-0.16603931784629822,0.9162306785583496,-1.4407823085784912
1733512131196982300,1.886982177734375,-0.14355024695396423,1.0355780124664307,-1.7215244770050049
1733512131207056600,1.897056640625,-0.14450982213020325,1.0737700462341309,-2.0045504570007324
1733512131217131300,1.90713134765625,-0.13086912035942078,0.9958440661430359,-2.2165238857269287
1733512131227206400,1.917206298828125,-0.11821462959051132,0.8260725736618042,-2.3097386360168457
1733512131237281300,1.92728125,-0.11313944309949875,0.5939746499061584,-2.2948851585388184
1733512131247355400,1.93735546875,-0.12253031134605408,0.35548144578933716,-2.226181745529175
1733512131257430300,1.94743017578125,-0.14636878669261932,0.12952075898647308,-2.150653123855591
1733512131267505400,1.95750537109375,-0.15587924420833588,-0.08346635103225708,-2.0929949283599854
1733512131277580500,1.96758056640625,-0.1185678243637085,-0.30033552646636963,-2.049569845199585
1733512131287654400,1.977654296875,-0.014866196550428867,-0.4795425534248352,-1.9996587038040161
1733512131297729500,1.9877294921875,0.13043853640556335,-0.5783812403678894,-1.912105679512024
1733512131307804400,1.997804443359375,0.2818176746368408,-0.565264105796814,-1.7601886987686157
1733512131317879600,2.007879638671875,0.4137919545173645,-0.4288692772388458,-1.446679711341858
1733512131327954400,2.017954345703125,0.4614962339401245,-0.3289010226726532,-0.7089354991912842
1733512131338028500,2.028028564453125,0.34959155321121216,-0.10938624292612076,0.4407237470149994
1733512131348103400,2.038103515625,0.20224244892597198,0.41409653425216675,1.5228689908981323
1733512131358178300,2.04817822265625,0.11885087937116623,1.0409175157546997,2.3900530338287354
1733512131368253400,2.05825341796875,0.11039221286773682,1.6090307235717773,2.9130547046661377
1733512131378327300,2.068327392578125,0.1436987668275833,2.0256664752960205,3.053861618041992
1733512131388402400,2.07840234375,0.18856368958950043,2.2012269496917725,2.959052801132202
1733512131398477300,2.088477294921875,0.2197761982679367,2.111212968826294,2.845808267593384
1733512131408552400,2.098552490234375,0.19938254356384277,1.8149219751358032,2.808627128601074
1733512131418627600,2.108627685546875,0.1315411776304245,1.3298404216766357,3.0470519065856934
1733512131428701400,2.118701416015625,0.053187157958745956,0.8844870328903198,3.7968456745147705
1733512131438776600,2.128776611328125,0.020138926804065704,0.5929936766624451,4.72103214263916
1733512131448851500,2.1388515625,-0.003555861534550786,0.2338169664144516,5.500540256500244
1733512131458926300,2.14892626953125,-0.0064757512882351875,-0.16667185723781586,5.845097064971924
1733512131469000400,2.15900048828125,0.13096867501735687,-0.40206047892570496,5.6373291015625
1733512131479075300,2.169075439453125,0.3614833950996399,-0.47608864307403564,5.0549139976501465
1733512131489150500,2.179150390625,0.5520603656768799,-0.36563119292259216,4.214605331420898
1733512131499225300,2.189225341796875,0.6399896740913391,-0.06342338025569916,3.325025796890259
1733512131509300500,2.199300537109375,0.6972067356109619,0.5909783244132996,2.558136463165283
1733512131519374300,2.209374267578125,0.7342294454574585,1.258909821510315,1.907287359237671
1733512131529449500,2.219449462890625,0.7151821255683899,1.7026981115341187,1.364692211151123
1733512131539524400,2.2295244140625,0.6816145777702332,2.0807247161865234,0.923798680305481
1733512131549599500,2.239599609375,0.6684287190437317,2.4276201725006104,0.5021185874938965
1733512131559673300,2.24967333984375,0.7476590871810913,2.5695979595184326,0.01738649234175682
1733512131569748500,2.25974853515625,0.9182889461517334,2.3639376163482666,-0.5067715644836426
1733512131579823600,2.26982373046875,1.1003952026367188,1.7962055206298828,-0.9007361531257629
1733512131589898200,2.279898193359375,1.167419195175171,0.9614349603652954,-1.0346261262893677
1733512131599973400,2.289973388671875,0.9842552542686462,0.02671259082853794,-0.8466370105743408
1733512131610047200,2.300047119140625,0.5950914621353149,-0.6060094833374023,-0.4233754277229309
1733512131620122400,2.310122314453125,0.13377922773361206,-0.6059690117835999,0.07425644993782043
1733512131630197500,2.320197509765625,-0.2476596087217331,-0.05545825883746147,0.4966026842594147
1733512131640272400,2.3302724609375,-0.5424185395240784,0.583404004573822,0.791832685470581
1733512131650346500,2.340346435546875,-0.743401050567627,0.9216399788856506,0.9919808506965637
1733512131660421400,2.35042138671875,-0.9260161519050598,0.8824658989906311,1.067557692527771
1733512131670496500,2.36049658203125,-1.0957121849060059,0.6104764938354492,1.0275567770004272
1733512131680571400,2.3705712890625,-1.2356613874435425,0.19498632848262787,0.9016838669776917
1733512131690645500,2.3806455078125,-1.3367947340011597,-0.28290584683418274,0.6679825186729431
1733512131700720400,2.390720458984375,-1.398558259010315,-0.5958943963050842,0.2826559245586395
1733512131710795500,2.40079541015625,-1.3977138996124268,-0.6476172804832458,-0.2815631330013275
1733512131720870400,2.410870361328125,-1.3272641897201538,-0.4535887539386749,-1.0240647792816162
1733512131730945300,2.4209453125,-1.196631908416748,-0.021145273000001907,-1.859352469444275
1733512131741019400,2.431019287109375,-1.0980749130249023,0.6099181771278381,-2.7544970512390137
1733512131751094300,2.44109423828125,-0.922008752822876,1.2657897472381592,-3.4221107959747314
1733512131761169400,2.45116943359375,-0.6900972127914429,1.2841988801956177,0.1880585104227066
1733512131771244500,2.46124462890625,-0.21490415930747986,2.0267109870910645,1.0298036336898804
1733512131781318400,2.471318359375,0.2311849147081375,2.1180055141448975,0.7738536596298218
1733512131791393500,2.4813935546875,0.4554150700569153,1.2506705522537231,0.36543935537338257
1733512131801468400,2.491468505859375,0.4128747880458832,0.09828350692987442,0.020756009966135025
1733512131811543600,2.50154345703125,0.20511981844902039,-0.7416368722915649,0.10612406581640244
1733512131821618400,2.511618408203125,0.02805262804031372,-1.364845633506775,0.5812860131263733
1733512131831692500,2.521692626953125,0.07895256578922272,-1.3959933519363403,1.092605710029602
1733512131841767400,2.531767333984375,0.3972490429878235,-0.5225396752357483,1.5975415706634521
1733512131851842800,2.5418427734375,0.7397518157958984,-0.1315290778875351,2.7578699588775635
1733512131861918000,2.55191796875,0.8789446353912354,-0.7414182424545288,3.9720613956451416
1733512131871991800,2.56199169921875,0.668878972530365,-0.988957941532135,4.314573764801025
1733512131882067000,2.57206689453125,0.3150061070919037,-0.8385492563247681,3.8227458000183105
1733512131892141800,2.582141845703125,0.04922902211546898,-0.247250035405159,2.9803993701934814
1733512131902217000,2.592217041015625,0.12471818178892136,0.6246705055236816,2.2038826942443848
1733512131912292000,2.6022919921875,0.3499976694583893,1.3845280408859253,1.423480749130249
1733512131922366000,2.612365966796875,0.4175117313861847,2.2085297107696533,0.24923928081989288
1733512131932441000,2.622441162109375,0.4139862358570099,2.9417243003845215,-1.2369660139083862
1733512131942516000,2.632515869140625,0.31330356001853943,3.1792125701904297,-2.7110214233398438
1733512131952590800,2.6425908203125,0.22687369585037231,2.883836507797241,-3.7298784255981445
1733512131962665000,2.6526650390625,0.29453396797180176,2.676666736602783,-3.9698069095611572
1733512131972739800,2.66273974609375,0.3893987238407135,2.3540282249450684,-3.7270286083221436
1733512131982815000,2.67281494140625,0.360107421875,1.4875410795211792,-3.3980767726898193
1733512131992889900,2.682889892578125,0.3138904273509979,0.4795165956020355,-3.15002703666687
1733512132002965000,2.692965087890625,0.2288985699415207,-0.5297524929046631,-3.0874130725860596
1733512132013038800,2.703038818359375,0.10419053584337234,-1.854992151260376,-3.4091358184814453
1733512132023114000,2.713114013671875,0.011126908473670483,-3.8009557723999023,-4.244044303894043
1733512132033188900,2.72318896484375,-0.06328193098306656,-5.634672164916992,-4.962040901184082
1733512132043264000,2.733263916015625,-0.11667565256357193,-6.737356185913086,-5.227738380432129
1733512132053337900,2.743337890625,-0.12206827849149704,-6.981886386871338,-5.166014194488525
1733512132063413000,2.7534130859375,-0.14050641655921936,-6.358842372894287,-4.990147590637207
1733512132073488000,2.76348779296875,-0.1966497004032135,-5.064520359039307,-4.775306224822998
1733512132083562800,2.773562744140625,-0.24466462433338165,-3.7074978351593018,-4.29164457321167
1733512132093638000,2.783637939453125,-0.13588017225265503,-3.7408149242401123,-2.341912031173706
1733512132103711700,2.793711669921875,-0.014619791880249977,-2.1783509254455566,-0.6324262022972107
1733512132113787000,2.803786865234375,-0.0071134683676064014,0.6687390208244324,-0.10151880979537964
1733512132123862000,2.813862060546875,0.011350227519869804,3.130925178527832,0.1809469759464264
1733512132133937000,2.82393701171875,0.11110745370388031,4.774661540985107,0.48731234669685364
1733512132144011000,2.834010986328125,0.2757246196269989,5.609570026397705,0.8101071715354919
1733512132154086000,2.8440859375,0.4245012104511261,5.801393985748291,1.0307652950286865
1733512132164161000,2.8541611328125,0.4947088062763214,5.52078914642334,1.1385877132415771
1733512132174236000,2.86423583984375,0.4572778046131134,4.93719482421875,1.2029989957809448
1733512132184311000,2.87431103515625,0.32958829402923584,4.1840081214904785,1.2464159727096558
1733512132194385000,2.884385009765625,0.1747782975435257,3.359320640563965,1.267052412033081
1733512132204460000,2.8944599609375,0.03075561858713627,2.510338068008423,1.2751412391662598
1733512132214535000,2.904534912109375,-0.09061741828918457,1.6633937358856201,1.277355670928955
1733512132224609800,2.91460986328125,-0.1999710649251938,0.8334203362464905,1.2694255113601685
1733512132234684000,2.924683837890625,-0.2903623580932617,0.010472307913005352,1.2555513381958008
1733512132244758800,2.9347587890625,-0.3644688129425049,-0.6985844373703003,1.2276790142059326
1733512132254834000,2.944833984375,-0.4144039750099182,-1.256018877029419,1.1191082000732422
1733512132264909000,2.954908935546875,-0.4462242126464844,-1.7144380807876587,0.8694230318069458
1733512132274983000,2.96498291015625,-0.46879297494888306,-2.0490734577178955,0.44404786825180054
1733512132285058000,2.97505810546875,-0.4556553363800049,-2.123039484024048,-0.08643969148397446
1733512132295133000,2.9851328125,-0.42727717757225037,-1.8840255737304688,-0.6315078139305115
1733512132305208000,2.9952080078125,-0.3844309151172638,-1.4064520597457886,-1.078558325767517
1733512132315283000,3.005282958984375,-0.3396722376346588,-0.9195327162742615,-1.3544437885284424
1733512132325357000,3.015357177734375,-0.32794153690338135,-0.5802491903305054,-1.4119446277618408
1733512132335432000,3.025431884765625,-0.34120112657546997,-0.38814982771873474,-1.309783935546875
1733512132345506800,3.0355068359375,-0.3623617887496948,-0.25650179386138916,-1.157292366027832
1733512132355582000,3.04558203125,-0.3805561065673828,-0.19392773509025574,-1.0441359281539917
1733512132365655800,3.05565576171875,-0.39596304297447205,-0.22981809079647064,-1.0238019227981567
1733512132375731000,3.06573095703125,-0.43194761872291565,-0.28691500425338745,-1.2241451740264893
1733512132385805800,3.075805908203125,-0.503757119178772,-0.3412562608718872,-1.741865873336792
1733512132395881000,3.085880859375,-0.5388891696929932,-0.36463040113449097,-2.4026129245758057
1733512132405956000,3.0959560546875,-0.4421282708644867,-0.451112300157547,-2.8396639823913574
1733512132416030000,3.106030029296875,-0.223612979054451,-0.5950673222541809,-2.9180614948272705
1733512132426105000,3.11610498046875,0.050020426511764526,-0.7048529386520386,-2.7589805126190186
1733512132436180000,3.126179931640625,0.24670016765594482,-0.6031811237335205,-2.5801804065704346
1733512132446254800,3.1362548828125,0.3688415288925171,-0.22360292077064514,-2.5434324741363525
1733512132456329000,3.146328857421875,0.5012274980545044,0.30381807684898376,-2.5930099487304688
1733512132466403800,3.15640380859375,0.7227659821510315,0.839784562587738,-2.6153578758239746
1733512132476478700,3.166478759765625,0.9655443429946899,1.3178319931030273,-2.313783884048462
1733512132486553900,3.176553955078125,0.9401404857635498,1.3577605485916138,-0.4945194125175476
1733512132496629000,3.18662890625,0.7079288363456726,1.0141805410385132,1.6245055198669434
1733512132506702800,3.196702880859375,0.5747377276420593,0.8707178831100464,2.7830288410186768
1733512132516778000,3.206778076171875,0.49723494052886963,0.8677386045455933,3.0489113330841064
1733512132526852900,3.216852783203125,0.4131301939487457,0.8641608953475952,3.0780231952667236
1733512132536928000,3.226927978515625,0.29449763894081116,0.9156018495559692,3.1697497367858887
1733512132547001900,3.237001953125,0.15842583775520325,1.0774301290512085,3.3080267906188965
1733512132557077000,3.247076904296875,0.01809743605554104,1.2688689231872559,3.4074387550354004
1733512132567152000,3.257152099609375,-0.126585453748703,1.4598479270935059,3.452939748764038
1733512132577226800,3.267226806640625,-0.2846771478652954,1.6442452669143677,3.580111265182495
1733512132587302000,3.277302001953125,-0.3818678855895996,1.8278478384017944,3.857668876647949
1733512132597375700,3.287375732421875,-0.35856524109840393,1.9741709232330322,4.213942050933838
1733512132607451000,3.297450927734375,-0.25552836060523987,2.095613479614258,4.500171184539795
1733512132617525800,3.30752587890625,-0.09941016882658005,2.06679368019104,4.527555465698242
1733512132627601000,3.317600830078125,0.059298522770404816,1.958137035369873,4.151471138000488
1733512132637674800,3.3276748046875,0.15952610969543457,1.9618661403656006,3.4089653491973877
1733512132647750000,3.33775,0.1645837128162384,1.9286961555480957,2.5146384239196777
1733512132657825000,3.347824951171875,0.004566356539726257,1.9255051612854004,1.740916132926941
1733512132667900000,3.35789990234375,-0.2727073132991791,2.1745986938476562,1.2115627527236938
1733512132677975000,3.36797509765625,-0.5447688698768616,2.5777995586395264,0.9072784185409546
1733512132688049000,3.378048828125,-0.6893340945243835,2.878417730331421,0.7298682332038879
1733512132698124000,3.3881240234375,-0.635170578956604,2.954864025115967,0.5510504245758057
1733512132708199000,3.398198974609375,-0.4777476489543915,2.7100205421447754,0.33663588762283325
1733512132718273800,3.408273681640625,-0.3469855785369873,2.217698335647583,0.15406452119350433
1733512132728348000,3.418347900390625,-0.2870628535747528,1.6725318431854248,0.12807819247245789
1733512132738422800,3.4284228515625,-0.3017132580280304,1.1883039474487305,0.26144105195999146
1733512132748498000,3.438497802734375,-0.40441247820854187,0.9146522283554077,0.485101580619812
1733512132758572800,3.44857275390625,-0.5769343972206116,0.983160674571991,0.7443838119506836
1733512132768647000,3.45864697265625,-0.7858982682228088,1.2107659578323364,1.0018795728683472
1733512132778721800,3.4687216796875,-0.9604859352111816,1.4671939611434937,1.208554983139038
1733512132788797000,3.478796875,-1.0860726833343506,1.7137582302093506,1.343062162399292
1733512132798872000,3.4888720703125,-1.162741780281067,1.8918431997299194,1.4088318347930908
1733512132808947000,3.498947021484375,-1.193495750427246,1.9805724620819092,1.4153791666030884
1733512132819021000,3.50902099609375,-1.191611409187317,1.9677741527557373,1.3789331912994385
1733512132829096000,3.519095947265625,-1.1850224733352661,1.8571629524230957,1.3266496658325195
1733512132839170800,3.5291708984375,-1.174009919166565,1.5927261114120483,1.2367560863494873
1733512132849245700,3.53924560546875,-1.1581995487213135,1.2246456146240234,1.087510108947754
1733512132859320600,3.549320556640625,-1.1364853382110596,0.9472929239273071,0.8636106252670288
1733512132869394700,3.559394775390625,-1.0704145431518555,0.7840805649757385,0.594169020652771
1733512132879469800,3.5694697265625,-0.9396951794624329,0.7074991464614868,0.32943326234817505
1733512132889544700,3.579544677734375,-0.7706918120384216,0.7066045999526978,0.06790978461503983
1733512132899619800,3.589619873046875,-0.6625404357910156,0.7528876066207886,-0.259801983833313
1733512132909693700,3.599693603515625,-0.6967668533325195,0.924248456954956,-0.7363379597663879
1733512132919768800,3.609768798828125,-0.8425000905990601,1.2321609258651733,-1.4892863035202026
1733512132929843700,3.61984375,-0.9544402360916138,1.6538625955581665,-2.5436832904815674
1733512132939918800,3.6299189453125,-0.8615937829017639,2.2001655101776123,-3.670478105545044
1733512132949992700,3.63999267578125,-0.48287466168403625,2.8265624046325684,-4.765764236450195
1733512132960067800,3.65006787109375,0.09831537306308746,2.6013596057891846,-4.983250617980957
1733512132970142700,3.660142822265625,0.4478406012058258,2.113921642303467,0.37895554304122925
1733512132980217600,3.670217529296875,0.4136665463447571,1.3678221702575684,1.5965604782104492
1733512132990292700,3.680292724609375,0.29920655488967896,0.9473217725753784,1.2211143970489502
1733512133000366600,3.69036669921875,0.24771495163440704,0.7025391459465027,0.9039687514305115
1733512133010441700,3.700441650390625,0.18789289891719818,0.7585853934288025,0.8279687762260437
1733512133020516900,3.710516845703125,0.14300651848316193,0.9941434860229492,0.9279761910438538
1733512133030591700,3.720591796875,0.18177708983421326,1.1223617792129517,1.0739465951919556
1733512133040665900,3.730665771484375,0.3412403166294098,0.9665285348892212,1.2212752103805542
1733512133050740700,3.74074072265625,0.4801526665687561,0.3803204596042633,1.3813735246658325
1733512133060816000,3.75081591796875,0.4831465482711792,-0.4789886176586151,1.4267256259918213
1733512133070890800,3.760890869140625,0.3959703743457794,-1.3101953268051147,1.2410258054733276
1733512133080965600,3.770965576171875,0.2324715554714203,-1.9273979663848877,0.9481471180915833
1733512133091039700,3.781039794921875,0.03174430504441261,-2.2499728202819824,0.7746701240539551
1733512133101114600,3.791114501953125,-0.1824476718902588,-2.1436240673065186,0.7318940162658691
1733512133111189800,3.801189697265625,-0.40093153715133667,-1.6420565843582153,0.7494235038757324
1733512133121264600,3.8112646484375,-0.5004094839096069,-0.9379888772964478,0.7090315818786621
1733512133131338800,3.8213388671875,-0.45736029744148254,0.04591432958841324,0.553398847579956
1733512133141413600,3.83141357421875,-0.2295452356338501,1.0466182231903076,0.2333681285381317
1733512133151488800,3.84148876953125,0.030112968757748604,1.9570232629776,-0.3720139265060425
1733512133161564000,3.85156396484375,0.08846404403448105,2.4462170600891113,-1.2163825035095215
1733512133171638800,3.861638671875,-0.006125045008957386,2.278120994567871,-2.001735210418701
1733512133181713000,3.871712890625,-0.07110778242349625,1.7982847690582275,-2.457200050354004
1733512133191787800,3.881787841796875,-0.013662593439221382,1.3223971128463745,-2.5548245906829834
1733512133201863000,3.89186279296875,0.08580692112445831,0.8553754687309265,-2.4974160194396973
1733512133211937800,3.901937744140625,0.13051606714725494,0.41493359208106995,-2.4100937843322754
1733512133222012000,3.912011962890625,0.1691364049911499,0.11222435534000397,-2.3273043632507324
1733512133232086800,3.922086669921875,0.20247384905815125,-0.06318048387765884,-2.2572522163391113
1733512133242161700,3.93216162109375,0.25609052181243896,-0.2901572585105896,-2.1921777725219727
1733512133252236800,3.94223681640625,0.3073273301124573,-0.5896771550178528,-2.141439437866211
1733512133262311700,3.952311767578125,0.35484030842781067,-0.9693864583969116,-2.252408266067505
1733512133272385800,3.9623857421875,0.4042515456676483,-1.6050763130187988,-2.778992176055908
1733512133282460700,3.972460693359375,0.4068920314311981,-2.246039867401123,-3.335904836654663
1733512133292535800,3.982535888671875,0.39112213253974915,-2.5825843811035156,-3.559279441833496
1733512133302611000,3.99261083984375,0.34733253717422485,-2.587993621826172,-3.3905038833618164
1733512133312684800,4.002684814453125,0.2832227945327759,-2.3243632316589355,-2.949707508087158
1733512133322760000,4.012760009765625,0.22654636204242706,-1.9429010152816772,-2.39961576461792
1733512133332834800,4.022834716796875,0.1430663764476776,-1.5471116304397583,-1.8648813962936401
1733512133342909700,4.03290966796875,0.047351110726594925,-1.1758995056152344,-1.3453304767608643
1733512133352984600,4.042984619140625,-0.05737689882516861,-0.7267442941665649,-0.8330018520355225
1733512133363058700,4.05305859375,-0.13781355321407318,-0.14291302859783173,-0.374406099319458
1733512133373133600,4.063133544921875,-0.19382408261299133,0.44376590847969055,0.0021651480346918106
1733512133383208700,4.073208740234375,-0.2449590116739273,0.9391621947288513,0.3128393292427063
1733512133393283800,4.083283935546875,-0.3094700872898102,1.311682939529419,0.5542005300521851
1733512133403357700,4.093357666015625,-0.37538281083106995,1.5405598878860474,0.7388885021209717
1733512133413432800,4.103432861328125,-0.4385119676589966,1.6491308212280273,0.8972837328910828
1733512133423507700,4.1135078125,-0.47811493277549744,1.6969642639160156,1.044843077659607
1733512133433582800,4.123582763671875,-0.48850205540657043,1.655838131904602,1.1470890045166016
1733512133443658000,4.133657958984375,-0.4827289879322052,1.5355523824691772,1.1923630237579346
1733512133453731800,4.14373193359375,-0.46572762727737427,1.372330665588379,1.182413935661316
1733512133463807000,4.153806884765625,-0.4646167457103729,1.167617678642273,1.1393526792526245
1733512133473881600,4.163881591796875,-0.4818476736545563,0.9438008069992065,1.0672131776809692
1733512133483956700,4.173956787109375,-0.5068734288215637,0.6848926544189453,0.9756641387939453
1733512133494030600,4.184030517578125,-0.5451393723487854,0.36209169030189514,0.8618952631950378
1733512133504105700,4.194105712890625,-0.5829885005950928,-0.05110548064112663,0.7160206437110901
1733512133514180600,4.2041806640625,-0.6089761257171631,-0.46199581027030945,0.5202304124832153
1733512133524255700,4.214255859375,-0.5958744287490845,-0.8599487543106079,0.27496322989463806
1733512133534329600,4.22432958984375,-0.5731297135353088,-1.2149285078048706,-0.025217914953827858
1733512133544404700,4.23440478515625,-0.5555368661880493,-1.5871564149856567,-0.37935352325439453
1733512133554479900,4.24447998046875,-0.5177375674247742,-1.835135817527771,-0.7526147365570068
1733512133564554800,4.2545546875,-0.4557431936264038,-1.863244652748108,-1.0567114353179932
1733512133574630000,4.2646298828125,-0.40628960728645325,-1.6933104991912842,-1.2484697103500366
1733512133584703700,4.274703857421875,-0.37079915404319763,-1.3959615230560303,-1.327739953994751
1733512133594779000,4.28477880859375,-0.36668750643730164,-1.0838043689727783,-1.3334542512893677
1733512133604853800,4.294853759765625,-0.3738212287425995,-0.7968515157699585,-1.3100976943969727
1733512133614928600,4.3049287109375,-0.3693543076515198,-0.5513136386871338,-1.323757290840149
1733512133625002800,4.315002685546875,-0.3549220860004425,-0.3331858217716217,-1.4513815641403198
1733512133635077600,4.32507763671875,-0.33155205845832825,-0.1191616952419281,-1.7877089977264404
1733512133645152800,4.33515283203125,-0.25818687677383423,0.14159946143627167,-2.2475171089172363
1733512133655227600,4.3452275390625,-0.11542493849992752,0.2739463150501251,-2.6336495876312256
1733512133665302800,4.355302734375,0.06637143343687057,0.24057376384735107,-2.827212333679199
1733512133675376600,4.365376708984375,0.2305832803249359,0.12108305841684341,-2.8497211933135986
1733512133685451800,4.37545166015625,0.3463780879974365,0.0474037267267704,-2.783080816268921
1733512133695527000,4.38552685546875,0.39552992582321167,0.11223358660936356,-2.750046491622925
1733512133705601800,4.395601806640625,0.39827683568000793,0.27392253279685974,-2.7605459690093994
1733512133715676000,4.405676025390625,0.42243918776512146,0.4451129138469696,-2.7798469066619873
1733512133725750800,4.415750732421875,0.5025097131729126,0.624570369720459,-2.7320613861083984
1733512133735825700,4.42582568359375,0.6064555644989014,0.8055015206336975,-2.460559844970703
1733512133745900800,4.43590087890625,0.6188196539878845,0.7741302251815796,-1.25382661819458
1733512133755975700,4.4459755859375,0.47649338841438293,0.41491928696632385,0.6738103628158569
1733512133766049800,4.4560498046875,0.3325953781604767,0.17973385751247406,2.3473947048187256
1733512133776124700,4.466124755859375,0.19282788038253784,0.3155873119831085,3.3101401329040527
1733512133786199800,4.47619970703125,0.04148393124341965,0.7048532962799072,3.6064600944519043
1733512133796274700,4.486274658203125,-0.14916829764842987,0.9945506453514099,3.605613946914673
1733512133806349800,4.496349853515625,-0.3231830298900604,1.0416816473007202,3.5601205825805664
1733512133816423700,4.506423583984375,-0.4236132502555847,0.8252702951431274,3.5959548950195312
1733512133826498800,4.516498779296875,-0.49847865104675293,0.42965641617774963,3.737558126449585
1733512133836574000,4.526573974609375,-0.5803263783454895,-0.0389946848154068,3.919285535812378
1733512133846648600,4.536648681640625,-0.653467059135437,-0.43467748165130615,4.053850173950195
1733512133856722700,4.54672265625,-0.6615415215492249,-0.5952282547950745,4.009608745574951
1733512133866797600,4.556797607421875,-0.5667349100112915,-0.6842800378799438,3.7274279594421387
1733512133876872400,4.56687255859375,-0.364620178937912,-0.7683360576629639,3.2367935180664062
1733512133886947300,4.576947265625,-0.07994571328163147,-0.7806786298751831,2.635748863220215
1733512133897021400,4.587021484375,0.1425856351852417,-0.6407888531684875,2.0682125091552734
1733512133907096600,4.5970966796875,0.25285616517066956,-0.39636921882629395,1.7126009464263916
1733512133917171500,4.60717138671875,0.2869560718536377,-0.10225477069616318,1.604060173034668
1733512133927246600,4.61724658203125,0.3066379129886627,0.27551549673080444,1.6735347509384155
1733512133937321500,4.627321533203125,0.3689875602722168,0.6439315676689148,1.7842594385147095
1733512133947395600,4.6373955078125,0.5069175362586975,0.9571977853775024,1.8245927095413208
1733512133957470500,4.647470458984375,0.6604282259941101,1.2246531248092651,1.7178620100021362
1733512133967545600,4.657545654296875,0.7701349258422852,1.4609626531600952,1.4409434795379639
1733512133977620500,4.667620361328125,0.8436514735221863,1.629347324371338,1.0178982019424438
1733512133987694600,4.677694580078125,0.9021886587142944,1.6718674898147583,0.5417793393135071
1733512133997769500,4.68776953125,0.9576905369758606,1.5234239101409912,0.11245144158601761
1733512134007844400,4.69784423828125,0.9776508212089539,1.2679266929626465,-0.25930869579315186
1733512134017919500,4.70791943359375,0.967858612537384,0.9195179343223572,-0.5175700783729553
1733512134027994400,4.717994384765625,0.9111462235450745,0.4757624864578247,-0.6090853214263916
1733512134038068500,4.728068359375,0.791109561920166,0.05964835360646248,-0.5266194939613342
1733512134048143600,4.7381435546875,0.6083304286003113,-0.2533705532550812,-0.3171999156475067
1733512134058218500,4.748218505859375,0.37442606687545776,-0.4081284701824188,0.00018497509881854057
1733512134068293600,4.758293701171875,0.1287103295326233,-0.4222610592842102,0.40685662627220154
1733512134078367500,4.768367431640625,-0.08667682111263275,-0.24585992097854614,0.8157903552055359
1733512134088442600,4.778442626953125,-0.22226093709468842,-0.004154466092586517,1.1443464756011963
1733512134098517500,4.788517578125,-0.29706698656082153,0.2258254736661911,1.3548710346221924
1733512134108592400,4.79859228515625,-0.3368479907512665,0.3632108271121979,1.440850853919983
1733512134118667500,4.80866748046875,-0.36737900972366333,0.40320509672164917,1.4151691198349
1733512134128741400,4.818741455078125,-0.3864977955818176,0.3832766115665436,1.296202540397644
1733512134138816500,4.82881640625,-0.4008682072162628,0.31477370858192444,1.1165366172790527
1733512134148891400,4.838891357421875,-0.4186929166316986,0.2628622353076935,0.8939569592475891
1733512134158966500,4.848966552734375,-0.43486711382865906,0.21151168644428253,0.6389853954315186
1733512134169040400,4.859040283203125,-0.45021548867225647,0.24349792301654816,0.37164512276649475
1733512134179115500,4.869115478515625,-0.4482452869415283,0.3373711407184601,0.12817704677581787
1733512134189190400,4.8791904296875,-0.4267417788505554,0.3939855992794037,-0.08927962929010391
1733512134199265500,4.889265625,-0.3892039954662323,0.45943304896354675,-0.29887041449546814
1733512134209340700,4.899340576171875,-0.3475101590156555,0.569703996181488,-0.5240369439125061
1733512134219414500,4.90941455078125,-0.29959216713905334,0.7615754008293152,-0.7803659439086914
1733512134229489700,4.91948974609375,-0.2452322542667389,1.0232230424880981,-1.1160387992858887
1733512134239564500,4.929564453125,-0.17880289256572723,1.3144726753234863,-1.5807909965515137
1733512134249639400,4.939639404296875,-0.10394828766584396,1.4851609468460083,-2.2329442501068115
1733512134259713500,4.949713623046875,-0.019086919724941254,1.4886590242385864,-3.2597973346710205
1733512134269788400,4.959788330078125,0.015853041782975197,1.4715876579284668,-4.704280853271484
1733512134279863600,4.969863525390625,-0.0883207619190216,-0.24310174584388733,-1.1622998714447021
1733512134289938400,4.9799384765625,-0.09624429047107697,0.20973403751850128,0.993036687374115
1733512134300013600,4.990013671875,-0.1940014809370041,1.3296204805374146,0.7584511041641235
1733512134310087400,5.00008740234375,-0.47351670265197754,1.3927370309829712,0.640177309513092
1733512134320162600,5.01016259765625,-0.6921765804290771,0.877953052520752,0.5856120586395264
1733512134330237400,5.020237548828125,-0.7597637176513672,0.3384134769439697,0.5917109251022339
1733512134340312600,5.0303125,-0.6621993184089661,-0.1481580287218094,0.7692577242851257
1733512134350386700,5.04038671875,-0.38910147547721863,-0.7878158092498779,1.1023520231246948
1733512134360461600,5.050461669921875,-0.09140615165233612,-1.6291608810424805,1.6099956035614014
1733512134370536400,5.060536376953125,0.10152246803045273,-2.3607194423675537,2.1429455280303955
1733512134380611300,5.070611328125,0.2553618252277374,-2.7216084003448486,2.426966667175293
1733512134390686500,5.0806865234375,0.43382686376571655,-2.683198928833008,2.3257694244384766
1733512134400760300,5.09076025390625,0.5642357468605042,-2.2886314392089844,1.949303388595581
1733512134410835500,5.10083544921875,0.6013027429580688,-1.5124365091323853,1.5815930366516113
1733512134420910600,5.11091064453125,0.5681490302085876,-0.44197195768356323,1.3138731718063354
1733512134430985500,5.1209853515625,0.5016710162162781,1.0293978452682495,0.9485881328582764
1733512134441059600,5.1310595703125,0.3469533324241638,2.956775665283203,0.28363463282585144
1733512134451134500,5.141134521484375,0.16385617852210999,4.783884048461914,-0.5521829724311829
1733512134461209600,5.151209716796875,0.045312490314245224,5.607258319854736,-1.3195390701293945
1733512134471284500,5.161284423828125,0.03584690019488335,5.240103721618652,-1.8717378377914429
1733512134481359400,5.171359375,0.1495867818593979,3.8819050788879395,-2.1442363262176514
1733512134491433700,5.181433837890625,0.3180391490459442,2.0905776023864746,-2.214552164077759
1733512134501508400,5.19150830078125,0.4026818573474884,0.7000235915184021,-2.218177556991577
1733512134511583500,5.20158349609375,0.3286413550376892,-0.39931026101112366,-2.247718572616577
1733512134521658400,5.211658447265625,0.15720437467098236,-1.3884201049804688,-2.331840991973877
1733512134531732500,5.221732421875,0.016257615759968758,-2.2726149559020996,-2.4612345695495605
1733512134541807400,5.231807373046875,0.026754464954137802,-3.085289239883423,-2.6664626598358154
1733512134551882500,5.241882568359375,0.24165946245193481,-4.022645950317383,-3.1363956928253174
1733512134561957600,5.25195751953125,0.5158582329750061,-4.790225028991699,-3.6843748092651367
1733512134572032500,5.262032470703125,0.6725006699562073,-5.06751012802124,-3.9989254474639893
1733512134582106600,5.272106689453125,0.6899430155754089,-4.807227611541748,-3.9916815757751465
1733512134592181500,5.282181396484375,0.5940577983856201,-4.153475761413574,-3.730833053588867
1733512134602256600,5.292256591796875,0.45924967527389526,-3.1989402770996094,-3.3862826824188232
1733512134612331300,5.302331298828125,0.31771519780158997,-2.114445447921753,-3.0742249488830566
1733512134622405600,5.312405517578125,0.17134279012680054,-1.0977016687393188,-2.782165050506592
1733512134632480500,5.32248046875,-0.02973133698105812,-0.190607488155365,-2.4614193439483643
1733512134642555400,5.332555419921875,-0.2521156668663025,0.4756416380405426,-2.0205283164978027
1733512134652630500,5.342630615234375,-0.4134817123413086,0.919755220413208,-1.4741544723510742
1733512134662705400,5.352705322265625,-0.48118913173675537,1.1359021663665771,-0.8987762928009033
1733512134672779500,5.362779541015625,-0.4527744948863983,1.1338847875595093,-0.3639400005340576
1733512134682854400,5.3728544921875,-0.3991839587688446,1.0774339437484741,0.07739772647619247
1733512134692929500,5.382929443359375,-0.3820939064025879,0.9388427734375,0.4146386682987213
1733512134703004700,5.393004638671875,-0.40660005807876587,0.7165130376815796,0.6430487036705017
1733512134713078500,5.40307861328125,-0.4520265758037567,0.4471989572048187,0.7570062875747681
1733512134723153700,5.413153564453125,-0.4803559482097626,0.15654422342777252,0.7758750319480896
1733512134733228500,5.423228515625,-0.47112610936164856,-0.12987299263477325,0.7274850010871887
1733512134743303400,5.433303466796875,-0.43186524510383606,-0.3697575032711029,0.6083604693412781
1733512134753378300,5.44337841796875,-0.37235960364341736,-0.5585151314735413,0.4321190118789673
1733512134763452400,5.453452392578125,-0.31025469303131104,-0.6922513842582703,0.22246672213077545
1733512134773527600,5.463527587890625,-0.26044949889183044,-0.7919341325759888,-0.018751518800854683
1733512134783602400,5.4736025390625,-0.22016972303390503,-0.8759648203849792,-0.28316372632980347
1733512134793677600,5.483677490234375,-0.16062979400157928,-0.9571903347969055,-0.5835573673248291
1733512134803751400,5.49375146484375,-0.07286344468593597,-1.0278562307357788,-0.9066707491874695
1733512134813826600,5.50382666015625,0.0074979402124881744,-1.0758932828903198,-1.2179468870162964
1733512134823901400,5.5139013671875,0.06425975263118744,-1.070885419845581,-1.4838588237762451
1733512134833976600,5.5239765625,0.10577058792114258,-0.9913508296012878,-1.6780496835708618
1733512134844051700,5.5340517578125,0.1829032003879547,-0.8214073181152344,-1.770668625831604
1733512134854126000,5.5441259765625,0.3090120255947113,-0.6010045409202576,-1.7287741899490356
1733512134864200700,5.55420068359375,0.4809214770793915,-0.37328776717185974,-1.531839370727539
1733512134874275800,5.56427587890625,0.6414207816123962,-0.19146756827831268,-1.1468076705932617
1733512134884350700,5.574350830078125,0.6830236315727234,-0.0657365471124649,-0.5137812495231628
1733512134894424800,5.5844248046875,0.44736993312835693,0.2847633361816406,0.3067699670791626
1733512134904499700,5.594499755859375,0.0025855284184217453,0.7390291094779968,1.0971109867095947
1733512134914574800,5.604574951171875,-0.49053090810775757,1.192568302154541,1.7016993761062622
1733512134924650000,5.61464990234375,-0.8544148802757263,1.5496169328689575,2.1177124977111816
1733512134934724900,5.624724853515625,-1.017625093460083,1.6992771625518799,2.441925287246704
1733512134944799000,5.634799072265625,-1.047776460647583,1.5790910720825195,2.763514757156372
1733512134954873900,5.644873779296875,-0.9991039037704468,1.2793428897857666,3.126494884490967
1733512134964949000,5.654948974609375,-0.9320164918899536,0.8870697021484375,3.489870548248291
1733512134975023900,5.66502392578125,-0.8412970304489136,0.38202813267707825,3.783141613006592
1733512134985098000,5.675097900390625,-0.7970789670944214,-0.13079415261745453,3.928568124771118
1733512134995172900,5.6851728515625,-0.7501135468482971,-0.4553162753582001,3.8795394897460938
1733512135005247700,5.695247802734375,-0.6525915265083313,-0.551002025604248,3.639119863510132
1733512135015323000,5.705322998046875,-0.5110414028167725,-0.4272177517414093,3.251314640045166
1733512135025397800,5.715397705078125,-0.3374839723110199,-0.17796079814434052,2.7417476177215576
1733512135035472000,5.725471923828125,-0.1872856616973877,-0.1177358478307724,2.175185441970825
1733512135045546800,5.735546630859375,-0.06450941413640976,-0.04293324798345566,1.6676514148712158
1733512135055622000,5.745621826171875,0.041857533156871796,0.1493924856185913,1.3162224292755127
1733512135065697000,5.755697021484375,0.08580289036035538,0.5635619759559631,1.107158899307251
1733512135075771000,5.76577099609375,0.07864321768283844,1.0626873970031738,1.0157034397125244
1733512135085846000,5.775845947265625,0.08814617246389389,1.5566651821136475,0.9290673136711121
1733512135095921000,5.7859208984375,0.14494086802005768,1.9795987606048584,0.7835108637809753
1733512135105995800,5.795995849609375,0.2384345978498459,2.2771053314208984,0.554292619228363
1733512135116071000,5.80607080078125,0.36150309443473816,2.474581718444824,0.23860877752304077
1733512135126144800,5.816144775390625,0.4879489243030548,2.522624969482422,-0.13747377693653107
1733512135136220000,5.826219970703125,0.5605065822601318,2.420438766479492,-0.5250627398490906
1733512135146294800,5.836294677734375,0.5812475085258484,2.1889970302581787,-0.7978823184967041
1733512135156370000,5.846369873046875,0.5282031297683716,1.8448429107666016,-0.8713779449462891
1733512135166444800,5.85644482421875,0.39828187227249146,1.4659994840621948,-0.7542315721511841
1733512135176519000,5.866518798828125,0.19191567599773407,1.077993392944336,-0.4631196856498718
1733512135186593800,5.87659375,-0.060580212622880936,0.7185404300689697,-0.028920285403728485
1733512135196669000,5.8866689453125,-0.29953065514564514,0.5031353831291199,0.45655593276023865
1733512135206744000,5.896744140625,-0.4873042702674866,0.4942614734172821,0.890813410282135
1733512135216818000,5.90681787109375,-0.6173935532569885,0.6492827534675598,1.2134770154953003
1733512135226893000,5.91689306640625,-0.6962037086486816,0.8265970349311829,1.4257594347000122
1733512135236967700,5.9269677734375,-0.732769787311554,0.9944154620170593,1.5324825048446655
1733512135247042800,5.937042724609375,-0.7373381853103638,1.1396129131317139,1.545223355293274
1733512135257116700,5.94711669921875,-0.7087107300758362,1.2639437913894653,1.4836065769195557
1733512135267191800,5.95719189453125,-0.6583684086799622,1.4128416776657104,1.367876410484314
1733512135277267000,5.967266845703125,-0.6018974781036377,1.5305308103561401,1.211550235748291
1733512135287341800,5.977341796875,-0.5550362467765808,1.6034795045852661,1.0525879859924316
1733512135297417000,5.9874169921875,-0.5280876755714417,1.6475532054901123,0.8921636939048767
1733512135307490800,5.99749072265625,-0.5145548582077026,1.67795991897583,0.7382247447967529
1733512135317566000,6.00756591796875,-0.5117339491844177,1.647883415222168,0.574196994304657
1733512135327640800,6.017640869140625,-0.5141608715057373,1.5740374326705933,0.3915826678276062
1733512135337716000,6.027716064453125,-0.4977042078971863,1.4878743886947632,0.1989673525094986
1733512135347790800,6.037790771484375,-0.45597487688064575,1.4058151245117188,-0.01759663224220276
1733512135357865000,6.047864990234375,-0.40787678956985474,1.3468694686889648,-0.2703753709793091
1733512135367939800,6.05793994140625,-0.3768829107284546,1.343881368637085,-0.5894414782524109
1733512135378014700,6.0680146484375,-0.3538971543312073,1.4122843742370605,-0.9966177344322205
1733512135388089900,6.07808984375,-0.327202707529068,1.577157974243164,-1.471225619316101
1733512135398163700,6.088163818359375,-0.29130885004997253,1.7860853672027588,-1.9895391464233398
1733512135408238800,6.09823876953125,-0.22755944728851318,1.940880298614502,-2.546360731124878
1733512135418314000,6.10831396484375,-0.14947599172592163,2.0553128719329834,-3.1219241619110107
1733512135428388900,6.118388916015625,-0.021150512620806694,1.8922159671783447,-3.2936437129974365
1733512135438464000,6.128464111328125,0.1711554229259491,1.4186501502990723,-0.9782927632331848
1733512135448537900,6.138537841796875,0.17372111976146698,1.6712453365325928,0.7369073629379272
1733512135458613000,6.148613037109375,0.026093754917383194,1.9258456230163574,1.4275213479995728
1733512135468688000,6.15868798828125,-0.16490788757801056,1.7614803314208984,1.5789679288864136
1733512135478762800,6.1687626953125,-0.2862347960472107,1.2840077877044678,1.405844807624817
1733512135488836900,6.1788369140625,-0.3414788544178009,0.6973484754562378,1.1074786186218262
1733512135498911700,6.188911865234375,-0.37219667434692383,0.12464220076799393,0.7999565005302429
1733512135508987000,6.19898681640625,-0.4048651456832886,-0.30802106857299805,0.5234756469726562
1733512135519061800,6.209061767578125,-0.4565276801586151,-0.495712548494339,0.23600506782531738
1733512135529137000,6.219136962890625,-0.5089544057846069,-0.4822726249694824,-0.10271574556827545
1733512135539210800,6.229210693359375,-0.4889555275440216,-0.4566153287887573,-0.3774331510066986
1733512135549286000,6.239285888671875,-0.36787331104278564,-0.4314412474632263,-0.27738112211227417
1733512135559361000,6.249361083984375,-0.1145687848329544,-0.36778753995895386,0.4279859662055969
1733512135569436000,6.259435791015625,0.19877608120441437,-0.265258252620697,1.3726093769073486
1733512135579510000,6.269510009765625,0.4589550197124481,-0.3180643320083618,2.1220645904541016
1733512135589585000,6.2795849609375,0.5768515467643738,-0.40565863251686096,2.5592234134674072
1733512135599660000,6.289659912109375,0.46487587690353394,-0.4712078869342804,2.6291022300720215
1733512135609734700,6.299734619140625,0.2539346218109131,-0.5329979658126831,2.418910026550293
1733512135619809800,6.309809814453125,0.08196323364973068,-0.3387477397918701,2.0879766941070557
1733512135629883600,6.319883544921875,0.02647867053747177,0.11930717527866364,1.7219575643539429
1733512135639958800,6.329958740234375,0.0921613946557045,0.7417117953300476,1.2314105033874512
1733512135650034000,6.340033935546875,0.21574483811855316,1.681839942932129,0.4881838262081146
1733512135660108800,6.35010888671875,0.30260682106018066,2.8405721187591553,-0.5499735474586487
1733512135670183000,6.360182861328125,0.26616066694259644,3.8316237926483154,-1.6905758380889893
1733512135680257800,6.3702578125,0.09437576681375504,4.245935440063477,-2.686931610107422
1733512135690333000,6.3803330078125,-0.04938992112874985,3.9684107303619385,-3.2384512424468994
1733512135700408000,6.390407958984375,-0.09036201238632202,3.042797327041626,-3.3308370113372803
1733512135710483000,6.40048291015625,-0.1084776297211647,2.0352370738983154,-3.149108648300171
1733512135720557000,6.41055712890625,-0.1878667026758194,1.0707207918167114,-2.896449565887451
1733512135730632000,6.4206318359375,-0.3004007041454315,0.17221203446388245,-2.6630699634552
1733512135740706800,6.430706787109375,-0.3957672417163849,-0.6419087648391724,-2.485698938369751
1733512135750781700,6.44078173828125,-0.49810293316841125,-1.3753992319107056,-2.35768461227417
1733512135760855800,6.450855712890625,-0.6215935945510864,-2.136906862258911,-2.3421554565429688
1733512135770930700,6.4609306640625,-0.7347835302352905,-3.140530824661255,-2.6297826766967773
1733512135781005800,6.471005859375,-0.7613857984542847,-4.247281074523926,-3.1400201320648193
1733512135791081000,6.4810810546875,-0.6481889486312866,-5.0507683753967285,-3.5739505290985107
1733512135801155800,6.49115576171875,-0.45565474033355713,-5.319728374481201,-3.752366065979004
1733512135811230000,6.50122998046875,-0.2900348901748657,-5.000830173492432,-3.753041982650757
1733512135821304800,6.511304931640625,-0.18251670897006989,-4.305967807769775,-3.634178400039673
1733512135831380000,6.5213798828125,-0.10768400877714157,-3.582707405090332,-3.145568370819092
1733512135841455000,6.531455078125,-0.17494022846221924,-4.113707065582275,-1.1918946504592896
1733512135851528400,6.541528564453125,-0.10039807856082916,-2.682220458984375,-0.21277284622192383
1733512135861603600,6.551603515625,0.031899891793727875,-0.04115792363882065,-0.007696991320699453
1733512135871678500,6.561678466796875,0.060846053063869476,2.388195276260376,0.2026996612548828
1733512135881753300,6.57175341796875,0.06551999598741531,4.003526210784912,0.46718311309814453
1733512135891828500,6.581828369140625,0.12200750410556793,4.7041826248168945,0.7159684300422668
1733512135901902300,6.59190234375,0.19711528718471527,4.6371750831604,0.8886508941650391
1733512135911977500,6.6019775390625,0.22151224315166473,4.052628040313721,0.9619107246398926
1733512135922052400,6.61205224609375,0.1655292958021164,3.1684913635253906,0.956264853477478
1733512135932127500,6.62212744140625,0.04743274301290512,2.1711652278900146,0.9293338656425476
1733512135942201300,6.632201416015625,-0.08418291807174683,1.180727481842041,0.9233049154281616
1733512135952276500,6.6422763671875,-0.18523363769054413,0.28758496046066284,0.9262828826904297
1733512135962351400,6.652351318359375,-0.2529836595058441,-0.48010796308517456,0.932354748249054
1733512135972426500,6.662426513671875,-0.2836374342441559,-1.096779227256775,0.9212757349014282
1733512135982501600,6.672501708984375,-0.2905339002609253,-1.5456387996673584,0.8791895508766174
1733512135992575500,6.682575439453125,-0.28069058060646057,-1.82473886013031,0.792772114276886
1733512136002650600,6.692650634765625,-0.24416249990463257,-1.9387273788452148,0.6607347130775452
1733512136012725200,6.702725341796875,-0.18805554509162903,-1.898144006729126,0.480480819940567
1733512136022800400,6.71280029296875,-0.12495703995227814,-1.7203545570373535,0.25642818212509155
1733512136032874200,6.722874267578125,-0.06193599849939346,-1.4325860738754272,0.007518494501709938
1733512136042949400,6.732949462890625,0.0010842769406735897,-1.080733299255371,-0.2375636249780655
1733512136053024500,6.7430244140625,0.056676965206861496,-0.7005001902580261,-0.45261120796203613
1733512136063099400,6.753099365234375,0.09752213954925537,-0.3345065414905548,-0.6191133856773376
1733512136073174500,6.763174560546875,0.12226876616477966,-0.014166071079671383,-0.7399566769599915
1733512136083248400,6.773248291015625,0.14551880955696106,0.23138687014579773,-0.8380239605903625
1733512136093323500,6.783323486328125,0.17395950853824615,0.3748161792755127,-0.9395700097084045
1733512136103398400,6.7933984375,0.2162802368402481,0.41192126274108887,-1.0610307455062866
1733512136113473500,6.8034736328125,0.25093382596969604,0.33838340640068054,-1.2187658548355103
1733512136123548400,6.81354833984375,0.2870798110961914,0.1843384951353073,-1.384873867034912
1733512136133622500,6.82362255859375,0.32661259174346924,0.008823933079838753,-1.5288318395614624
1733512136143697400,6.833697509765625,0.37056005001068115,-0.148936927318573,-1.6227165460586548
1733512136153772300,6.843772216796875,0.41852864623069763,-0.24774500727653503,-1.6364108324050903
1733512136163847400,6.853847412109375,0.46696197986602783,-0.29755038022994995,-1.5912818908691406
1733512136173921300,6.86392138671875,0.50273597240448,-0.31550702452659607,-1.5316944122314453
1733512136183996400,6.873996337890625,0.49387815594673157,-0.26256459951400757,-1.449623703956604
1733512136194071600,6.884071533203125,0.42854973673820496,-0.07463891059160233,-1.3067312240600586
1733512136204146400,6.894146484375,0.3127043545246124,0.27170121669769287,-1.1090136766433716
1733512136214220500,6.904220458984375,0.15811052918434143,0.6723809838294983,-0.9402340054512024
1733512136224295400,6.91429541015625,-0.03512722626328468,0.9414623975753784,-0.8588973879814148
1733512136234370600,6.92437060546875,-0.26850801706314087,0.9900520443916321,-0.7995890378952026
1733512136244445400,6.934445556640625,-0.5046115517616272,0.9302722215652466,-0.6295598745346069
1733512136254520300,6.944520263671875,-0.7096339464187622,0.8205912709236145,-0.2951033413410187
1733512136264594400,6.954594482421875,-0.831474244594574,0.676092267036438,0.1596704125404358
1733512136274669300,6.96466943359375,-0.873839259147644,0.45444992184638977,0.6603976488113403
1733512136284744400,6.974744384765625,-0.8761998414993286,0.10463191568851471,1.1427838802337646
1733512136294819300,6.9848193359375,-0.83343905210495,-0.276429146528244,1.5580639839172363
1733512136304894500,6.99489453125,-0.7286443114280701,-0.5551035404205322,1.888308048248291
1733512136314968300,7.00496826171875,-0.5545939803123474,-0.6700836420059204,2.131943702697754
1733512136325043500,7.01504345703125,-0.30658432841300964,-0.5349605083465576,2.307629346847534
1733512136335118600,7.02511865234375,-0.07325519621372223,-0.12253806740045547,2.4330029487609863
1733512136345193500,7.035193359375,0.07755786180496216,0.4955998361110687,2.512389659881592
1733512136355267600,7.045267578125,0.1829037368297577,1.2454407215118408,2.547551393508911
1733512136365342500,7.055342529296875,0.2601528465747833,1.9840929508209229,2.5446090698242188
1733512136375417300,7.065417236328125,0.3464222252368927,2.606731653213501,2.5591847896575928
1733512136385492200,7.0754921875,0.43930119276046753,3.003838062286377,2.6346380710601807
1733512136395567400,7.0855673828125,0.5196027159690857,3.098600149154663,2.7389135360717773
1733512136405641200,7.09564111328125,0.5440706014633179,2.838945150375366,2.791438579559326
1733512136415716400,7.10571630859375,0.5049501061439514,2.37951397895813,2.7242281436920166
1733512136425791500,7.11579150390625,0.44259151816368103,1.858771562576294,2.4878885746002197
1733512136435866400,7.125866455078125,0.3557559549808502,1.3246428966522217,2.082465887069702
1733512136445940500,7.1359404296875,0.2591215670108795,0.9076023101806641,1.5655938386917114
1733512136456015400,7.146015380859375,0.15924155712127686,0.6975917816162109,1.0275861024856567
1733512136466090500,7.156090576171875,0.07342548668384552,0.6513411402702332,0.559043288230896
1733512136476165600,7.16616552734375,-0.0035001803189516068,0.6395041942596436,0.2086554318666458
1733512136486240500,7.176240478515625,-0.0817115381360054,0.6027213931083679,-0.015572477132081985
1733512136496314600,7.186314697265625,-0.15383180975914001,0.541222870349884,-0.1278073936700821
1733512136506389500,7.196389404296875,-0.22441808879375458,0.45505765080451965,-0.13844171166419983
1733512136516464400,7.20646435546875,-0.2866646945476532,0.38384392857551575,-0.05041864514350891
1733512136526539300,7.216539306640625,-0.3481847643852234,0.36791789531707764,0.0997379869222641
1733512136536613400,7.22661328125,-0.40073078870773315,0.4211803078651428,0.26667025685310364
1733512136546688300,7.236688232421875,-0.43889686465263367,0.5553421974182129,0.4286803603172302
1733512136556763400,7.246763427734375,-0.4555298984050751,0.748930811882019,0.5591265559196472
1733512136566838500,7.256838623046875,-0.4666312634944916,0.9843129515647888,0.667236864566803
1733512136576913400,7.266913330078125,-0.4631377160549164,1.2323741912841797,0.7650648951530457
1733512136586987500,7.276987548828125,-0.4477084279060364,1.4635862112045288,0.8534430861473083
1733512136597062400,7.2870625,-0.42137348651885986,1.6845955848693848,0.913018524646759
1733512136607137500,7.297137451171875,-0.3948863744735718,1.8477102518081665,0.9275814294815063
1733512136617212400,7.30721240234375,-0.38196471333503723,1.947698950767517,0.8997926712036133
1733512136627286500,7.31728662109375,-0.385750412940979,1.9736061096191406,0.8458759784698486
1733512136637361400,7.327361328125,-0.3905502259731293,1.9072544574737549,0.7577672004699707
1733512136647436300,7.337436279296875,-0.3992738425731659,1.7928136587142944,0.6691541075706482
1733512136657511400,7.347511474609375,-0.41248178482055664,1.6779050827026367,0.5758201479911804
1733512136667586300,7.35758642578125,-0.43645167350769043,1.5871917009353638,0.4899204671382904
1733512136677660400,7.367660400390625,-0.4711318612098694,1.4858759641647339,0.41970595717430115
1733512136687735300,7.3777353515625,-0.506733238697052,1.3433748483657837,0.3572935163974762
1733512136697810400,7.387810546875,-0.5424121618270874,1.1701442003250122,0.2915549576282501
1733512136707885600,7.397885498046875,-0.5674232244491577,0.9863921403884888,0.2140464335680008
1733512136717959400,7.40795947265625,-0.5845654606819153,0.8281119465827942,0.12861089408397675
1733512136728034600,7.41803466796875,-0.5858062505722046,0.6839290261268616,0.031277526170015335
1733512136738109400,7.428109375,-0.5661587715148926,0.621730625629425,-0.08268260210752487
1733512136748184300,7.438184326171875,-0.5299620032310486,0.6137090921401978,-0.17607420682907104
1733512136758259500,7.448259521484375,-0.4702773690223694,0.6383654475212097,-0.23801293969154358
1733512136768333300,7.458333251953125,-0.3902727961540222,0.7173565626144409,-0.2725837826728821
1733512136778408400,7.468408447265625,-0.27440211176872253,0.7784212231636047,-0.23491258919239044
1733512136788483300,7.4784833984375,-0.1952483355998993,0.7365860939025879,-0.05498552694916725
1733512136798558500,7.488558349609375,-0.15561437606811523,0.7934967875480652,0.1506352722644806
1733512136808633300,7.49863330078125,-0.12883640825748444,0.9920365810394287,0.2938138544559479
1733512136818707500,7.50870751953125,-0.0970742255449295,1.2364000082015991,0.3728910982608795
1733512136828782300,7.5187822265625,-0.08310898393392563,1.4325050115585327,0.3670719265937805
1733512136838857500,7.528857421875,-0.10249413549900055,1.5091328620910645,0.27999216318130493
1733512136848932900,7.538932861328125,-0.17117692530155182,1.4183117151260376,0.1378868967294693
1733512136859006700,7.5490068359375,-0.27182498574256897,1.1780592203140259,-0.015956465154886246
1733512136869081900,7.559081787109375,-0.36697256565093994,0.8964790105819702,-0.13906143605709076
1733512136879156500,7.569156494140625,-0.4176671802997589,0.6952230930328369,-0.22338031232357025
1733512136889231600,7.579231689453125,-0.44260162115097046,0.5636882781982422,-0.26840630173683167
1733512136899306800,7.589306640625,-0.4822753071784973,0.5033186674118042,-0.3130219578742981
1733512136909380600,7.599380615234375,-0.545121967792511,0.5492324829101562,-0.38479918241500854
1733512136919455700,7.609455810546875,-0.6052846312522888,0.7119026184082031,-0.4878084063529968
1733512136929530600,7.619530517578125,-0.6624825596809387,0.9332346320152283,-0.6099665760993958
1733512136939605800,7.629605712890625,-0.705643892288208,1.0981335639953613,-0.7021404504776001
1733512136949679600,7.6396796875,-0.7143367528915405,1.1215900182724,-0.7443186640739441
1733512136959754800,7.649754638671875,-0.683283805847168,0.9689469337463379,-0.7328737378120422
1733512136969829600,7.65982958984375,-0.6107406616210938,0.6599286198616028,-0.6686177253723145
1733512136979904800,7.66990478515625,-0.504995584487915,0.1805441826581955,-0.5417415499687195
1733512136989979600,7.679979736328125,-0.3571332097053528,-0.49815115332603455,-0.3064359128475189
1733512137000053800,7.6900537109375,-0.1712150126695633,-1.3542096614837646,0.025497540831565857
1733512137010128600,7.700128662109375,0.02067398466169834,-2.134036064147949,0.22643330693244934
1733512137020203500,7.71020361328125,0.12337026745080948,-2.4192118644714355,0.031559694558382034
1733512137030278700,7.720278564453125,0.09634238481521606,-1.9484844207763672,-0.5220876336097717
1733512137040352500,7.7303525390625,-0.015161773189902306,-1.1685079336166382,-1.0294209718704224
1733512137050427600,7.740427734375,-0.10171983391046524,-0.4987788498401642,-1.1719871759414673
1733512137060502800,7.750502685546875,-0.1201944500207901,-0.023058122023940086,-0.8899000287055969
1733512137070577700,7.76057763671875,-0.07743071764707565,0.40757790207862854,-0.348284512758255
1733512137080652800,7.77065283203125,0.003934716340154409,0.8549442291259766,0.16221366822719574
1733512137090726700,7.7807265625,0.1063702255487442,1.1625168323516846,0.48355916142463684
1733512137100801800,7.7908017578125,0.21840648353099823,1.3107235431671143,0.5751508474349976
1733512137110876700,7.800876708984375,0.33269864320755005,1.3317865133285522,0.4628159999847412
1733512137120951600,7.81095166015625,0.45755162835121155,1.2641645669937134,0.18497267365455627
1733512137131025700,7.821025634765625,0.5612192153930664,1.1126933097839355,-0.1837882399559021
1733512137141100500,7.8311005859375,0.6256956458091736,0.9099117517471313,-0.6452267169952393
1733512137151175700,7.84117578125,0.7001818418502808,0.6488308906555176,-1.1799510717391968
1733512137161250600,7.85125048828125,0.7892131805419922,0.38720884919166565,-1.6657949686050415
1733512137171325700,7.86132568359375,0.8756256103515625,0.21369501948356628,-1.9461318254470825
1733512137181399600,7.871399658203125,0.9014012813568115,0.29742881655693054,-1.9640508890151978
1733512137191474700,7.881474609375,0.8181663751602173,0.7137075066566467,-1.7888514995574951
1733512137201549800,7.8915498046875,0.6187880039215088,1.312255859375,-1.5405590534210205
1733512137211624700,7.901624755859375,0.40535715222358704,1.8405890464782715,-1.3103604316711426
1733512137221698800,7.91169873046875,0.27051785588264465,2.1217103004455566,-1.124784231185913
1733512137231773700,7.921773681640625,0.21647033095359802,2.1102285385131836,-1.021287441253662
1733512137241848800,7.931848876953125,0.2345377504825592,1.7218365669250488,-1.0879395008087158
1733512137251923500,7.94192333984375,0.30225563049316406,0.8133099675178528,-1.4895668029785156
1733512137261998600,7.95199853515625,0.2493995875120163,-0.3257956802845001,-2.009112596511841
1733512137272072700,7.96207275390625,0.03531099110841751,-1.3415287733078003,-2.368225336074829
1733512137282147600,7.972147705078125,-0.24877265095710754,-2.043792724609375,-2.491675853729248
1733512137292222700,7.98222265625,-0.5005476474761963,-2.438021421432495,-2.425869941711426
1733512137302297600,7.992297607421875,-0.6946292519569397,-2.6151418685913086,-2.2442424297332764
1733512137312371700,8.002371826171874,-0.8508679270744324,-2.6634607315063477,-2.0501534938812256
1733512137322446600,8.012446533203125,-0.9722486734390259,-2.621230363845825,-1.876589059829712
1733512137332521700,8.022521728515626,-1.0388675928115845,-2.4751243591308594,-1.701672077178955
1733512137342596900,8.032596923828125,-1.0448170900344849,-2.218177556991577,-1.4815857410430908
1733512137352671700,8.042671630859376,-0.9603292942047119,-1.822184681892395,-1.2194117307662964
1733512137362745900,8.052745849609375,-0.8056321144104004,-1.342781901359558,-0.9148778319358826
1733512137372820700,8.06282080078125,-0.6412364840507507,-0.8610575795173645,-0.6034109592437744
1733512137382895600,8.0728955078125,-0.5033023357391357,-0.42422908544540405,-0.33384257555007935
1733512137392970500,8.082970458984375,-0.40107712149620056,-0.03999621421098709,-0.10604856163263321
1733512137403044600,8.093044677734374,-0.3257608115673065,0.27888908982276917,0.08706416934728622
1733512137413119500,8.103119384765625,-0.2555463910102844,0.5061510801315308,0.24421223998069763
1733512137423194600,8.113194580078124,-0.18743205070495605,0.6350707411766052,0.3619588315486908
1733512137433269800,8.123269775390625,-0.12430663406848907,0.6596466898918152,0.42173245549201965
1733512137443344600,8.1333447265625,-0.06611230224370956,0.5978413820266724,0.42649364471435547
1733512137453418800,8.143418701171875,-0.023322200402617455,0.43028348684310913,0.37761929631233215
1733512137463493600,8.15349365234375,-0.013917513191699982,0.1991805136203766,0.2758322060108185
1733512137473568800,8.16356884765625,-0.05586644262075424,-0.04107268899679184,0.13165169954299927
1733512137483643600,8.1736435546875,-0.12990258634090424,-0.24863040447235107,-0.06133000925183296
1733512137493718500,8.183718505859375,-0.18080784380435944,-0.41953665018081665,-0.3269180357456207
1733512137503792600,8.193792724609375,-0.14875857532024384,-0.5439520478248596,-0.6631431579589844
1733512137513867500,8.203867431640624,-0.03448309376835823,-0.6540783643722534,-1.0380573272705078
1733512137523942700,8.213942626953125,0.11754611879587173,-0.7441070079803467,-1.4288264513015747
1733512137534017500,8.224017578125,0.2693633437156677,-0.784879744052887,-1.7607595920562744
1733512137544091600,8.234091552734375,0.36595699191093445,-0.7367953062057495,-1.873988389968872
1733512137554166500,8.24416650390625,0.347585529088974,-0.6052445769309998,-1.6883981227874756
1733512137564241700,8.25424169921875,0.20769207179546356,-0.3913445472717285,-1.2652779817581177
1733512137574316800,8.26431689453125,-0.04375287890434265,-0.20170621573925018,-0.7977449893951416
1733512137584391700,8.2743916015625,-0.3470751941204071,-0.254900723695755,-0.4924567639827728
1733512137594465800,8.2844658203125,-0.5774430632591248,-0.6642449498176575,-0.201588436961174
1733512137604540700,8.294540771484375,-0.6424878835678101,-1.277930498123169,0.3759872615337372
1733512137614615600,8.304615478515625,-0.5580353736877441,-1.9950557947158813,1.5619378089904785
1733512137624690700,8.314690673828125,-0.5753445625305176,-2.049149990081787,2.6135478019714355
1733512137634764500,8.3247646484375,-0.7433685660362244,-1.5826297998428345,3.269883394241333
1733512137644839700,8.334839599609374,-0.9149051308631897,-1.032687783241272,3.698106288909912
1733512137654914600,8.34491455078125,-0.9928688406944275,-0.6382151246070862,4.01584529876709
1733512137664989700,8.35498974609375,-0.9769101142883301,-0.37599891424179077,4.236480236053467
1733512137675064600,8.365064697265625,-0.917763888835907,-0.242104634642601,4.367127895355225
1733512137685138700,8.375138671875,-0.7672545313835144,-0.09745237976312637,4.4349284172058105
1733512137695213600,8.385213623046875,-0.45612645149230957,0.22594618797302246,4.41673469543457
1733512137705288700,8.395288818359376,-0.03697844222187996,0.520365297794342,4.3118462562561035
1733512137715363800,8.40536376953125,0.3479345142841339,0.7830212116241455,4.004947662353516
1733512137725437700,8.415437744140625,0.5898669958114624,1.0561197996139526,3.4613850116729736
1733512137735512800,8.425512939453125,0.6384174227714539,1.0506521463394165,2.6890828609466553
1733512137745587700,8.435587646484375,0.5282065272331238,0.9881770610809326,1.8855323791503906
1733512137755662600,8.44566259765625,0.31546953320503235,0.8751418590545654,1.2813992500305176
1733512137765737700,8.45573779296875,0.0743676945567131,0.8258179426193237,0.9547728896141052
1733512137775811600,8.4658115234375,-0.08002320677042007,0.916940450668335,0.8441255688667297
1733512137785886700,8.47588671875,-0.10454399138689041,0.9790988564491272,0.7686633467674255
1733512137795961600,8.485961669921876,0.006334284320473671,0.8183254599571228,0.49081581830978394
1733512137806036700,8.49603662109375,0.15938003361225128,0.3442028760910034,-0.07141316682100296
1733512137816111600,8.506111572265626,0.2498985230922699,-0.26265329122543335,-0.651857852935791
1733512137826185700,8.516185791015625,0.23402422666549683,-0.788772463798523,-0.9604580402374268
1733512137836260600,8.526260498046875,0.10701120644807816,-1.0973173379898071,-0.9910832643508911
1733512137846335700,8.536335693359375,-0.09071092307567596,-1.1595768928527832,-0.8416029810905457
1733512137856411100,8.5464111328125,-0.2636773884296417,-0.9697457551956177,-0.6118409037590027
1733512137866485000,8.556485107421874,-0.3418419659137726,-0.6119857430458069,-0.32016992568969727
1733512137876560100,8.56656005859375,-0.3064488172531128,-0.21924221515655518,0.024755384773015976
1733512137886635000,8.576635009765624,-0.22334060072898865,0.1308409571647644,0.39399415254592896
1733512137896710100,8.586710205078125,-0.15679027140140533,0.331319123506546,0.7171934843063354
1733512137906785300,8.596785400390624,-0.10622990131378174,0.4465538263320923,0.9289893507957458
1733512137916859100,8.606859130859375,-0.07366186380386353,0.4701364040374756,1.0122777223587036
1733512137926934300,8.616934326171876,-0.05631856620311737,0.4220500886440277,1.0066086053848267
1733512137937009200,8.627009033203125,-0.053574394434690475,0.3536047637462616,0.9291217923164368
1733512137947084300,8.637084228515626,-0.06652827560901642,0.2860909700393677,0.8028184175491333
1733512137957158100,8.647158203125,-0.09785652905702591,0.2526937425136566,0.6470578908920288
1733512137967233300,8.6572333984375,-0.13000008463859558,0.26860082149505615,0.47815173864364624
1733512137977308200,8.66730810546875,-0.15653613209724426,0.318276971578598,0.3135879337787628
1733512137987383000,8.677383056640625,-0.15950848162174225,0.382836252450943,0.1526070386171341
1733512137997458200,8.687458251953124,-0.15223552286624908,0.4367516040802002,-0.02418803609907627
1733512138007532000,8.697531982421875,-0.15860821306705475,0.5140424370765686,-0.2136642187833786
1733512138017607200,8.707607177734374,-0.1652480661869049,0.5864378213882446,-0.4021945893764496
1733512138027682000,8.71768212890625,-0.20207665860652924,0.610710620880127,-0.5893762111663818
1733512138037757200,8.727757080078124,-0.21739116311073303,0.6194583177566528,-0.7823907136917114
1733512138047831000,8.7378310546875,-0.21582363545894623,0.5249834656715393,-0.9680809378623962
1733512138057906200,8.74790625,-0.1931944191455841,0.2659103572368622,-1.05417799949646
1733512138067981300,8.757981201171875,-0.11735052615404129,0.0263824425637722,-0.8307356834411621
1733512138078056200,8.76805615234375,-0.003906450234353542,0.36069273948669434,-0.6180518865585327
1733512138088131000,8.778131103515625,0.09527312964200974,0.924760103225708,-0.40885820984840393
1733512138098205200,8.788205078125,0.1236274391412735,1.2575032711029053,-0.18159174919128418
1733512138108280000,8.798280029296874,0.04377761855721474,1.266206979751587,-0.027245311066508293
1733512138118355000,8.80835498046875,-0.11111924797296524,1.2036237716674805,0.015399814583361149
1733512138128430000,8.81843017578125,-0.29025810956954956,1.13014554977417,-0.0336042158305645
1733512138138505200,8.828505126953125,-0.4624875783920288,0.9823881983757019,-0.1404622197151184
1733512138148579000,8.8385791015625,-0.599428653717041,0.709352970123291,-0.2459644079208374
1733512138158654200,8.848654296875,-0.6709445714950562,0.33834952116012573,-0.31456390023231506
1733512138168729000,8.85872900390625,-0.6955386400222778,-0.0875282734632492,-0.33875685930252075
1733512138178804200,8.86880419921875,-0.670579731464386,-0.563427746295929,-0.3270760178565979
1733512138188878000,8.878878173828125,-0.590614378452301,-1.0204453468322754,-0.2723448872566223
1733512138198953200,8.888953125,-0.4711403250694275,-1.440364122390747,-0.141924649477005
1733512138209028400,8.8990283203125,-0.31358715891838074,-1.8937379121780396,0.10652884840965271
1733512138219103000,8.90910302734375,-0.10090693831443787,-2.4104056358337402,0.4239097237586975
1733512138229178000,8.91917822265625,0.1519269198179245,-2.931396722793579,0.6841567158699036
1733512138239252000,8.929251953125,0.34802499413490295,-3.1743409633636475,0.6870797872543335
1733512138249327000,8.9393271484375,0.3962987959384918,-2.7083215713500977,0.2783351242542267
1733512138259402000,8.949402099609374,0.3320046663284302,-1.5930695533752441,-0.3471543788909912
1733512138269477000,8.95947705078125,0.32330062985420227,-0.455582857131958,-0.7087253332138062
1733512138279551000,8.969551025390626,0.4337674379348755,0.5069195628166199,-0.6364850997924805
1733512138289626000,8.979626220703125,0.5969440937042236,1.3482393026351929,-0.27498120069503784
1733512138299701200,8.989701171875,0.7455132603645325,2.066960096359253,0.13456545770168304
1733512138309776100,8.999776123046875,0.8570486307144165,2.5931410789489746,0.44881924986839294
1733512138319851300,9.009851318359376,0.8725063800811768,2.995729923248291,0.5005058646202087
1733512138329925000,9.019925048828124,0.7859323620796204,3.199445962905884,0.24135391414165497
1733512138340000300,9.030000244140625,0.6848821640014648,3.158435106277466,-0.2908627986907959
1733512138350075100,9.0400751953125,0.66372150182724,2.7513294219970703,-0.9789515137672424
1733512138360150000,9.05014990234375,0.7284026145935059,2.1448583602905273,-1.684747338294983
1733512138370225200,9.06022509765625,0.7534650564193726,1.5894086360931396,-2.298696279525757
1733512138380299000,9.070299072265625,0.7221234440803528,1.2150819301605225,-2.6574313640594482
1733512138390374100,9.0803740234375,0.6288152933120728,0.8354590535163879,-2.745326042175293
1733512138400449000,9.090448974609375,0.5193230509757996,0.2720748782157898,-2.66823148727417
1733512138410524200,9.100524169921876,0.4537307322025299,-0.492157518863678,-2.560091972351074
1733512138420598000,9.110597900390625,0.47952303290367126,-1.5249971151351929,-2.6343698501586914
1733512138430673200,9.120673095703125,0.4877535402774811,-2.5777037143707275,-2.768272638320923
1733512138440748300,9.130748291015625,0.33507147431373596,-3.3331854343414307,-2.7473509311676025
1733512138450823200,9.1408232421875,0.05450639873743057,-3.6919519901275635,-2.527951240539551
1733512138460898000,9.15089794921875,-0.20338304340839386,-3.626521587371826,-2.159137487411499
1733512138470972200,9.16097216796875,-0.3595271110534668,-3.269721269607544,-1.8125754594802856
1733512138481047000,9.171047119140624,-0.4406771659851074,-2.843374013900757,-1.6134271621704102
1733512138491122200,9.1811220703125,-0.4859141707420349,-2.388550281524658,-1.5535895824432373
1733512138501197000,9.191197021484374,-0.515130341053009,-1.8939862251281738,-1.556057095527649
1733512138511271200,9.201271240234375,-0.5496726036071777,-1.3609548807144165,-1.5431649684906006
1733512138521346000,9.211345947265626,-0.5931200981140137,-0.7994849681854248,-1.4323705434799194
1733512138531421200,9.221421142578125,-0.6164922714233398,-0.28594231605529785,-1.2073355913162231
1733512138541496000,9.23149609375,-0.5832744836807251,0.1115228533744812,-0.9067331552505493
1733512138551571200,9.2415712890625,-0.4971635341644287,0.37409934401512146,-0.5939344763755798
1733512138561645000,9.25164501953125,-0.41399917006492615,0.4874427020549774,-0.2943188548088074
1733512138571720200,9.26172021484375,-0.3540050685405731,0.49284598231315613,-0.03674829378724098
1733512138581795300,9.27179541015625,-0.3127948045730591,0.42064955830574036,0.145288348197937
1733512138591870000,9.281869873046874,-0.28686946630477905,0.29844722151756287,0.22159990668296814
1733512138601945000,9.291945068359375,-0.25958558917045593,0.14975303411483765,0.17686337232589722
1733512138612019000,9.30201904296875,-0.21698376536369324,-0.017904682084918022,0.036512117832899094
1733512138622094000,9.312093994140625,-0.11667454987764359,-0.15071064233779907,-0.17560414969921112
1733512138632169200,9.322169189453126,0.032496288418769836,-0.21946892142295837,-0.4468657374382019
1733512138642244000,9.332244140625,0.15690261125564575,-0.2412753403186798,-0.7600631713867188
1733512138652318200,9.342318115234375,0.19102783501148224,-0.27020153403282166,-1.1018996238708496
1733512138662393000,9.35239306640625,0.1847943365573883,-0.33607473969459534,-1.4617453813552856
1733512138672468200,9.36246826171875,0.197669118642807,-0.45104604959487915,-1.809993863105774
1733512138682543000,9.372543212890625,0.24676170945167542,-0.6182985901832581,-2.0929315090179443
1733512138692618200,9.3826181640625,0.31276071071624756,-0.7930338978767395,-2.246429443359375
1733512138702692000,9.392692138671874,0.3890027701854706,-0.9405426979064941,-2.2345340251922607
1733512138712767200,9.402767333984375,0.4140268862247467,-1.0184515714645386,-2.026031017303467
1733512138722842000,9.412842041015624,0.32849785685539246,-1.0573925971984863,-1.6332354545593262
1733512138732917000,9.4229169921875,0.10989680886268616,-1.1743484735488892,-1.0241012573242188
1733512138742991000,9.4329912109375,-0.24981577694416046,-1.3546457290649414,-0.11056064069271088
1733512138753066000,9.44306591796875,-0.6516672968864441,-1.2411595582962036,0.9589409232139587
1733512138763141000,9.45314111328125,-0.936469316482544,-0.6929581761360168,1.8900855779647827
1733512138773216300,9.46321630859375,-1.074315071105957,-0.024748696014285088,2.606848955154419
1733512138783291100,9.473291015625,-1.1174752712249756,0.4970709979534149,3.1325201988220215
1733512138793365200,9.483365234375,-1.175051212310791,0.7887577414512634,3.512887477874756
1733512138803440000,9.493440185546875,-1.28139066696167,0.9109928011894226,3.8093409538269043
1733512138813515300,9.503515380859374,-1.4051554203033447,0.8800503015518188,4.0769429206848145
1733512138823590100,9.513590087890625,-1.5009441375732422,0.7408428192138672,4.330012798309326
1733512138833664300,9.523664306640624,-1.5417301654815674,0.5322408676147461,4.55078125
1733512138843739100,9.5337392578125,-1.4545456171035767,0.3921250104904175,4.757247447967529
1733512138853813800,9.543813720703126,-1.1804308891296387,0.4455421566963196,4.942620754241943
1733512138863888600,9.553888671875,-0.8198279142379761,0.5602266788482666,5.000075340270996
1733512138873963500,9.563963623046876,-0.5065435171127319,0.47468510270118713,4.821347713470459
1733512138884037600,9.57403759765625,-0.20314332842826843,-0.08752395212650299,4.342205047607422
1733512138894112500,9.584112548828125,-0.008974113501608372,-0.7071688771247864,3.4904611110687256
1733512138904187600,9.594187744140624,0.0035960255190730095,-0.7897359132766724,2.4037177562713623
1733512138914262500,9.604262451171875,-0.1238492876291275,-0.48251715302467346,1.3512436151504517
1733512138924337700,9.614337646484374,-0.23788629472255707,0.09966875612735748,0.6554797291755676
1733512138934411500,9.62441162109375,-0.2085113525390625,0.7570615410804749,0.36270803213119507
1733512138944486700,9.634486572265626,-0.037619054317474365,1.315189003944397,0.3324265778064728
1733512138954561800,9.644561767578125,0.17698219418525696,1.7146352529525757,0.4071623384952545
1733512138964636700,9.65463671875,0.3960304260253906,1.9925669431686401,0.43133142590522766
1733512138974710800,9.664710693359375,0.6044861674308777,2.1484084129333496,0.28984329104423523
1733512138984785700,9.67478564453125,0.7523089647293091,2.1293821334838867,-0.008626540191471577
1733512138994860500,9.684860595703125,0.8452962040901184,1.9321290254592896,-0.3178693354129791
1733512139004935700,9.694935791015626,0.8427670001983643,1.5742260217666626,-0.4981141686439514
1733512139015010600,9.705010498046875,0.7423128485679626,1.168337345123291,-0.5081300139427185
1733512139025084700,9.715084716796875,0.5680662393569946,0.8124433755874634,-0.394002765417099
1733512139035159600,9.72515966796875,0.3352300524711609,0.5429280400276184,-0.16981177031993866
1733512139045234700,9.735234619140625,0.1034109815955162,0.3433731198310852,0.1330687701702118
1733512139055309600,9.7453095703125,-0.08890706300735474,0.2613205909729004,0.46513059735298157
1733512139065384700,9.755384765625,-0.23560915887355804,0.35913074016571045,0.7673576474189758
1733512139075458600,9.76545849609375,-0.33587929606437683,0.5513654351234436,0.994266927242279
1733512139085533700,9.77553369140625,-0.3824663460254669,0.6795605421066284,1.1351594924926758
1733512139095608800,9.78560888671875,-0.38700518012046814,0.7030986547470093,1.183258295059204
1733512139105683500,9.795683349609375,-0.3921789228916168,0.6442797780036926,1.1429823637008667
1733512139115757800,9.8057578125,-0.40430721640586853,0.48645901679992676,1.0026108026504517
1733512139125832400,9.81583251953125,-0.40901947021484375,0.27255797386169434,0.7740452885627747
1733512139135907600,9.825907470703125,-0.40981656312942505,0.09741758555173874,0.4884929656982422
1733512139145982700,9.835982666015624,-0.3999786972999573,-0.03470756858587265,0.18315957486629486
1733512139156057600,9.8460576171875,-0.36967140436172485,-0.10090949386358261,-0.1234845221042633
1733512139166131700,9.856131591796874,-0.341765433549881,-0.052989427000284195,-0.43208619952201843
1733512139176206600,9.86620654296875,-0.3142666816711426,0.07137726247310638,-0.7702834010124207
1733512139186281700,9.87628173828125,-0.28317350149154663,0.19472746551036835,-1.1444661617279053
1733512139196356600,9.886356689453125,-0.24687272310256958,0.26932579278945923,-1.5707646608352661
1733512139206430700,9.8964306640625,-0.19887451827526093,0.35501983761787415,-2.0470383167266846
1733512139216505600,9.906505615234375,-0.16114205121994019,0.5130385160446167,-2.558723211288452
1733512139226580700,9.916580810546876,-0.08151668310165405,0.39378076791763306,-2.458571434020996
1733512139236655600,9.926655517578125,0.10346142947673798,0.307938814163208,-1.2241675853729248
1733512139246730500,9.93673046875,0.3132043778896332,0.9948039054870605,-0.36702021956443787
1733512139256804600,9.9468046875,0.39767318964004517,1.766697645187378,0.17001287639141083
1733512139266879500,9.95687939453125,0.37034064531326294,2.2088916301727295,0.46885567903518677
1733512139276954600,9.96695458984375,0.2208094745874405,2.2344400882720947,0.4949362277984619
1733512139287029800,9.97702978515625,0.01548132486641407,1.8222856521606445,0.3304324448108673
1733512139297103600,9.987103515625,-0.1637134552001953,1.0069918632507324,0.08511163294315338
1733512139307178800,9.9971787109375,-0.3261823356151581,0.11499811708927155,-0.14752261340618134
1733512139317253600,10.007253662109376,-0.4625326991081238,-0.7046379446983337,-0.30725207924842834
1733512139327328800,10.017328857421875,-0.5579267740249634,-1.3989989757537842,-0.4063345491886139
1733512139337403600,10.027403564453126,-0.6202855110168457,-2.0326523780822754,-0.3573819100856781
1733512139347477800,10.037477783203125,-0.5543787479400635,-2.8108646869659424,-0.019328951835632324
1733512139357552600,10.047552734375,-0.27245599031448364,-3.6993486881256104,0.4028678238391876
1733512139367627500,10.05762744140625,0.13226917386054993,-4.269286155700684,0.6350911259651184
1733512139377702700,10.06770263671875,0.379648894071579,-3.958162784576416,0.44613906741142273
1733512139387777500,10.077777587890624,0.3848431408405304,-3.0303406715393066,0.14424951374530792
1733512139397851600,10.0878515625,0.4013770818710327,-2.028066635131836,0.08364742994308472
1733512139407926500,10.097926513671876,0.5197826027870178,-0.8649504780769348,0.32040515542030334
1733512139418001700,10.108001708984375,0.6714552640914917,0.8514440059661865,0.7136043906211853
1733512139428076800,10.118076904296874,0.8218936920166016,2.925507068634033,0.9743305444717407
1733512139438150700,10.128150634765625,0.8821544051170349,4.768173694610596,0.7636103630065918
1733512139448225800,10.138225830078126,0.7710321545600891,5.904691696166992,0.1406402885913849
1733512139458300700,10.14830078125,0.5419329404830933,6.213262557983398,-0.6002508401870728
1733512139468375800,10.158375732421876,0.3701839745044708,5.778852939605713,-1.3350193500518799
1733512139478450400,10.168450439453125,0.3217669129371643,4.79716157913208,-1.9823591709136963
1733512139488524800,10.17852490234375,0.40116366744041443,3.3239901065826416,-2.58306622505188
1733512139498599400,10.188599365234374,0.4549049139022827,1.5945558547973633,-3.2442612648010254
1733512139508674600,10.198674560546875,0.40719518065452576,-0.14782015979290009,-3.770155906677246
1733512139518749700,10.208749755859374,0.23340901732444763,-1.7349629402160645,-3.946138858795166
1733512139528823600,10.218823486328125,-0.012855352833867073,-2.9941258430480957,-3.712641477584839
1733512139538898700,10.228898681640626,-0.257692813873291,-3.821514129638672,-3.197735071182251
1733512139548973600,10.2389736328125,-0.4074091613292694,-4.334568023681641,-2.565187931060791
1733512139559048700,10.249048583984376,-0.44350937008857727,-4.697815418243408,-2.033071517944336
1733512139569123800,10.259123779296875,-0.42220836877822876,-4.952558517456055,-1.7048641443252563
1733512139579197700,10.26919775390625,-0.43104925751686096,-5.014744758605957,-1.5438356399536133
1733512139589272800,10.27927294921875,-0.4492051303386688,-4.70939826965332,-1.5019680261611938
1733512139599347700,10.28934765625,-0.4480847418308258,-3.987661838531494,-1.538196325302124
1733512139609422600,10.299422607421874,-0.38736456632614136,-2.9133355617523193,-1.6022350788116455
1733512139619497500,10.30949755859375,-0.3078247308731079,-1.6049326658248901,-1.6429848670959473
1733512139629571600,10.319571533203124,-0.20555070042610168,-0.2981891632080078,-1.551119327545166
1733512139639646500,10.329646484375,-0.08763206005096436,0.7244686484336853,-1.317519187927246
1733512139649721600,10.3397216796875,0.030365057289600372,1.37227201461792,-0.9745948314666748
1733512139659796700,10.349796630859375,0.12056764960289001,1.6872206926345825,-0.5644193291664124
1733512139669870600,10.35987060546875,0.1625969409942627,1.7701388597488403,-0.11678359657526016
1733512139679945700,10.36994580078125,0.11924628168344498,1.7476264238357544,0.32831743359565735
1733512139690020600,10.3800205078125,0.021822381764650345,1.6804661750793457,0.7481546401977539
1733512139700095700,10.390095703125,-0.08811476826667786,1.6209938526153564,1.1003509759902954
1733512139710170600,10.400170654296875,-0.1860397905111313,1.5592271089553833,1.3687517642974854
1733512139720244700,10.41024462890625,-0.263641357421875,1.496389627456665,1.544654369354248
1733512139730319600,10.420319580078125,-0.35786372423171997,1.42328679561615,1.6263117790222168
1733512139740394500,10.43039453125,-0.4642452895641327,1.3191479444503784,1.6046634912490845
1733512139750469600,10.4404697265625,-0.5682838559150696,1.1551555395126343,1.4889624118804932
1733512139760544500,10.45054443359375,-0.660156786441803,0.8616126179695129,1.296954870223999
1733512139770618600,10.46061865234375,-0.7088057994842529,0.36738768219947815,1.0167831182479858
1733512139780693500,10.470693603515626,-0.6859207153320312,-0.2926863729953766,0.615115225315094
1733512139790768600,10.4807685546875,-0.6137999296188354,-1.0506032705307007,0.11687193065881729
1733512139800843800,10.49084375,-0.4963747560977936,-1.8059583902359009,-0.40615612268447876
1733512139810917600,10.500917724609375,-0.3835437297821045,-2.409712791442871,-0.8564227223396301
1733512139820992800,10.51099267578125,-0.3060641288757324,-2.686091423034668,-1.1489094495773315
1733512139831067600,10.521067626953124,-0.2787744998931885,-2.4441611766815186,-1.2328702211380005
1733512139841142500,10.531142578125,-0.29734233021736145,-1.9112627506256104,-1.1624314785003662
1733512139851217700,10.5412177734375,-0.36021333932876587,-1.4201329946517944,-1.0534838438034058
1733512139861291500,10.55129150390625,-0.41013216972351074,-1.035887598991394,-1.0096009969711304
1733512139871366700,10.56136669921875,-0.4039662182331085,-0.7442626953125,-1.0850130319595337
1733512139881441500,10.571441650390625,-0.32042232155799866,-0.5638071298599243,-1.288013219833374
1733512139891516700,10.5815166015625,-0.18215659260749817,-0.43314260244369507,-1.7252033948898315
1733512139901591600,10.591591552734375,-0.011766478419303894,-0.30430686473846436,-2.4518778324127197
1733512139911665700,10.601665771484376,0.1948137730360031,-0.31703105568885803,-3.1883974075317383
1733512139921740500,10.611740478515625,0.42334258556365967,-0.4534829258918762,-3.5727670192718506
1733512139931815700,10.621815673828126,0.6668099164962769,-0.5757123231887817,-3.537259578704834
1733512139941890800,10.631890869140625,0.8888499140739441,-0.5313437581062317,-3.2419445514678955
1733512139951964700,10.641964599609375,1.0353835821151733,-0.22031453251838684,-2.851128339767456
1733512139962039800,10.652039794921874,1.1153128147125244,0.3123432397842407,-2.484870433807373
1733512139972114700,10.66211474609375,1.0338659286499023,0.9735020995140076,-1.859484314918518
1733512139982189600,10.672189453125,0.7203010320663452,1.4982103109359741,-0.5611304044723511
1733512139992264700,10.6822646484375,0.37897858023643494,1.6398346424102783,0.9239423871040344
1733512140002338600,10.692338623046876,0.18198056519031525,1.612581729888916,2.037529706954956
1733512140012413700,10.70241357421875,0.03189454227685928,1.4409096240997314,2.8166282176971436
1733512140022488600,10.712488525390626,-0.18860028684139252,1.1669734716415405,3.4466283321380615
1733512140032563700,10.722563720703125,-0.46445611119270325,1.0512784719467163,3.792773962020874
1733512140042637600,10.732637451171875,-0.8016905784606934,1.0702660083770752,3.9649200439453125
1733512140052712700,10.742712646484375,-1.0695416927337646,1.0455513000488281,4.09407901763916
1733512140062787600,10.75278759765625,-1.2498177289962769,0.8665168881416321,4.271026611328125
1733512140072862700,10.76286279296875,-1.3258620500564575,0.5959963798522949,4.530920505523682
1733512140082937600,10.7729375,-1.314671516418457,0.36182698607444763,4.845466613769531
1733512140093011700,10.78301171875,-1.1805036067962646,0.26514655351638794,5.160149097442627
1733512140103086600,10.793086669921875,-0.8681118488311768,0.07630259543657303,5.419642925262451
1733512140113161500,10.803161376953126,-0.3995720446109772,-0.21258991956710815,5.388989448547363
1733512140123236600,10.813236572265625,-0.004890247713774443,-0.5183886885643005,4.874773025512695
1733512140133310500,10.823310546875,0.23064403235912323,-0.5936912894248962,3.9695029258728027
1733512140143385600,10.833385498046875,0.311454713344574,-0.460162490606308,2.8963541984558105
1733512140153460700,10.843460693359376,0.35657453536987305,-0.15291890501976013,1.9263896942138672
1733512140163535600,10.85353564453125,0.4266023635864258,0.3811730146408081,1.2075375318527222
1733512140173610800,10.86361083984375,0.4840955138206482,1.1251463890075684,0.8633944988250732
1733512140183684600,10.8736845703125,0.5387872457504272,1.9165759086608887,0.7602803707122803
1733512140193759700,10.883759765625,0.625147819519043,2.567884683609009,0.6546263098716736
1733512140203834600,10.893834716796874,0.7645429968833923,2.952059507369995,0.33460381627082825
1733512140213909500,10.903909423828125,0.9794700145721436,2.858544111251831,-0.24251751601696014
1733512140223984600,10.913984619140624,1.1919039487838745,2.1375620365142822,-0.8342812061309814
1733512140234058500,10.92405859375,1.2839696407318115,0.9982474446296692,-1.1626932621002197
1733512140244133600,10.934133544921876,1.1896620988845825,-0.21409271657466888,-1.1469937562942505
1733512140254208500,10.94420849609375,0.8614076972007751,-1.2152316570281982,-0.8307765126228333
1733512140264283600,10.95428369140625,0.3565589189529419,-1.6929643154144287,-0.22297312319278717
1733512140274357500,10.964357421875,-0.13042086362838745,-1.3589377403259277,0.41910338401794434
1733512140284432600,10.9744326171875,-0.4966614544391632,-0.538693904876709,0.9495136737823486
1733512140294507800,10.9845078125,-0.7009526491165161,0.31337690353393555,1.3598389625549316
1733512140304582700,10.994582763671875,-0.7627723217010498,0.8410084843635559,1.6501426696777344
1733512140314657800,11.00465771484375,-0.7443089485168457,1.022709608078003,1.7836138010025024
1733512140324731600,11.014731689453125,-0.7359117269515991,1.008794903755188,1.7551038265228271
1733512140334806800,11.024806884765624,-0.7593308091163635,0.8323812484741211,1.6114190816879272
1733512140344881400,11.03488134765625,-0.7790539264678955,0.5610775947570801,1.3592689037322998
1733512140354956500,11.04495654296875,-0.8058936595916748,0.3577674925327301,1.039512038230896
1733512140365031700,11.05503173828125,-0.8196851015090942,0.2580302357673645,0.6991444230079651
1733512140375105500,11.06510546875,-0.800800621509552,0.27739113569259644,0.3586744964122772
1733512140385180700,11.0751806640625,-0.7615320682525635,0.38648858666419983,0.014035642147064209
1733512140395255600,11.085255615234376,-0.7324938178062439,0.4641123414039612,-0.3423839807510376
1733512140405330700,11.09533056640625,-0.7156186699867249,0.5576806664466858,-0.7169181108474731
1733512140415404500,11.105404541015625,-0.7016371488571167,0.6625216603279114,-1.0858962535858154
1733512140425479700,11.115479736328124,-0.6645731329917908,0.7179367542266846,-1.5131466388702393
1733512140435554800,11.125554931640625,-0.5721117258071899,0.8848661184310913,-2.177112102508545
1733512140445629700,11.135629638671874,-0.3419581651687622,1.193543791770935,-3.460918426513672
1733512140455704600,11.14570458984375,0.11156513541936874,1.3390603065490723,-5.626145362854004
1733512140465778700,11.15577880859375,0.4297471046447754,-0.8254220485687256,-2.4530704021453857
1733512140475853600,11.165853515625,0.6208608150482178,-0.26234105229377747,-0.1306571662425995
1733512140485928400,11.175928466796876,0.4541482627391815,1.1734012365341187,0.8201627135276794
1733512140496003600,11.186003662109375,0.14766310155391693,1.8994213342666626,1.0801883935928345
1733512140506078700,11.19607861328125,-0.047792948782444,1.8311491012573242,0.9735807180404663
1733512140516152600,11.206152587890625,-0.1283053606748581,1.2008305788040161,0.7873153686523438
1733512140526227700,11.216227783203125,-0.13265563547611237,0.27983468770980835,0.6470234990119934
1733512140536302600,11.226302490234374,-0.13211208581924438,-0.7261057496070862,0.6783634424209595
1733512140546377700,11.236377685546875,-0.13040021061897278,-1.7384854555130005,0.8661573529243469
1733512140556451600,11.24645166015625,-0.08892668783664703,-2.676872491836548,1.0928044319152832
1733512140566526700,11.256526611328125,0.05161817744374275,-3.428152561187744,1.2557790279388428
1733512140576601900,11.266601806640624,0.2681411802768707,-3.747816562652588,1.1992745399475098
1733512140586676500,11.276676513671875,0.46841302514076233,-3.400392532348633,0.8681889772415161
1733512140596751600,11.286751708984376,0.5931210517883301,-2.498624086380005,0.4534870684146881
1733512140606825500,11.296825439453125,0.6813926100730896,-1.1293736696243286,0.12658856809139252
1733512140616900600,11.306900634765626,0.7206043601036072,0.5055516958236694,-0.04846220836043358
1733512140626975500,11.3169755859375,0.7278758883476257,2.041506767272949,-0.15662862360477448
1733512140637050600,11.327050537109375,0.7187067866325378,3.081684112548828,-0.3373865485191345
1733512140647124500,11.33712451171875,0.6373914480209351,3.6804349422454834,-0.6627111434936523
1733512140657199600,11.34719970703125,0.5520055294036865,3.7210848331451416,-1.050790786743164
1733512140667274800,11.357274658203124,0.5675991773605347,3.2654030323028564,-1.4780972003936768
1733512140677349600,11.367349609375,0.6239428520202637,2.4712867736816406,-1.9533116817474365
1733512140687424800,11.3774248046875,0.6905956864356995,1.5425077676773071,-2.383457899093628
1733512140697498600,11.38749853515625,0.7571566104888916,0.7247758507728577,-2.6887855529785156
1733512140707573800,11.39757373046875,0.7819067239761353,0.016784852370619774,-2.890050172805786
1733512140717648600,11.407648681640625,0.7479413747787476,-0.5667623281478882,-2.9649479389190674
1733512140727723500,11.4177236328125,0.6950555443763733,-1.0753227472305298,-2.9223735332489014
1733512140737798700,11.427798583984375,0.5813016295433044,-1.5764362812042236,-2.7940289974212646
1733512140747872500,11.43787255859375,0.4281325936317444,-2.0176968574523926,-2.6187448501586914
1733512140757947600,11.44794775390625,0.2906665802001953,-2.3712308406829834,-2.42543888092041
1733512140768022500,11.4580224609375,0.16150619089603424,-2.6248891353607178,-2.212712049484253
1733512140778097700,11.46809765625,0.0118942279368639,-2.682060480117798,-2.0032904148101807
1733512140788171500,11.478171630859375,-0.1311473548412323,-2.518094301223755,-1.8013869524002075
1733512140798246700,11.48824658203125,-0.2594550549983978,-2.129136562347412,-1.6103804111480713
1733512140808321800,11.49832177734375,-0.33633437752723694,-1.556368112564087,-1.424424648284912
1733512140818396700,11.508396728515624,-0.3411247432231903,-0.9098212122917175,-1.2481170892715454
1733512140828471600,11.518471435546875,-0.2846803665161133,-0.29061201214790344,-1.0630295276641846
1733512140838545700,11.528545654296876,-0.2277938425540924,0.2399604171514511,-0.843112587928772
1733512140848620500,11.53862060546875,-0.195378378033638,0.6298160552978516,-0.5762571692466736
1733512140858696200,11.5486962890625,-0.19942136108875275,0.8685338497161865,-0.28341013193130493
1733512140868771000,11.55877099609375,-0.247165709733963,0.9719662070274353,-0.014131514355540276
1733512140878846200,11.56884619140625,-0.3333856165409088,1.0370830297470093,0.23536257445812225
1733512140888920000,11.578920166015624,-0.44214457273483276,1.1043126583099365,0.4460042417049408
1733512140898995200,11.5889951171875,-0.5676558613777161,1.1657758951187134,0.6085535287857056
1733512140909070300,11.5990703125,-0.6897394061088562,1.1910980939865112,0.7091779112815857
1733512140919145200,11.609145263671875,-0.7881982326507568,1.1387157440185547,0.7315763235092163
1733512140929219300,11.61921923828125,-0.8655284643173218,0.9849250912666321,0.6780808568000793
1733512140939294200,11.629294189453125,-0.9184393882751465,0.6700332164764404,0.5540652871131897
1733512140949369000,11.639369140625,-0.9254264235496521,0.19721189141273499,0.37820979952812195
1733512140959444200,11.6494443359375,-0.8766509890556335,-0.36915484070777893,0.15529084205627441
1733512140969519000,11.65951904296875,-0.7849258184432983,-0.9729139804840088,-0.0979539304971695
1733512140979593200,11.66959326171875,-0.6693418025970459,-1.5535072088241577,-0.3417463004589081
1733512140989668000,11.679668212890626,-0.5575960874557495,-2.026404619216919,-0.5569779276847839
1733512140999743200,11.6897431640625,-0.47544345259666443,-2.31868577003479,-0.7345136404037476
1733512141009818000,11.699818115234375,-0.42135411500930786,-2.385413885116577,-0.8777458667755127
1733512141019892200,11.709892333984374,-0.38055330514907837,-2.2179813385009766,-1.007139801979065
1733512141029967000,11.719967041015625,-0.32309240102767944,-1.846812129020691,-1.1401572227478027
1733512141040042200,11.730042236328124,-0.22952330112457275,-1.3408777713775635,-1.2512240409851074
1733512141050117400,11.740117431640625,-0.09617296606302261,-0.7914400100708008,-1.327467918395996
1733512141060192000,11.75019189453125,0.06208241730928421,-0.30329322814941406,-1.3574435710906982
1733512141070266400,11.760266357421875,0.22607694566249847,0.09443255513906479,-1.3340959548950195
1733512141080341000,11.770341064453126,0.378616064786911,0.3782731592655182,-1.2916743755340576
1733512141090416000,11.780416015625,0.5268896818161011,0.5533744096755981,-1.2705405950546265
1733512141100491300,11.7904912109375,0.6524125337600708,0.6460384726524353,-1.2830708026885986
1733512141110566100,11.800566162109375,0.7353495359420776,0.6852665543556213,-1.3252971172332764
1733512141120640300,11.81064013671875,0.7590036988258362,0.6940838098526001,-1.373018741607666
1733512141130715100,11.820715087890624,0.7443400621414185,0.6810734868049622,-1.4346081018447876
1733512141140790300,11.830790283203125,0.7079026103019714,0.6732978820800781,-1.5218473672866821
1733512141150865200,11.840865234375,0.6750389933586121,0.7065975069999695,-1.6065361499786377
1733512141160939300,11.850939208984375,0.6495471000671387,0.7827250957489014,-1.689612865447998
1733512141171014100,11.86101416015625,0.5789059400558472,0.8300342559814453,-1.758042335510254
1733512141181089300,11.87108935546875,0.42395877838134766,0.7664379477500916,-1.816372275352478
1733512141191164200,11.8811640625,0.20325303077697754,0.4810307025909424,-1.922244668006897
1733512141201239000,11.891239013671875,-0.09641590714454651,-0.16851405799388885,-1.8049309253692627
1733512141211313200,11.901313232421876,-0.41634994745254517,-1.6081424951553345,0.11220287531614304
1733512141221388000,11.911387939453125,-0.5935050845146179,-2.2320823669433594,2.4452171325683594
1733512141231463200,11.921463134765625,-0.7214196920394897,-1.7103869915008545,3.851738691329956
1733512141241538300,11.931538330078125,-0.9469469785690308,-0.7189818024635315,4.249375343322754
1733512141251613200,11.94161328125,-1.1464276313781738,0.09036191552877426,4.3040852546691895
1733512141261687300,11.951687255859374,-1.2637463808059692,0.5150313973426819,4.413748264312744
1733512141271762200,11.96176220703125,-1.2954968214035034,0.615460216999054,4.7574872970581055
1733512141281837300,11.97183740234375,-1.2520229816436768,0.5945521593093872,5.231809616088867
1733512141291912200,11.981912109375,-1.1817001104354858,0.6046676635742188,5.603970527648926
1733512141301986300,11.991986328125,-0.9835367798805237,0.5611526966094971,5.8347344398498535
1733512141312061200,12.002061279296875,-0.5690165758132935,0.4241698384284973,5.868899822235107
1733512141322136000,12.012135986328126,-0.06342102587223053,0.11714120209217072,5.44695520401001
1733512141332211200,12.022211181640625,0.2629845142364502,-0.3059892952442169,4.493469715118408
1733512141342286000,12.0322861328125,0.37717264890670776,-0.4131256639957428,3.2077274322509766
1733512141352360200,12.042360107421874,0.3167037069797516,-0.11963412165641785,1.8906183242797852
1733512141362435000,12.05243505859375,0.2072729915380478,0.3146524727344513,0.9168072938919067
1733512141372510200,12.06251025390625,0.09024171531200409,0.8690435290336609,0.38671228289604187
1733512141382585300,12.07258544921875,0.007302677724510431,1.4450092315673828,0.17419448494911194
1733512141392660200,12.08266015625,0.015023713931441307,1.8654718399047852,0.07728097587823868
1733512141402734300,12.092734375,0.19097864627838135,1.9619837999343872,-0.15904346108436584
1733512141412809200,12.102809326171876,0.48942577838897705,1.6547410488128662,-0.6068787574768066
1733512141422884400,12.11288427734375,0.7666756510734558,0.9636231660842896,-1.0392930507659912
1733512141432959000,12.122958984375,0.8918322324752808,0.11166783422231674,-1.2413630485534668
1733512141443033300,12.133033447265625,0.8040196299552917,-0.5430701375007629,-1.1985093355178833
1733512141453108000,12.14310791015625,0.5075061917304993,-1.0092215538024902,-0.9227682948112488
1733512141463183000,12.15318310546875,0.08472593873739243,-1.2854835987091064,-0.29342156648635864
1733512141473258200,12.16325830078125,-0.32334595918655396,-0.8556914329528809,0.4652975797653198
1733512141483333000,12.1733330078125,-0.5877060294151306,0.16387878358364105,1.0664173364639282
1733512141493407200,12.1834072265625,-0.6980580687522888,1.0743213891983032,1.4355676174163818
1733512141503482000,12.193482177734374,-0.7063692808151245,1.527893304824829,1.613046407699585
1733512141513557200,12.20355712890625,-0.6578922867774963,1.5821571350097656,1.6177690029144287
1733512141523632400,12.21363232421875,-0.6342381238937378,1.396044373512268,1.4832799434661865
1733512141533707300,12.223707275390625,-0.6492758989334106,1.114162564277649,1.2641116380691528
1733512141543781400,12.233781494140626,-0.6598063111305237,0.8513861298561096,0.9848244786262512
1733512141553856300,12.243856201171875,-0.6647049188613892,0.6661536693572998,0.6935846209526062
1733512141563931100,12.25393115234375,-0.6417502164840698,0.5106965899467468,0.3961140513420105
1733512141574006000,12.264006103515625,-0.6305138468742371,0.4155274033546448,0.07444306463003159
1733512141584080100,12.274080078125,-0.6350876092910767,0.3618861138820648,-0.28048354387283325
1733512141594155000,12.284155029296874,-0.6423447132110596,0.32233336567878723,-0.6379244923591614
1733512141604230100,12.294230224609375,-0.6476239562034607,0.30017808079719543,-0.9868102669715881
1733512141614305300,12.30430517578125,-0.6138731837272644,0.34804147481918335,-1.4092334508895874
1733512141624380200,12.314380126953125,-0.5361786484718323,0.5543615818023682,-2.049236536026001
1733512141634454300,12.324454345703124,-0.36698269844055176,1.0174962282180786,-2.9809987545013428
1733512141644529200,12.334529052734375,-0.013808167539536953,1.3889728784561157,-4.237290382385254
1733512141654604300,12.344604248046876,0.23349350690841675,-0.7088531851768494,-2.778496503829956
1733512141664679200,12.35467919921875,0.3551664352416992,-0.9679254293441772,-1.0087512731552124
1733512141674754000,12.364754150390626,0.3192552924156189,0.1575024127960205,-0.11417681723833084
1733512141684828200,12.374828125,0.12512947618961334,1.015538215637207,0.39870408177375793
1733512141694903000,12.384903076171875,-0.04318709671497345,1.3406046628952026,0.5583347678184509
1733512141704978200,12.394978271484375,-0.1420736163854599,1.1641258001327515,0.5681939125061035
1733512141715053000,12.405052978515625,-0.17535674571990967,0.6408060789108276,0.6221876740455627
1733512141725127200,12.415127197265624,-0.1710783988237381,-0.10262566804885864,0.8496950268745422
1733512141735202000,12.4252021484375,-0.10504692792892456,-1.0302958488464355,1.1647379398345947
1733512141745277200,12.435277099609374,0.02309083752334118,-2.061721086502075,1.4338582754135132
1733512141755352300,12.445352294921875,0.14347264170646667,-2.814699172973633,1.463544487953186
1733512141765427200,12.45542724609375,0.20327892899513245,-2.8526389598846436,1.2799692153930664
1733512141775501300,12.465501220703125,0.23809470236301422,-2.32397198677063,1.0811796188354492
1733512141785576200,12.475576171875,0.2902725338935852,-1.2341587543487549,0.9519171118736267
1733512141795651000,12.485651123046875,0.3803446292877197,0.527736246585846,0.8623046875
1733512141805726200,12.495726318359376,0.47741010785102844,2.442596673965454,0.5794976353645325
1733512141815800000,12.505800048828124,0.48645445704460144,3.8687493801116943,0.022479377686977386
1733512141825875200,12.515875244140625,0.4028950333595276,4.408839225769043,-0.6446908116340637
1733512141835950000,12.5259501953125,0.3163774311542511,4.008901596069336,-1.3067479133605957
1733512141846025200,12.536025146484375,0.29224178194999695,3.0258662700653076,-1.8931187391281128
1733512141856099300,12.546099365234374,0.3776288628578186,1.8095011711120605,-2.4032888412475586
1733512141866173200,12.556173095703125,0.5805503129959106,0.5739200711250305,-2.7825732231140137
1733512141876248300,12.566248291015626,0.7785044312477112,-0.3396624028682709,-2.9809412956237793
1733512141886323500,12.576323486328125,0.830737829208374,-0.994642436504364,-3.014284610748291
1733512141896398300,12.5863984375,0.7356672286987305,-1.5143988132476807,-2.891380548477173
1733512141906473500,12.596473388671875,0.5625922083854675,-1.9094535112380981,-2.6223506927490234
1733512141916547300,12.60654736328125,0.38646137714385986,-2.2420096397399902,-2.331761121749878
