time,seconds_elapsed,z,y,x
1733511663405198300,0.0251982421875,-0.023178923274576664,0.004068272352218628,-0.03774725459218025
1733511663415217400,0.035217529296875,0.017270283752679822,0.00535655859708786,-0.11163315953612327
1733511663425237500,0.045237548828125,-0.01964636523425579,0.04778466448187828,-0.07275076343417167
1733511663435256600,0.055256591796875,-0.08573913208395242,0.015183540606498718,-0.015372925698757171
1733511663445275400,0.065275390625,-0.0387993939936161,-0.04840425768494606,0.038336306526511904
1733511663455294500,0.07529443359375,0.009653671269118785,-0.024697803404927252,0.11826792137548327
1733511663465314300,0.085314208984375,0.013259586806595326,0.02061199539601803,0.20105054174140094
1733511663475333400,0.09533349609375,0.11309212617278099,-0.017619243320822715,0.2579066936902702
1733511663485352000,0.10535205078125,0.20341946282982826,-0.037971710997819895,0.32632980318367477
1733511663495371000,0.11537109375,0.262305659301579,-0.0441805025100708,0.35135625402107834
1733511663505389800,0.125389892578125,0.311178119020164,-0.06342179407477379,0.39898806602880355
1733511663515410000,0.135409912109375,0.3632902913123369,-0.14246025947630406,0.4017717053979635
1733511663525429000,0.145428955078125,0.32746231434494255,-0.20814356874227521,0.3766105222649872
1733511663535448000,0.155447998046875,0.27571108431965113,-0.23353461510837076,0.3388298037946224
1733511663545467100,0.165467041015625,0.2794239673629403,-0.22767595220804213,0.35853052956461906
1733511663555486000,0.17548583984375,0.2574959209322929,-0.1706564263910055,0.3738758366040885
1733511663565506000,0.185506103515625,0.18036591950058936,-0.11394435908794402,0.3639505087867379
1733511663575525000,0.195525146484375,0.06481295617222786,-0.03351356254518032,0.3625760055631399
1733511663585544200,0.205544189453125,-0.052019817833602426,0.00931318726837635,0.3202890617147088
1733511663595563000,0.21556298828125,-0.09077683399021624,0.018117255970835685,0.2532069915667176
1733511663605582800,0.225582763671875,-0.021417758820950983,0.011214052453637123,0.1981898916132748
1733511663615602000,0.235601806640625,0.006084580610692501,0.01583820512294769,0.15768296304941176
1733511663625621000,0.24562109375,-0.04595364966243505,0.04892448216676712,0.10033990436643361
1733511663635640000,0.25564013671875,-0.11035568694621324,0.06665186203718185,0.0662066024877131
1733511663645659000,0.265658935546875,-0.16830664839446544,0.055524318823218344,0.016193886692821978
1733511663655679000,0.275678955078125,-0.17974807986319064,0.054555181530117985,-0.0416522992067039
1733511663665698000,0.285697998046875,-0.17774375430345535,0.02942717001438141,-0.07274126495346427
1733511663675717000,0.295717041015625,-0.1434448865994811,-0.03407704164683819,-0.06424012472033501
1733511663685736000,0.30573583984375,-0.14273819963485002,-0.05499065033793449,-0.039270810897648334
1733511663695755000,0.315755126953125,-0.14459551793932915,-0.07445698283016682,-0.03650865270793438
1733511663705775000,0.325775146484375,-0.11993746202290058,-0.10730711303055286,-0.07955956666618585
1733511663715794200,0.335794189453125,-0.15493249529749153,-0.12156184835433959,-0.16151669599339366
1733511663725813000,0.34581298828125,-0.187569275008142,-0.12016367199420928,-0.18809958249256015
1733511663735832000,0.35583203125,-0.14729893167912958,-0.09343114789128303,-0.14483371060937641
1733511663745851100,0.36585107421875,-0.10509878933131694,-0.11120879664421081,-0.03789733058735728
1733511663755871000,0.37587109375,-0.11115618967413901,-0.13204174131453036,0.09292758228331803
1733511663765890000,0.38589013671875,-0.12326602192372083,-0.13332768947184084,0.16990473124086855
1733511663775908900,0.395908935546875,-0.1438923381060362,-0.10768237608373164,0.17761019105166195
1733511663785928000,0.405927978515625,-0.17450053459852932,-0.08732523223161696,0.14234554705545305
1733511663795948000,0.415947998046875,-0.19644436312019825,-0.07333645436763762,0.10028349800407886
1733511663805967000,0.425967041015625,-0.18443068472146987,-0.03224105839133262,0.07440072259828448
1733511663815986000,0.43598583984375,-0.17524463096410034,-0.033872458985447884,0.0567047607794404
1733511663826005000,0.4460048828125,-0.13367606451809405,-0.06779343328773975,0.10510068902745842
1733511663836024000,0.456024169921875,-0.1070697971433401,-0.11724456967711448,0.19897811938151716
1733511663846044200,0.466044189453125,-0.15164894358217715,-0.13643734592497347,0.25963819365799423
1733511663856063200,0.476063232421875,-0.2457031918078661,-0.060840545409917825,0.2387674011953175
1733511663866082000,0.48608203125,-0.30587358287125826,0.05394552519917488,0.18656272831410167
1733511663876101000,0.49610107421875,-0.43596039072573184,0.08917933566570281,0.043905631091445685
1733511663886121000,0.506120849609375,-0.5480959468260407,0.1421013630360365,-0.14402020226940512
1733511663896140000,0.51614013671875,-0.5922481000244617,0.2606517546147108,-0.3134120155520737
1733511663906158800,0.526158935546875,-0.6621019729733467,0.27036533937752244,-0.447595883461833
1733511663916178000,0.536177978515625,-0.6323766967952251,0.22774434126913545,-0.5494359632581473
1733511663926197000,0.546197021484375,-0.4400637343913317,0.11660510272979735,-0.46378158684819937
1733511663936217000,0.556217041015625,-0.286188931453228,0.011264905858039855,-0.23504735775887964
1733511663946236200,0.566236083984375,-0.30906799499839543,-0.06010287878513336,0.04923676298633217
1733511663956255000,0.5762548828125,-0.48556671767681836,-0.06843348475694656,0.2274604097612202
1733511663966274000,0.586274169921875,-0.822055511303246,-0.0909796630859375,0.2526416127689183
1733511663976293000,0.596293212890625,-1.2887149916753171,0.04585048154890537,0.30153029296994205
1733511663986313200,0.606313232421875,-1.6294173113435506,0.3439560607671737,0.24329613066613673
1733511663996332000,0.61633203125,-1.5767051273316144,0.472765980553627,0.12349296254739164
1733511664006351000,0.62635107421875,-1.2077113636806607,0.31554303623139857,0.06423910180702805
1733511664016370200,0.6363701171875,-0.8686138488605618,0.05629588771760463,0.2475125793173909
1733511664026390000,0.64639013671875,-0.6517582736134528,-0.2390834814071655,0.639111558008194
1733511664036409000,0.6564091796875,-0.5085314136788248,-0.5062310277819633,0.9169673992715776
1733511664046428000,0.666427978515625,-0.26579291689544915,-0.7314946581512689,0.8096523951955139
1733511664056447000,0.676447021484375,-0.23795272381156682,-0.6569149257242679,0.7684899253323674
1733511664066466000,0.686466064453125,-0.6716358172550797,-0.3579366553246975,0.5973945230022072
1733511664076486100,0.696486083984375,-1.0520175286218523,0.027840777605772016,0.44303895080983635
1733511664086505000,0.7065048828125,-1.1762465503588317,0.22740824118256567,0.2796890480399132
1733511664096524000,0.71652392578125,-1.101248884780705,0.11161328579187392,0.11385273528173565
1733511664106543000,0.726543212890625,-0.7019990990757942,-0.15110416918098926,0.028149551293998955
1733511664116562200,0.736562255859375,-0.25190233870893713,-0.4511544527262449,-0.09456161322593688
1733511664126582300,0.746582275390625,0.25895079591572284,-0.7334370243906975,-0.37375644800812
1733511664136601000,0.75660107421875,0.6738263130366802,-0.8243740173786878,-0.6246307588435709
1733511664146620200,0.7666201171875,0.9500561605334281,-0.6910550957351923,-0.6483486113004386
1733511664156639000,0.776638916015625,1.0015069463074207,-0.4790203647732734,-0.39678295719996093
1733511664166659000,0.7866591796875,0.6935381447225809,-0.3094043873459101,-0.1677878852173686
1733511664176678000,0.796677978515625,0.2813818234324455,-0.2613648713201284,0.026864187658578155
1733511664186697000,0.806697021484375,-0.006960486662387848,-0.3751730368077755,0.22338103149309754
1733511664196716000,0.816716064453125,-0.09336480465680361,-0.5642769740372896,0.3974611487224698
1733511664206735000,0.826735107421875,-0.028723113398253917,-0.814852740317583,0.4395996240109205
1733511664216755000,0.8367548828125,0.09796119253635406,-1.0322498750954865,0.4043984006397426
1733511664226774000,0.84677392578125,0.11708996363729238,-1.141646653881669,0.4074415677279234
1733511664236793000,0.85679296875,-0.1617155795663595,-1.0669757360398768,0.37925270733684296
1733511664246812200,0.866812255859375,-0.7440127789407968,-0.763994075217843,0.22382804460823535
1733511664256832000,0.87683203125,-1.2987015481606126,-0.4159060292124748,-0.02505801501944661
1733511664266851000,0.88685107421875,-1.6508040905043482,-0.1054009871482849,-0.17397680298537016
1733511664276870000,0.896869873046875,-1.84704591678977,0.023446342039108274,-0.18745719293579458
1733511664286889000,0.906888916015625,-1.9683298249855636,-0.005550619864463806,-0.10983385502919554
1733511664296908000,0.916907958984375,-1.9812118106514214,-0.06573065553903579,0.10803162791281938
1733511664306927900,0.926927978515625,-1.9715709988638757,-0.2432318332582712,0.38841932574138044
1733511664316947000,0.936947021484375,-1.9391124983295798,-0.45665538823008534,0.6846649563066661
1733511664326966000,0.946966064453125,-1.8436372773900627,-0.6159095461189746,0.862807792930305
1733511664336985000,0.956985107421875,-1.7781906994894146,-0.8251742278456687,0.7904407681167125
1733511664347004000,0.96700390625,-1.5280550781920552,-1.0490133783698081,0.4811776889376342
1733511664357024000,0.97702392578125,-1.054105440811813,-1.3137234684646129,0.15812690742462873
1733511664367043000,0.98704296875,-0.6238225112006068,-1.4470102414041757,-0.10534574982970953
1733511664377062100,0.997062255859375,-0.29643384661376476,-1.4569447754412888,-0.3404619350410998
1733511664387081200,1.007081298828125,-0.02504179453700781,-1.4422265142589807,-0.5044312848836183
1733511664397100800,1.017100830078125,0.18542378741204738,-1.3509247796118258,-0.5649561884731054
1733511664407120000,1.027119873046875,0.23787585918307302,-1.3691419888257979,-0.5450361208640039
1733511664417139000,1.037138916015625,0.18155483702421188,-1.4009616069346666,-0.49052770108506083
1733511664427158000,1.047157958984375,0.14398410804271697,-1.5208125597178934,-0.4911101771481335
1733511664437176800,1.0571767578125,0.2123646935686469,-1.6417822873979806,-0.5919730824753642
1733511664447197000,1.067197021484375,0.412841380944848,-1.6287883657902478,-0.5635398919343948
1733511664457216000,1.077216064453125,0.46348026581406593,-1.6523077730655669,-0.5654466023385525
1733511664467235000,1.087235107421875,0.38049861574470994,-1.6177046617180109,-0.4747762974627316
1733511664477254000,1.09725390625,0.16381401315033434,-1.3641928419858216,-0.1963287739165127
1733511664487274500,1.1072744140625,-0.3311953633934259,-1.0517723216891288,-0.10984013863950967
1733511664497293600,1.11729345703125,-0.9588231120958923,-0.6038233870059252,-0.003411123617738485
1733511664507312400,1.1273125,-1.785002717591822,-0.0789671537309885,0.21447905537411568
1733511664517331500,1.13733154296875,-2.761855991896987,0.3905898016482591,0.4757841593310237
1733511664527350500,1.1473505859375,-2.6612229498028754,0.5768167221367358,0.7956649325057864
1733511664537370400,1.157370361328125,-1.0072992659732698,0.8339648525446652,1.3009496193483472
1733511664547389400,1.167389404296875,-0.20872282993495464,1.7162877855449914,2.1927830157548187
1733511664557408300,1.177408203125,-1.3959993083521722,2.7129806095689535,3.059233256840706
1733511664567427300,1.18742724609375,-3.214014945490658,3.0944863565295933,3.3502576456263657
1733511664577446400,1.1974462890625,-4.025333081941306,2.7164842337757347,3.159368286284804
1733511664587466500,1.207466552734375,-2.968496754860878,1.8736030843257903,2.872857283270359
1733511664597485300,1.2174853515625,-1.8406319580942392,0.8848159188598393,2.508715051303804
1733511664607504400,1.22750439453125,-1.438960498200357,-0.09398878177404403,2.1510653962269424
1733511664617523500,1.2375234375,-1.4531640878587961,-1.0019418305933474,1.769002892166376
1733511664627543600,1.24754345703125,-1.5782549871221183,-1.817183277967572,1.445877730242908
1733511664637562600,1.257562744140625,-1.4808862075209617,-2.186027111753821,1.0953463827386498
1733511664647581400,1.26758154296875,-0.6998720239192247,-1.8098878602623938,0.4466961581431329
1733511664657600500,1.2776005859375,1.0914981828778982,-0.8667921863913536,-0.5754835738368332
1733511664667619600,1.28761962890625,2.6341277298673984,-0.1034971993535757,-1.6090725885815917
1733511664677639400,1.297639404296875,3.14512699496448,0.11298515866696834,-2.3970427288010714
1733511664687658200,1.307658203125,2.862518844607472,-0.19126257656812667,-2.8688237899705764
1733511664697677300,1.31767724609375,2.4008535192608833,-0.8801625400960444,-3.0309339218124745
1733511664707696400,1.3276962890625,1.8633102383702993,-1.4567945533156395,-2.8720523966282605
1733511664717716500,1.337716552734375,0.9453478367120027,-1.4034493320971726,-2.2304867234662176
1733511664727735600,1.347735595703125,-0.09149930304586887,-0.6199257960230111,-0.9760189423728733
1733511664737754400,1.35775439453125,-0.3432423595398664,0.21000176382958888,0.1733089867264032
1733511664747773400,1.3677734375,0.37302433434128757,0.6054939505666495,1.2315870370477437
1733511664757792500,1.37779248046875,1.415343768030405,0.6281809986710548,2.194971611840278
1733511664767812600,1.3878125,1.947818075093627,0.4320703975498676,2.719063144353032
1733511664777831400,1.39783154296875,1.7443028968043623,0.09998188470900059,2.4898683120146394
1733511664787850500,1.4078505859375,0.7662462380588054,-0.21781506792902947,1.5044979692548512
1733511664797869600,1.41786962890625,-0.6194404967240988,-0.300814253655076,0.44113888934217393
1733511664807888400,1.427888427734375,-1.5496895485036075,-0.1948638159304857,0.004302665629982948
1733511664817908200,1.437908203125,-1.3390794435173272,-0.008899930292367934,-0.017440087361633775
1733511664827927300,1.44792724609375,-0.31778774641826746,0.15018413172662257,0.47014695716165006
1733511664837946400,1.4579462890625,0.6676473321408033,0.07303367202877997,0.7930791537962854
1733511664847965400,1.46796533203125,1.3284816232658923,-0.19753800357580184,0.7363946320872753
1733511664857985500,1.477985595703125,1.5272851167328654,-0.435212202706933,0.3879539001867175
1733511664868004400,1.48800439453125,1.1422471039928495,-0.45321313882172104,-0.2547900229744613
1733511664878023400,1.4980234375,0.056193742517381906,-0.07599895157516003,-0.8909092672988772
1733511664888042500,1.50804248046875,-1.3115116376340388,0.6564993306607008,-0.7110667871505022
1733511664898061600,1.5180615234375,-2.2496073112607,1.4269547108471392,-0.17246997861899435
1733511664908081400,1.528081298828125,-2.04990306956172,1.89613289604187,0.24387502653263507
1733511664918100500,1.5381005859375,-0.8701976109206676,1.8054034083247184,0.683236677069217
1733511664928119300,1.548119384765625,0.4144850564986467,1.2565917144447565,1.0640961620155722
1733511664938138400,1.558138427734375,1.270150138067454,0.5369932457923888,0.993042046431452
1733511664948157200,1.5681572265625,1.4850953496485948,-0.09545710076093673,0.383805256074667
1733511664958177300,1.57817724609375,1.2579530659258364,-0.5752262380748987,-0.33133250684179366
1733511664968196400,1.5881962890625,0.9473709400374442,-0.934744609633088,-0.9806297971691935
1733511664978215400,1.59821533203125,0.552868348859623,-1.1189461617738008,-1.3980293528750538
1733511664988234500,1.608234375,0.07148359304256736,-0.9883417597860097,-1.7400284343555568
1733511664998254300,1.61825439453125,-0.19768055385164915,-0.5416039544582366,-1.9107798455536364
1733511665008273400,1.6282734375,-0.1946018770586699,0.1529243703454733,-1.8851570362582801
1733511665018292500,1.63829248046875,-0.055423086938448246,0.7872977939158677,-1.8027664839498698
1733511665028311600,1.6483115234375,0.02263276063390076,1.1742775883734224,-1.5593118017211556
1733511665038330400,1.658330322265625,-0.3096545261820778,1.1286486406207084,-1.3770014701545237
1733511665048350200,1.66835009765625,-1.2699211516171693,0.6590045914798974,-1.1681821941077708
1733511665058369300,1.678369384765625,-2.3651865780740975,0.08084580708444118,-0.4720546174138784
1733511665068388400,1.688388427734375,-3.2631033860474825,-0.5140566068410873,0.10568396880812943
1733511665078407200,1.6984072265625,-3.8223236612170934,-1.083628180155158,0.632297274883464
1733511665088426200,1.70842626953125,-3.7516876979798077,-1.3650024048030376,1.16110626437217
1733511665098446300,1.7184462890625,-2.9724422776162625,-1.2792623959362506,1.6056734476625918
1733511665108465400,1.72846533203125,-2.3248317713320255,-0.9777379481852054,1.7177213254794477
1733511665118484500,1.738484375,-2.192122506019473,-0.5737707785695791,1.4257659394539892
1733511665128503300,1.74850341796875,-2.495819621634483,-0.223573193064332,0.8465931557103991
1733511665138523400,1.7585234375,-3.235938900268078,-0.009463993915915488,0.28341011438965796
1733511665148542500,1.76854248046875,-4.009511535692215,0.03242109113335609,-0.06115092653334141
1733511665158561500,1.7785615234375,-4.412080528947711,-0.23708558558821677,-0.3488486551143229
1733511665168580400,1.788580322265625,-4.361269210121035,-0.7483335647493601,-0.6912633316583932
1733511665178599400,1.798599365234375,-4.17466527301371,-1.093447563380003,-1.1220103716500103
1733511665188619300,1.808619384765625,-3.943910644012689,-1.285817224407196,-1.415398566957563
1733511665198638300,1.818638427734375,-3.6707203103423116,-1.6382693108409643,-1.1101296719811855
1733511665208657400,1.828657470703125,-3.0701795982688664,-1.991670076301694,-0.3853929636575281
1733511665218676200,1.83867626953125,-2.166426339226961,-2.0583166776418684,-0.04826499534472823
1733511665228696300,1.8486962890625,-1.3709861553877591,-1.783070580485463,-0.3682508363291621
1733511665238715400,1.85871533203125,-0.5809318293053657,-1.4487673142045736,-0.8090852628320455
1733511665248734500,1.868734375,0.10951010296754539,-1.3470990838438273,-0.9586569617487489
1733511665258753300,1.878753173828125,0.6772772572081536,-1.5588719489991665,-0.7562083897776901
1733511665268772400,1.8887724609375,1.5823714825302362,-2.0356033260524273,-0.3189538675881922
1733511665278792400,1.89879248046875,2.9359868164002894,-2.3045856866389514,0.11282149253785609
1733511665288811500,1.9088115234375,4.195637918415666,-1.3631728512883186,0.3221631850235164
1733511665298830600,1.91883056640625,5.380332271385193,1.4128852689623832,0.24858313115835187
1733511665308849400,1.928849365234375,6.300860139617323,5.414699235889315,-0.03151625124812126
1733511665318868500,1.938868408203125,6.661967241671681,9.610135494253038,-0.03784223939925432
1733511665328888300,1.948888427734375,6.4520940726578235,12.629226710319518,0.02293532377704978
1733511665338907400,1.958907470703125,4.951801153877377,11.48241229841113,-0.36699352974444627
1733511665348926200,1.96892626953125,1.9714912116259335,5.088772752809525,-1.3868990331821143
1733511665358945300,1.9789453125,-0.30721827547848224,-0.3378799557238817,-1.72038382268697
1733511665368965400,1.98896533203125,-0.4770873508840799,-1.1979869652628898,-1.3939916217915713
1733511665378984400,1.998984375,1.3064233745843172,0.2552607092261314,-0.5415872955843806
1733511665389003500,2.00900341796875,2.5321792212605474,1.2945645944863557,0.11021043325662612
1733511665399022300,2.019022216796875,2.5911563108861446,1.4467612350791692,0.33669878311529755
1733511665409041400,2.02904150390625,2.011030610331893,1.204917056787014,0.30137729436531663
1733511665419061500,2.0390615234375,1.3757728051424025,0.7387853996813297,0.2785531758777797
1733511665429080600,2.04908056640625,0.6748229228585958,0.08187865726351737,0.3777197986811399
1733511665439099400,2.059099365234375,-0.24799681917037814,-0.8018079653054475,0.5085379895500839
1733511665449118500,2.069118408203125,-1.3625824841797352,-1.9820055913776158,0.6122939859703183
1733511665459138300,2.07913818359375,-2.3917069207310675,-2.9477228469014167,0.8048492326974869
1733511665469157400,2.089157470703125,-2.904398084437847,-3.361311246821284,1.0580872039243578
1733511665479176200,2.09917626953125,-2.6158710654258726,-3.193119164717197,1.1227641126267611
1733511665489195000,2.109195068359375,-1.7929098374545573,-2.625769359105825,0.8882152059093117
1733511665499214000,2.119214111328125,-1.0563052889436482,-2.0231372277110813,0.5881045704789459
1733511665509234200,2.129234130859375,-0.5778022260427474,-1.4352309562832117,0.42732130332663654
1733511665519253200,2.139253173828125,-0.38751810258533803,-0.933549262368679,0.008757014690339565
1733511665529272000,2.14927197265625,-0.5143740022271871,-0.3717091600894928,-0.79179291337803
1733511665539291100,2.159291015625,-0.8880506629973649,0.25816286040842534,-1.4789830042481422
1733511665549310200,2.169310302734375,-1.300149701142311,0.7206406711816787,-1.9213370415337383
1733511665559330300,2.179330322265625,-1.5296838484376667,1.019399161350727,-2.1587423605956135
1733511665569349400,2.189349365234375,-1.5620026482403278,1.0924246500730515,-2.129863472113758
1733511665579368200,2.1993681640625,-1.4832266331672668,0.9457628472536802,-2.0017199072815477
1733511665589387300,2.20938720703125,-1.297415892264247,0.6666553984940051,-2.011019796676934
1733511665599407000,2.219406982421875,-1.1695856311649084,0.500517326310277,-2.2647557805538177
1733511665609426200,2.22942626953125,-1.1696201179563999,0.52432782548666,-2.6682223071709275
1733511665619445000,2.239445068359375,-1.2553437602102755,0.7765081043541431,-3.1206729371875523
1733511665629464000,2.249464111328125,-1.280416242146492,1.2708090403676033,-3.4014082794100045
1733511665639483100,2.259483154296875,-1.2328361603260038,1.7784014196306466,-3.4118513474911447
1733511665649503200,2.269503173828125,-1.1430477528512477,2.05799694416821,-3.1072125671118496
1733511665659522300,2.279522216796875,-0.9176251325279474,1.865796794489026,-2.612599788670242
1733511665669541000,2.289541015625,-0.5340208789180964,1.4175509226858616,-2.069217572493106
1733511665679560200,2.299560302734375,-0.2098391936790198,1.0321937609940766,-1.4706789940223097
1733511665689580300,2.309580322265625,-0.12174297707490622,0.7299187871366739,-0.9769586343757808
1733511665699599400,2.319599365234375,-0.31180633392110463,0.5808072530776262,-0.5978587795130909
1733511665709618200,2.3296181640625,-0.7619390423841774,0.5096341142237186,-0.44878041707128286
1733511665719637200,2.33963720703125,-1.343418787895888,0.40329906109571456,-0.4474577901653945
1733511665729656300,2.34965625,-1.8472797255456446,0.344050753313303,-0.5681212283752858
1733511665739676200,2.35967626953125,-1.9466389483116566,0.2546510528951883,-0.7545536083079875
1733511665749695200,2.3696953125,-1.4106670083910227,0.021309330010414122,-0.7595756742537021
1733511665759714000,2.379714111328125,-0.3999649482369423,-0.16496785936057567,-0.6779232269614934
1733511665769733000,2.389733154296875,0.4251782999485731,-0.15830314077436924,-0.5744346493057906
1733511665779752200,2.399752197265625,0.9756344000346958,-0.0696650723785162,-0.44882045682072635
1733511665789772300,2.409772216796875,1.4237657055474817,-0.02370528523623943,-0.36246085475087164
1733511665799791000,2.419791015625,1.8574318478561938,-0.16401859581172465,-0.35952290160283445
1733511665809810200,2.42981005859375,2.1854987039655445,-0.5034592249810695,-0.35261341447532174
1733511665819829200,2.439829345703125,2.332931052765995,-0.9551175355762243,-0.44853974018320436
1733511665829849300,2.449849365234375,2.1562731940031052,-1.439713654655218,-0.7414325531892478
1733511665839868400,2.459868408203125,1.6927423670455812,-1.8731500798612832,-1.0419940011270343
1733511665849887200,2.46988720703125,1.4002823924988508,-2.1293378408044576,-1.121924008540809
1733511665859906300,2.47990625,1.601336879763007,-2.393966682356596,-0.8369159574352204
1733511665869925400,2.48992529296875,1.992795427069813,-2.6670529711306092,-0.46424452818483114
1733511665879945200,2.4999453125,2.2770874388605353,-2.9587521904379126,-0.3142905519522726
1733511665889964000,2.509964111328125,2.3810418804623183,-3.2229403024852274,-0.27858225584179164
1733511665899983000,2.519983154296875,1.9923418380834161,-3.4635113921016454,-0.14678104528486727
1733511665910002200,2.530002197265625,0.9259721051126718,-3.3904730438977477,0.27762714707404373
1733511665920022300,2.540022216796875,-1.5281196678608655,-2.750934200388193,1.2911261444702744
1733511665930041300,2.550041259765625,-5.924330427503586,-1.5198410843372343,2.469568159046769
1733511665940060200,2.56006005859375,-14.695958165085315,0.4323497990131378,3.1147312721788882
1733511665950079200,2.570079345703125,-15.956192035424708,2.088680251723528,3.004673106874525
1733511665960098300,2.580098388671875,3.0590248747870326,1.174653435948491,2.0158038160830736
1733511665970118400,2.590118408203125,11.994632337474822,-0.3052724021077156,2.5443501360476017
1733511665980137200,2.60013720703125,15.944722546905279,-1.8420149368852377,2.3055574542805553
1733511665990156300,2.61015625,16.42076652621627,-2.936592381078005,1.5310881622776389
1733511666000175400,2.62017529296875,13.915104725003241,-3.5132822619646786,0.2657137141793966
1733511666010195200,2.6301953125,12.077431032192706,-1.7791402552992104,1.1745201649576424
1733511666020214000,2.640214111328125,10.904511872690916,1.2517021888375282,4.634950834439695
1733511666030233000,2.650233154296875,9.01829246789813,4.032568586152792,6.793322754287719
1733511666040252200,2.660252197265625,5.86251548410356,5.905234097367525,6.492153695845603
1733511666050271200,2.670271240234375,2.6490263160526752,6.4512652206182475,4.616701768782734
1733511666060291300,2.680291259765625,-0.4836094461292028,5.76641248665452,2.22029967597276
1733511666070310100,2.69031005859375,-6.022805414780974,3.6774493263363834,-1.4932413928337394
1733511666080329200,2.7003291015625,-9.409241165986657,2.064613731959462,-2.479698507916927
1733511666090348300,2.710348388671875,-4.433073048093915,1.5589011750936508,-1.7152685254998503
1733511666100368400,2.720368408203125,0.14639935249090194,1.176150981029868,-2.09967014003247
1733511666110387200,2.73038720703125,2.0596574247263373,0.573150016322732,-2.3599402018532154
1733511666120406300,2.74040625,3.46803442248404,0.5196107338368893,-3.175355544489622
1733511666130425000,2.750425048828125,4.4505806477338075,1.3717746754169464,-4.483419964279234
1733511666140444200,2.760444091796875,3.932806481674313,2.450608607032895,-5.0223669744879
1733511666150464300,2.77046435546875,0.9657102412611246,3.2071424293726682,-6.079943014019728
1733511666160483000,2.780483154296875,-4.18214539963603,3.0542467005997893,-7.1447063347071404
1733511666170502100,2.790502197265625,-5.92838700941801,2.3657687618762253,-4.432265823364258
1733511666180521200,2.800521240234375,-5.900593578085303,2.209897816684842,-1.4504098207145928
1733511666190541300,2.810541259765625,-6.47653176382184,2.149141442427039,0.8052202579669654
1733511666200560000,2.82056005859375,-5.735020738568902,2.0458260293811557,2.3142292749054727
1733511666210579200,2.8305791015625,-3.8441841953694817,1.449390999060869,2.355162612187862
1733511666220598300,2.840598388671875,-1.91720783277452,0.4571878876715898,1.6886099434159696
1733511666230617300,2.850617431640625,-0.640336715888977,-0.33072833040356636,1.1227506686232984
1733511666240637200,2.86063720703125,0.017904526535607874,-0.9457523258596658,0.7507087694481015
1733511666250656000,2.870656005859375,0.4711626735428348,-1.3747083907812834,0.4688216268420219
1733511666260675000,2.880675048828125,0.8822855235993862,-1.7639117065072059,0.18316680226549506
1733511666270694100,2.890694091796875,1.1973685411036015,-2.1971529014021156,-0.04674523843154311
1733511666280714200,2.90071435546875,1.3379133223474025,-2.560347331124544,-0.14864289363399147
1733511666290733000,2.910733154296875,1.2945686861395835,-2.8280419899880886,0.08886237867102026
1733511666300752100,2.920752197265625,1.065619645255804,-2.69545547427237,0.6124078216083347
1733511666310771200,2.930771240234375,0.5432569823622703,-2.034883779606223,1.4037361862145363
1733511666320790300,2.940790283203125,-0.2849602664411068,-1.129061313074827,2.4907366192817686
1733511666330810400,2.950810302734375,-1.5490905596971511,-0.28831191495656966,3.3856168360382317
1733511666340829200,2.9608291015625,-3.5300492723703383,0.28748540100455283,3.7079070084422825
1733511666350848300,2.97084814453125,-5.7111529562473295,0.5345008444547653,3.508419039842486
1733511666360867300,2.980867431640625,-6.415236460381746,0.6650397799909115,2.5690426787555216
1733511666370886100,2.99088623046875,-5.309425089991092,0.7214899814873933,1.0001892878375946
1733511666380906000,3.000906005859375,-3.7220939392268657,0.353588396987319,-0.1680006511852145
1733511666390925000,3.010925048828125,-2.33853062633872,-0.21760931622385976,-0.8600394972607492
1733511666400944000,3.020944091796875,-1.230599779576063,-0.6860439895749092,-1.343469349039346
1733511666410963200,3.030963134765625,-0.2379763238828629,-0.9887269597113132,-1.5918170640066265
1733511666420983300,3.0409833984375,0.716246235615015,-0.6192617791563272,-1.7012638194143772
1733511666431002000,3.051002197265625,1.583919881016016,0.2315601001650095,-1.7954986849039791
1733511666441021200,3.061021240234375,2.236522204238176,1.0352508104771374,-1.8991221409857273
1733511666451040300,3.071040283203125,2.613039641392231,1.7475754887342452,-2.1462508355520664
1733511666461059000,3.08105908203125,2.792645682436228,2.748990665104985,-2.60083453207463
1733511666471079200,3.0910791015625,2.9222084664165973,3.998151352766156,-3.1481776147067544
1733511666481099500,3.101099609375,3.0956606610059736,4.608334337931871,-3.778501762886345
1733511666491118600,3.11111865234375,3.2459283793628213,4.014454837313294,-4.69584252551496
1733511666501137400,3.121137451171875,2.8803204587578772,2.8014918367147446,-5.070674786061049
1733511666511157500,3.131157470703125,1.812068126910925,1.3413620014965533,-4.5375256484761834
1733511666521176600,3.141176513671875,0.571384248759225,-0.1875011782079935,-3.1666824086904524
1733511666531195600,3.151195556640625,-0.29616321297883985,-1.1034317817777395,-1.1494449065424501
1733511666541214500,3.16121435546875,-0.6071569153428077,-0.9677496381342411,0.986203870974481
1733511666551233500,3.171233642578125,-0.5109504575192928,-0.5061024329662323,2.5746996816039083
1733511666561253600,3.181253662109375,-0.30873744786977764,-0.21853344533145427,3.514336739453673
1733511666571272700,3.191272705078125,-0.0760743548989296,-0.1625356637775898,3.9509345513001084
1733511666581291800,3.201291748046875,0.20676175899505614,-0.23616204100251195,3.940593482288718
1733511666591310600,3.211310546875,0.45249476141929623,-0.3689864571273327,3.624031039881706
1733511666601330400,3.221330322265625,0.5531307261228561,-0.6057838734239339,2.8646459197640417
1733511666611349500,3.231349609375,0.5107506971634924,-1.0031173041135073,1.8687839936062693
1733511666621368600,3.24136865234375,0.39285950014591214,-1.4688666839033364,1.0523800783239305
1733511666631387400,3.251387451171875,0.31684936958961185,-1.763476822221279,0.3711484574668109
1733511666641406500,3.261406494140625,0.1980325090944767,-1.903449356535077,-0.08348916120007634
1733511666651426600,3.271426513671875,0.08326295122876763,-1.845335605740547,-0.2729742067016661
1733511666661445600,3.281445556640625,0.22238610217161475,-1.492495396772027,-0.4200139029227197
1733511666671464700,3.291464599609375,0.517479567027092,-0.9917898544132709,-0.3964743296422064
1733511666681483500,3.3014833984375,0.7418411339901387,-0.48235389311015603,-0.4530252150341868
1733511666691503600,3.311503662109375,0.9235772458653897,-0.018279753056168555,-0.6026571197055279
1733511666701522700,3.321522705078125,1.0291349579453468,0.2777653865009546,-0.7575333547711371
1733511666711541800,3.331541748046875,0.9283679872732609,0.32027883258163925,-0.9309757586188614
1733511666721560600,3.341560546875,0.6861584828000515,0.11585983732044697,-1.0289660311192272
1733511666731579600,3.35157958984375,0.506174767550081,-0.17465338707268238,-1.0939055362805723
1733511666741599500,3.361599609375,0.3356756506126374,-0.42099721487164493,-1.1142267320364714
1733511666751618600,3.37161865234375,0.008138809726759792,-0.5747095207244157,-1.1616101222410797
1733511666761637600,3.3816376953125,-0.4862159023005515,-0.4954524441361427,-1.0899953770995139
1733511666771656400,3.391656494140625,-1.0565269688703118,-0.34404490809440613,-1.0207874008387328
1733511666781676500,3.401676513671875,-1.4907763178944586,-0.4574193583399057,-1.0890750473842024
1733511666791695600,3.411695556640625,-1.5506979948937891,-0.5521078128159046,-0.9048936612486839
1733511666801714700,3.421714599609375,-1.2668904056191443,-0.4755202476978302,-0.4951607677131891
1733511666811733500,3.4317333984375,-0.8040729876279831,-0.442284333050251,-0.1715042753919959
1733511666821752600,3.441752685546875,-0.2798655736505985,-0.36225276495814324,0.1257601768270135
1733511666831772700,3.451772705078125,0.2989666530270129,-0.006568272474408149,0.2961345714062452
1733511666841791700,3.461791748046875,0.7414297767102718,0.619607231593132,0.13280337333679199
1733511666851810600,3.471810546875,0.8739373819708823,1.2913579073995352,-0.43236996501833197
1733511666861829600,3.48182958984375,0.6877858648061752,1.8222931683272123,-1.162965628503263
1733511666871849500,3.491849365234375,0.2723708705136552,2.0858236932486296,-1.9990940888226032
1733511666881868500,3.50186865234375,-0.4320364587476477,1.9662240848779677,-2.605542563635111
1733511666891887600,3.5118876953125,-1.4650795665800571,1.3861749566912651,-2.5423247676998377
1733511666901906400,3.521906494140625,-2.5588252361238,0.6764367877960205,-1.8615180942565202
1733511666911925500,3.531925537109375,-3.4780431908011433,0.36366321627795695,-1.144797665258497
1733511666921945600,3.541945556640625,-4.040876980292797,0.4535124140292406,-0.6607084727883339
1733511666931964700,3.551964599609375,-4.160619796526432,0.9455594336360692,-0.6140256320685148
1733511666941983500,3.5619833984375,-3.589172492468357,1.6893103467702864,-0.8863903285697102
1733511666952002600,3.57200244140625,-2.298202123081684,2.2178362084686754,-1.117977901263535
1733511666962022700,3.582022705078125,-1.1320657555878162,2.4682974084585902,-1.0706357198521494
1733511666972041700,3.592041748046875,-0.5265338110983372,2.38383224183321,-0.8160299674034118
1733511666982060500,3.602060546875,-0.5828068293970078,1.9224305358588694,-0.5866816980689764
1733511666992079600,3.61207958984375,-1.0325292765587568,1.2442056956022978,-0.5750770388625562
1733511667002098700,3.6220986328125,-1.2010065322797745,0.6973036347359418,-0.6239977216370404
1733511667012118500,3.632118408203125,-0.9568353723447769,0.4190373129755258,-0.6046683133974671
1733511667022137600,3.6421376953125,-0.541006573086977,0.4937041391640901,-0.5330684735640883
1733511667032156400,3.652156494140625,-0.15565233400464057,0.6816273421764374,-0.633419483846426
1733511667042175500,3.662175537109375,0.19632219804525375,0.7434288415729999,-0.8869279425777494
1733511667052195600,3.672195556640625,0.5034264917552471,0.618475012692809,-1.0589207321390508
1733511667062214700,3.682214599609375,0.7727152879424393,0.3107446960389614,-0.9381066334120929
1733511667072233700,3.692233642578125,1.1296249383069574,-0.006940612918138503,-0.586672930240631
1733511667082252500,3.70225244140625,1.6875797235853969,-0.23394202686548232,-0.3947231020607054
1733511667092271600,3.712271728515625,2.2640005782723427,-0.377417600864172,-0.42936216150447726
1733511667102291700,3.722291748046875,2.7200059781610966,-0.4683125082761049,-0.543353574604541
1733511667112310500,3.732310546875,3.018132015645504,-0.578709404015541,-0.8365238893777132
1733511667122329600,3.74232958984375,3.0688638394951817,-0.8521487440109252,-1.2243765211470425
1733511667132348400,3.752348388671875,2.8175457304149862,-1.2314274625718593,-1.4779087991453705
1733511667142368500,3.762368408203125,2.3953521453656257,-1.6841987028449772,-1.3276003103867173
1733511667152387600,3.7723876953125,2.066372558325529,-2.2006050876826047,-0.7567711382269859
1733511667162406700,3.78240673828125,2.261606961134076,-2.8239573510229588,0.007822071927785872
1733511667172425500,3.792425537109375,2.644395733642578,-3.4209921008020636,0.7730055030606686
1733511667182444500,3.802444580078125,1.9120577565349637,-3.6916760046094654,1.8101232764534652
1733511667192464600,3.812464599609375,-1.480816649416089,-3.3013995066940782,3.2270173426657913
1733511667202483700,3.822483642578125,-8.55595786498785,-2.246199548643827,3.8041020680889486
1733511667212502500,3.83250244140625,-18.366533513998984,-1.092943705511093,3.7915199421525
1733511667222521600,3.842521484375,-11.043783565258979,-1.4040946442633866,2.494192312693596
1733511667232541400,3.85254150390625,7.024263845771551,-2.1853215938329695,-0.3647108256347477
1733511667242560500,3.862560546875,14.450952307891844,-3.107740974900126,-0.2806047015801072
1733511667252579600,3.87257958984375,18.754138162356615,-5.159757675614952,-1.75271402066648
1733511667262598400,3.882598388671875,17.143290526926517,-6.254836639589071,-2.844778605255484
1733511667272617500,3.892617431640625,12.673370972472428,-5.520014882841706,-3.170299430143833
1733511667282637600,3.902637451171875,9.14856018527746,-2.643741069126129,-0.9022102673836052
1733511667292656600,3.91265673828125,8.485526484411954,1.579568700069189,3.073347414650023
1733511667302675500,3.922675537109375,6.5154942394226785,8.54239871071279,5.9278621087610714
1733511667312694500,3.932694580078125,-4.0154818422734735,12.184485047245024,2.384195814448595
1733511667322714600,3.942714599609375,-14.843736989235877,11.297454374945163,0.3991111078865826
1733511667332733700,3.952733642578125,-9.383732046198844,5.7781403338491915,2.9469226364344356
1733511667342752500,3.96275244140625,-0.6562772123426198,0.870073692280054,2.1572057986781
1733511667352771600,3.972771484375,2.7544559447735546,-0.8526239603072404,1.9456769714117048
1733511667362790700,3.982790771484375,3.65319225243628,-0.7775631663650274,1.5791859843619167
1733511667372810500,3.992810546875,3.8136119469732046,-0.6661217300087213,1.0432948545925318
1733511667382829600,4.00282958984375,3.856063433733582,-0.6006728140205144,0.4746555936925113
1733511667392848400,4.012848388671875,3.854985575369,-0.07107844630777835,-0.3762143625542521
1733511667402867500,4.022867431640625,3.5671494612306356,0.8769108448237181,-1.3157936988674104
1733511667412887600,4.032887451171875,3.0148242062717676,1.8376362834095954,-2.6597262815043328
1733511667422906600,4.04290673828125,2.399445990550518,2.8735674773663282,-4.243947483554482
1733511667432925400,4.052925537109375,1.1716927595119924,3.5708418860077855,-4.855114803582429
1733511667442944500,4.062944580078125,-0.15124445443451404,3.813801332065463,-5.414624417087436
1733511667452964600,4.072964599609375,-1.2732201931625604,3.3905776733160016,-5.246237104672193
1733511667462983700,4.082983642578125,-2.0947212854534385,2.6717595413863657,-3.7145553604155777
1733511667473002800,4.093002685546875,-2.816660764274001,2.1282728419214485,-2.240453844598681
1733511667483020000,4.10302001953125,-3.4252228702396152,1.501604001379013,-1.3782492782585323
1733511667493039000,4.1130390625,-3.687949677562713,0.6762894882798195,-0.8289853105664253
1733511667503059200,4.12305908203125,-3.2728830217838287,0.0575695609152317,-0.42767786167934535
1733511667513078000,4.133078125,-2.3404975424975154,-0.3875450271248817,-0.28356866595223545
1733511667523097000,4.14309716796875,-1.348839205509424,-0.563614126214385,-0.1604477515876293
1733511667533116200,4.1531162109375,-0.6102069505631923,-0.6227092892616987,-0.03871142344921827
1733511667543136000,4.163135986328125,-0.2728986572474241,-0.7775052986979484,0.1983592568308115
1733511667553155000,4.173155029296875,-0.21439678391814232,-0.8264309499084949,0.5193764866895973
1733511667563174000,4.183173828125,-0.3862684313178062,-0.83912208917737,1.0513098187439143
1733511667573193000,4.19319287109375,-0.6729097827136516,-0.8120733387321233,1.6620741109289228
1733511667583212000,4.2032119140625,-0.9683224695861339,-0.8625777835667133,1.9888054806508122
1733511667593232000,4.21323193359375,-1.1795464686870574,-0.9581921207159757,2.117440920653194
1733511667603251000,4.2232509765625,-1.2496867573618888,-0.7977128049463034,2.1897265507936474
1733511667613270000,4.23327001953125,-1.2428747392594814,-0.6145709909915924,2.3474799487307667
1733511667623289000,4.2432890625,-1.2933575567841529,-0.49694122138917446,2.37010109199211
1733511667633309200,4.25330908203125,-1.4118892436623574,-0.47327743720710275,2.198582934205234
1733511667643328000,4.263327880859375,-1.406136379224062,-0.670238517677784,1.905606096177548
1733511667653347000,4.27334716796875,-1.331414607977867,-1.153877189901471,1.5014502721220253
1733511667663366100,4.2833662109375,-1.2595172465026379,-1.959658735013008,1.1736468892544507
1733511667673385200,4.29338525390625,-1.2203951233606785,-2.790069109946489,1.0610425465986133
1733511667683404800,4.30340478515625,-1.2764929312229156,-3.259679841339588,0.9664806411117315
1733511667693423900,4.313423828125,-1.4355039280056952,-3.1678274870723486,0.5846846790328621
1733511667703443000,4.32344287109375,-1.4940028787255286,-2.381048748594522,0.015187047737836837
1733511667713462000,4.3334619140625,-1.5399357778608798,-0.9656430212438106,-0.4963435477569699
1733511667723482000,4.343482177734375,-1.6700059268414973,0.30845570831894875,-0.8925833379909396
1733511667733501000,4.3535009765625,-1.9318648652888832,0.943968949574232,-1.3728389436475932
1733511667743520000,4.36352001953125,-2.292410534068197,1.016476551902294,-1.8910661141715943
1733511667753539000,4.3735390625,-2.781196067661047,1.1237100151747466,-2.403125555846095
1733511667763558100,4.38355810546875,-3.2872809649705883,1.7082774975687265,-2.7789941737025976
1733511667773578000,4.393577880859375,-3.7000273611083623,2.9068472311556337,-2.7100243901118635
1733511667783597000,4.40359716796875,-3.507943823546171,3.8438989486873147,-2.1100839820191264
1733511667793616100,4.4136162109375,-2.7563936348378655,4.108680934974551,-1.6526627239830791
1733511667803635200,4.42363525390625,-1.9424701381944118,3.970588223057985,-1.4827679296143352
1733511667813655000,4.433655029296875,-1.1771651265084744,3.42651933979094,-1.4331893674530087
1733511667823673900,4.443673828125,-0.3165934951324016,2.6845395279824733,-1.3443996156267821
1733511667833693000,4.45369287109375,0.526862312400341,1.9446464593201875,-1.4344566109098493
1733511667843712000,4.4637119140625,1.3137468493402003,1.1593015530377626,-1.3958892721064389
1733511667853732000,4.473732177734375,2.0910031417131423,0.40914661808013914,-1.1756957846082747
1733511667863751000,4.4837509765625,2.7180069132983684,-0.31992168970704077,-0.9829739491425454
1733511667873770000,4.49377001953125,3.1166087564885614,-0.9115098645180463,-0.9042026102446019
1733511667883789000,4.5037890625,3.1683190699815746,-1.0222691638290882,-0.7429248375736176
1733511667893808000,4.51380810546875,2.8244389970600605,-0.4726701189637184,-0.2967500729560852
1733511667903828200,4.523828125,2.189843455171585,0.6394172629565,-0.2519179746694863
1733511667913847000,4.533846923828125,1.3851602266907692,1.2748428259283304,-0.8868084078513085
1733511667923866000,4.5438662109375,0.413667237309739,1.5107617058247327,-1.4221150157310067
1733511667933885200,4.55388525390625,-0.5265444055575877,1.5873130305856464,-1.7401060296364128
1733511667943904000,4.563904052734375,-1.2398036612510681,1.261941258779168,-1.9226191902987657
1733511667953923800,4.573923828125,-1.4128992974877357,0.49189621295928954,-1.7568528740368783
1733511667963943000,4.58394287109375,-0.9076141722537576,-0.2917775452405214,-1.200198796093464
1733511667973962000,4.5939619140625,-0.0803565622627735,-0.8391524843156337,-0.5213480790235102
1733511667983981000,4.60398095703125,0.6136345869243145,-1.1381640724629163,0.05028320329934358
1733511667994001200,4.614001220703125,1.0069126778084785,-1.1934165886074304,0.6219650467656552
1733511668004020000,4.62402001953125,1.1244073497891425,-0.985523195233941,1.1930924712195992
1733511668014039000,4.6340390625,0.8697557123720645,-0.6911433585405349,1.6378506470374763
1733511668024058000,4.64405810546875,0.2496586514353752,-0.4766033667594194,1.7320108398556708
1733511668034078200,4.654078125,-0.5456078928699717,-0.6410112541496753,1.2639030603714287
1733511668044097000,4.664096923828125,-1.1438836191534996,-0.8324006719678639,0.5331185963161289
1733511668054116000,4.6741162109375,-1.313325993579626,-0.6956354092627763,-0.006357406202703714
1733511668064135200,4.68413525390625,-1.1310697302877903,-0.3335223450362682,-0.1673646913692355
1733511668074154200,4.694154296875,-0.7650982370674609,0.019014497071504592,-0.2452382046446204
1733511668084173800,4.704173828125,-0.30121466941582037,0.21424773083627222,-0.691219638647139
1733511668094193000,4.71419287109375,0.030342531293630598,0.2741998029738664,-1.279198098528385
1733511668104212000,4.7242119140625,0.1331996791779995,0.4128524868607521,-1.8242209215193985
1733511668114231000,4.73423095703125,0.07850831318073906,0.6133142689287662,-2.3770025419436394
1733511668124251100,4.744251220703125,-0.092090254676342,0.817851922133565,-2.884323264658451
1733511668134270000,4.75427001953125,-0.42533670538067814,0.7866910601943731,-3.1791742259949443
1733511668144289000,4.7642890625,-0.8089438085347413,0.604993015307188,-2.9626521204859015
1733511668154308000,4.77430810546875,-1.0886351946622133,0.39607086340785025,-2.2692161209635433
1733511668164328200,4.784328125,-1.3042869470775127,0.2008160023331642,-1.6371068429328501
1733511668174347000,4.794346923828125,-1.5258213277906179,0.24021803839504718,-1.2880017288394272
1733511668184366000,4.804365966796875,-1.6358423759549856,0.536047489374876,-1.1369343845374882
1733511668194385200,4.81438525390625,-1.5536743803560733,0.8574538646817207,-1.2099265555121004
1733511668204404200,4.824404296875,-1.2420745287925004,1.1325088231801985,-1.3127785888299346
1733511668214424000,4.834424072265625,-0.868861393880844,1.3259189331710337,-1.2744910898812114
1733511668224443000,4.84444287109375,-0.5194072471540421,1.4351046995550394,-1.102370728417486
1733511668234462000,4.8544619140625,-0.2264782668560743,1.4091279622554778,-0.9581590952292084
1733511668244481000,4.86448095703125,-0.06153203480541706,1.210523206230998,-0.7629203085064887
1733511668254501000,4.874501220703125,-0.09268544409051536,0.9090706546723842,-0.6340766325809061
1733511668264520000,4.88452001953125,-0.13103987079560755,0.5542495010197163,-0.5930946338512003
1733511668274539000,4.8945390625,-0.16676409512758253,0.23250585658252237,-0.6003508885897696
1733511668284558000,4.90455810546875,-0.2374712969701737,0.03550269053578377,-0.481269458874315
1733511668294577200,4.9145771484375,-0.2622498374611139,-0.05007774385511875,-0.29982889587953687
1733511668304597200,4.92459716796875,-0.25516718572378155,-0.09317454278171063,-0.12523863717094064
1733511668314616000,4.934615966796875,-0.22038228806853294,-0.09119944331645966,-0.03162979462519288
1733511668324635100,4.94463525390625,0.0688105013757944,-0.07559680051505566,-0.1450920692846179
1733511668334654200,4.954654296875,0.5233475822776555,-0.13892799369692801,-0.39826749666929245
1733511668344674000,4.964674072265625,0.9901561157315969,-0.24180618436932563,-0.7001824050426483
1733511668354692900,4.97469287109375,1.4606617501378059,-0.4008744642972946,-0.9512811722837388
1733511668364712000,4.9847119140625,1.7475516694672404,-0.5888958669871092,-1.1041909295819698
1733511668374731000,4.99473095703125,1.373550745178759,-0.7860270433276891,-1.0375728236839175
1733511668384751000,5.004751220703125,0.587568417775631,-0.8087333806544542,-0.6909981048509478
1733511668394770200,5.014770263671875,0.4169045387305319,-0.9441641798853874,-0.122309890242666
1733511668404789000,5.0247890625,1.3733191283799706,-1.4786743766903876,0.3443998590119183
1733511668414808000,5.03480810546875,2.68044261405766,-2.104450067785382,0.5258921521939337
1733511668424827100,5.0448271484375,3.6682775933653113,-2.5731308248519897,0.5437058951735496
1733511668434847200,5.05484716796875,3.6019042560085652,-2.8316005592525,0.8074092924438416
1733511668444866000,5.064865966796875,2.242314962295443,-2.752550987935066,1.479177065515518
1733511668454885000,5.074885009765625,-0.2921677136018872,-2.173507821920514,2.5837767220288512
1733511668464904200,5.084904296875,-4.066582499435544,-1.3679524867802857,3.414320952475071
1733511668474924000,5.094924072265625,-8.609774210849404,-0.5214478861361742,2.931318824589252
1733511668484943400,5.104943359375,-12.459112135720252,0.2780629081428051,1.8347994525484739
1733511668494962200,5.114962158203125,-2.885938298639655,-0.07325695939064025,-1.1103675723902882
1733511668504981200,5.124981201171875,10.32273255971074,-1.4741115988194942,-4.096978806743025
1733511668515000300,5.135000244140625,17.303045035552977,-2.9224276621252296,-5.234524455046653
1733511668525020400,5.1450205078125,20.327906067192554,-4.6887721487373115,-5.9219163520991795
1733511668535039500,5.15503955078125,17.447735246038437,-5.9681684001863,-5.316614709234237
1733511668545058300,5.165058349609375,11.702418154382705,-4.158101676225662,-3.0294141648992894
1733511668555077400,5.175077392578125,6.954559610426426,0.6303717867136002,0.2504305125907063
1733511668565097200,5.18509716796875,-3.1734032413780686,10.122602786076069,4.126503591912985
1733511668575116300,5.1951162109375,-13.721733193457126,14.451322894769906,4.22615931340754
1733511668585135000,5.205135009765625,-9.603817397147417,10.404276870453357,4.565789327669143
1733511668595154200,5.215154296875,0.93006448899284,4.119066135388612,4.933737673920393
1733511668605174300,5.22517431640625,6.089397071063519,-0.4648749350428581,4.547487362781167
1733511668615193300,5.235193359375,7.188778700667619,-2.7808295724362133,3.8831305966183542
1733511668625212400,5.24521240234375,5.666363966450095,-3.3380811778813597,3.088099285840988
1733511668635231200,5.255231201171875,3.5864386835902926,-2.6107535762816667,2.197330449926108
1733511668645250300,5.265250244140625,1.9253448158703743,-1.472573137205839,-0.12707915047109125
1733511668655270400,5.2752705078125,0.9956740023702383,-0.5665297214001417,-2.426505262389779
1733511668665289500,5.28528955078125,0.6362431629650295,-0.06101940910816192,-3.9072090990811583
1733511668675308300,5.295308349609375,0.5757008698493242,0.23859774371683595,-4.386283824390173
1733511668685327400,5.305327392578125,0.3303484642405063,0.6217302150964736,-4.1102819404304025
1733511668695347200,5.31534716796875,-0.0008439765434712171,1.115391099640727,-3.5604239523679015
1733511668705366300,5.3253662109375,-0.14586210380904377,1.5851473769843578,-3.0424615702599285
1733511668715385300,5.33538525390625,-0.35384799777157605,2.0827239736676213,-2.7289655296862123
1733511668725404200,5.345404052734375,-0.5495790980558842,2.4572160424739122,-2.2836494277246295
1733511668735423200,5.35542333984375,-0.3947545201122761,2.5510610318630933,-1.5879329160496591
1733511668745443300,5.365443359375,-0.023676059141755103,2.2364193283855913,-0.9075402302347123
1733511668755462400,5.37546240234375,0.21262513460312038,1.5921376742631197,-0.5591564161531627
1733511668765481200,5.385481201171875,0.2103536825397983,0.7095137124896049,-0.356210562184453
1733511668775500300,5.395500244140625,0.4163035040974617,0.07569324662685394,-0.03363514309823513
1733511668785520400,5.405520263671875,0.5071920183012262,-0.0824964969009161,0.806577956186235
1733511668795539500,5.41553955078125,0.5864794900277629,-0.15564298165440557,1.278720105753094
1733511668805558300,5.425558349609375,0.6416308473527431,-0.17182897730171678,1.2659342739380894
1733511668815577300,5.435577392578125,0.6403343778014182,-0.08320902908444404,1.2680216016061603
1733511668825597200,5.44559716796875,0.5086906958937645,0.1401841312378645,1.3756884878598152
1733511668835616300,5.4556162109375,0.08147884429097176,0.4394575851917267,1.308360333996266
1733511668845635300,5.46563525390625,-0.47523733910322186,0.9297668212205171,1.0558540380448103
1733511668855654100,5.475654052734375,-1.0084007974743843,0.9624106151938437,0.8924668720044195
1733511668865673200,5.485673095703125,-1.5757798291802405,0.7409615746766328,0.9069612613029777
1733511668875693300,5.495693359375,-1.96545485407114,0.6340197878271341,0.5287902117229998
1733511668885712400,5.50571240234375,-1.9999720407009123,0.7029536233216523,-0.12325608505159616
1733511668895731200,5.515731201171875,-1.9090952534675596,0.8052800253301858,-0.5994491174444556
1733511668905750300,5.525750244140625,-1.841829643446207,0.7918371909111738,-0.8737623176649212
1733511668915770400,5.535770263671875,-1.9701041411817073,0.6298954013735055,-0.9406690312460064
1733511668925789400,5.54578955078125,-2.163143664294481,0.4051005575597286,-0.760642718963325
1733511668935808500,5.55580859375,-2.3861375961661335,0.16602233684957027,-0.4833762218952179
1733511668945827300,5.565827392578125,-2.6426795773744582,-0.1580921283721924,-0.188467246761173
1733511668955846400,5.575846435546875,-2.942962500631809,-0.6915496012538671,0.10747852407470344
1733511668965866200,5.5858662109375,-3.4017852960288524,-1.2383236518263816,0.45566783849745984
1733511668975885300,5.59588525390625,-3.9954514461576935,-1.3874994832932948,0.6886259688921272
1733511668985904000,5.605904052734375,-4.687604858523607,-1.1944938624501227,0.7611676196202636
1733511668995923200,5.615923095703125,-5.184234529745578,-0.9538906241297721,0.9471814818799495
1733511669005943300,5.625943359375,-5.039802677935362,-0.8226853336393832,1.3436699861779808
1733511669015962400,5.63596240234375,-4.411487239229679,-0.88304306396842,1.570303151334822
1733511669025981400,5.6459814453125,-3.651419397544861,-1.101411089605093,1.6005059818968177
1733511669036000300,5.656000244140625,-2.8445336905837055,-1.5777385620325803,1.4232768991172313
1733511669046020400,5.666020263671875,-2.0482748838379976,-2.0603344472050664,0.9479526123829185
1733511669056039400,5.676039306640625,-1.2721513948872685,-2.153574456438422,0.22391455384790895
1733511669066058500,5.68605859375,-0.6708475894868373,-1.7775047630518674,-0.492081798659265
1733511669076077300,5.696077392578125,-0.2753659241437912,-1.0324696553260087,-1.1778364498987792
1733511669086096400,5.706096435546875,-0.005789250925928354,0.471572386854887,-1.8652824152261018
1733511669096116200,5.7161162109375,0.2830569170378148,3.0857763958513735,-2.3583688608832656
1733511669106135300,5.72613525390625,0.42459421645030376,5.684000160905718,-2.588880182647705
1733511669116154400,5.736154296875,0.19779855420812964,7.261085227465629,-2.881263292565942
1733511669126173200,5.746173095703125,-0.12266104176789522,7.5535291276603935,-3.401085915587842
1733511669136193300,5.756193359375,-0.33079861916080117,6.040822132986784,-3.9941277963384985
1733511669146212400,5.76621240234375,-0.3236664291933179,3.5545512609422203,-3.680768241626024
1733511669156231400,5.7762314453125,-0.1718446132622659,1.183235970854759,-2.6463974288538097
1733511669166250200,5.786250244140625,0.4092494208674878,-0.3884814311921596,-1.9429530994057653
1733511669176270300,5.796270263671875,1.4905403171814977,-0.8724936129033565,-1.3930718765981494
1733511669186289400,5.806289306640625,2.7686545659959316,-0.7821925797313452,-0.731382429948449
1733511669196308500,5.81630859375,3.9510698681175707,-0.4978220958769321,0.10463161021098494
1733511669206327600,5.82632763671875,4.854111764019727,-0.31821547031104563,0.8591242821119726
1733511669216346400,5.836346435546875,4.950783501267433,-0.1238882454752922,1.2387526908934117
1733511669226366200,5.8463662109375,3.8725942972958087,-0.028469138637185094,0.8820847403302788
1733511669236385300,5.85638525390625,2.344822566089779,-0.3025304099231958,0.24297698171436785
1733511669246404400,5.866404296875,1.188834448448941,-0.6340437532246113,-0.11295300996303557
1733511669256423200,5.876423095703125,0.3425893755238503,-0.9511322653323412,-0.3949148252405226
1733511669266443300,5.886443359375,-0.356120107422024,-1.2887182065457106,-0.6486652760341763
1733511669276462300,5.89646240234375,-0.9200048672713339,-1.5797937409967182,-0.7841020666144788
1733511669286481400,5.9064814453125,-1.4473418114461003,-1.6623703173965214,-0.5368517914950848
1733511669296500200,5.916500244140625,-1.6792178456924856,-1.3484259485334158,0.22819763799458742
1733511669306519300,5.926519287109375,-1.547371919211,-0.8570160577863455,1.083346440604329
1733511669316539400,5.936539306640625,-1.2044237203121184,-0.4975269123226404,1.6688152557522058
1733511669326558500,5.946558349609375,-0.878439223434776,-0.2180260803312063,1.9182837914429605
1733511669336577500,5.95657763671875,-0.601881166896969,-0.12130173611342907,1.9329738494440911
1733511669346596400,5.966596435546875,-0.3774618783973157,-0.3696569037348032,1.7124242419846354
1733511669356616200,5.9766162109375,-0.035363647391274566,-0.5801145946383476,1.0682948558144272
1733511669366635300,5.98663525390625,0.1645814173262566,-0.6830477303683757,0.7198110884897411
1733511669376654300,5.996654296875,0.11456621731333434,-0.5438099400699138,0.5088084770545364
1733511669386673200,6.006673095703125,-0.15005034927912056,-0.1792179185092449,0.32848785800039765
1733511669396693200,6.016693359375,-0.5563419432543217,0.23281156153082846,0.1771628856755793
1733511669406712300,6.02671240234375,-1.0163187309920787,0.5398562340080738,-0.053514878696948286
1733511669416731400,6.0367314453125,-1.5094225661754608,0.7299982821136712,-0.42037016901448365
1733511669426750500,6.04675048828125,-2.0392799687385557,0.7698673511654138,-0.8246781148917972
1733511669436769300,6.056769287109375,-2.466199559396505,0.839838128492236,-1.2178401051156222
1733511669446789400,6.066789306640625,-2.547160517293215,1.0436007056713104,-1.3690743304170667
1733511669456808400,6.076808349609375,-2.348928101712465,1.2423130137234926,-1.2539165038861333
1733511669466827500,6.08682763671875,-2.015201174014807,1.3736311169385909,-1.0248886986777186
1733511669476846300,6.096846435546875,-1.6352151839673519,1.451276666676998,-0.844056915231049
1733511669486866200,6.1068662109375,-1.3473498437345026,1.2736316965728998,-0.873336639598757
1733511669496885200,6.11688525390625,-1.2242857741236686,0.8886959751635789,-0.9881168649889528
1733511669506904000,6.126904052734375,-1.1735457669675349,0.6177396841555833,-0.935906639149785
1733511669516923100,6.136923095703125,-1.2154209151446818,0.6668319241046905,-0.8380049217157065
1733511669526943200,6.146943115234375,-1.3432038299709557,0.9165005124121904,-0.8232944054484367
1733511669536962300,6.15696240234375,-1.4829022235184908,1.0781886194497345,-0.9371538627319037
1733511669546981000,6.166981201171875,-1.4740239205360413,0.9922779301911592,-1.0538163947373629
1733511669557000200,6.177000244140625,-1.2336392934024334,0.8970283347010612,-1.0105902703426777
1733511669567019300,6.187019287109375,-0.9392676400154828,1.0161392827719449,-1.0990750478729605
1733511669577039400,6.197039306640625,-0.7624919270265847,1.2410182977378368,-1.222473025613278
1733511669587058400,6.207058349609375,-0.6390367392063141,1.313956692698598,-1.30486547761783
1733511669597077200,6.2170771484375,-0.48168578459024425,1.193971299880743,-1.3041050146393478
1733511669607096300,6.227096435546875,0.0013378244750201702,0.9103507576107979,-1.2429876981146633
1733511669617116200,6.2371162109375,0.7100323295362293,0.5307224949598313,-1.1801279218368232
1733511669627135200,6.24713525390625,1.300583562514931,0.16373510269522665,-1.2401406381204723
1733511669637154000,6.257154052734375,1.5122342625953256,-0.22696517359018326,-1.428279237449169
1733511669647173000,6.267173095703125,1.5165088711746035,-0.49378421866297717,-1.554777373161912
1733511669657193200,6.277193115234375,1.6392806798405943,-0.5182219098269939,-1.3962380855441092
1733511669667212300,6.28721240234375,1.9423843596071004,-0.5220382532447576,-1.0348949827767908
1733511669677231400,6.2972314453125,2.136631212683022,-0.5538596249192953,-0.6675421182006597
1733511669687250200,6.307250244140625,2.0346645838975905,-0.7845750909537077,-0.442465242575109
1733511669697269200,6.317269287109375,2.189714860355854,-1.1589636993855237,-0.4664019984796643
1733511669707289300,6.327289306640625,2.6986791124939917,-1.5883178237140179,-0.5291201743297279
1733511669717308200,6.33730810546875,3.390812066593766,-2.078441181781888,-0.6206603939078748
1733511669727327200,6.3473271484375,4.109368040455878,-2.5766315264493227,-0.6545299302838742
1733511669737346000,6.357345947265625,4.208728286135196,-2.883226117071509,-0.6467350386239588
1733511669747366100,6.3673662109375,3.1840959003061053,-2.816888143289089,-0.4092069699652493
1733511669757385200,6.37738525390625,1.3769044395208359,-2.5076281328499315,-0.1682151707187295
1733511669767404000,6.387404052734375,-2.3496192988470197,-1.8702736476421356,0.45890345941781996
1733511669777423000,6.397423095703125,-12.459435960847138,0.10174655629396438,2.129618119050562
1733511669787443200,6.407443115234375,-21.055677905428407,3.158980748271942,4.756336157183349
1733511669797462300,6.417462158203125,-4.338294577246904,3.1586791349768637,2.946310057494044
1733511669807481300,6.4274814453125,11.469871965789794,1.889271193578839,1.9776983957029879
1733511669817500200,6.437500244140625,19.004995083665847,-1.4632488440215587,0.5637304460704327
1733511669827519200,6.447519287109375,21.1256334851861,-5.593742382353544,-1.3130245264150202
1733511669837539000,6.4575390625,19.355771345841884,-9.130721746248007,-2.037676771325618
1733511669847558100,6.46755810546875,16.50852547369003,-10.372169083052873,-2.1456318268708885
1733511669857577000,6.477576904296875,13.403138368439674,-7.281754506006837,0.6471744529545307
1733511669867596000,6.487595947265625,10.799445232063531,-2.529347797226906,4.127466299465298
1733511669877616000,6.4976162109375,9.234749691477417,2.222245841604471,6.640925622686743
1733511669887635200,6.50763525390625,6.997527230015397,8.133491162085532,8.839151121756434
1733511669897654300,6.517654296875,0.8605350256927311,13.750360737526416,7.447628958818316
1733511669907673000,6.527673095703125,-16.409245599770546,16.833222707235812,-0.35965354224517937
1733511669917693200,6.537693115234375,-19.69903533269167,10.155476297152042,-2.6115157928258177
1733511669927712300,6.547712158203125,-4.241786506128311,2.711873525109887,-1.0362298846423625
1733511669937731300,6.5577314453125,3.268760388895869,-0.035603812822699546,-0.11858502450063824
1733511669947750100,6.567750244140625,4.252193333852291,-1.2952601755350828,0.5430801644906401
1733511669957769200,6.577769287109375,4.204865765488147,-2.0986258916765452,0.6295880889900028
1733511669967789000,6.5877890625,4.515923765259981,-2.4136317522913218,-0.19273615625202656
1733511669977808100,6.59780810546875,5.219727283409237,-1.9030705863505601,-1.2762410022884607
1733511669987827200,6.6078271484375,5.177721202328801,-0.8714403044581412,-2.150728711618483
1733511669997846000,6.617845947265625,4.634786291527748,0.6410638611197471,-3.533507888391614
1733511670007866000,6.6278662109375,3.1631665095239874,2.4289970792055127,-5.873274778527021
1733511670017885200,6.63788525390625,1.159942189028859,3.9875791053473946,-8.504094406759739
1733511670027904300,6.647904296875,0.16468727058721705,4.127113832765818,-8.904242310348153
1733511670037923000,6.657923095703125,0.006460134783171816,2.869156675186753,-6.171269883108138
1733511670047943200,6.667943115234375,-0.9249544525027275,1.951473090469837,-3.703843996787071
1733511670057962200,6.677962158203125,-2.3899907644629477,1.2532178540974854,-1.7388136517383157
1733511670067981300,6.687981201171875,-3.6288007385015484,0.6932914764851331,-0.36987127713784573
1733511670078000400,6.69800048828125,-4.657670323508977,0.2703723536401987,0.8420346156232058
1733511670088019200,6.708019287109375,-5.256541056543588,-0.007021276938915252,2.015590903984755
1733511670098039000,6.7180390625,-5.017285725700855,-0.1998620626091957,3.041397740420699
1733511670108058000,6.72805810546875,-3.859792098867893,-0.23636779270768163,2.7912413685962556
1733511670118077200,6.7380771484375,-2.5847885294198987,-0.19357728325128554,1.6801884442903101
1733511670128096000,6.748095947265625,-1.788917552947998,-0.23106851725578306,1.019433794272691
1733511670138116000,6.7581162109375,-1.5602105041265486,-0.281651288023591,0.9852499312505125
1733511670148135200,6.76813525390625,-1.6336206082522868,0.0348562093257904,1.1231105879768728
1733511670158154200,6.778154296875,-1.7440274408638476,0.5804015948861837,1.2513643351852892
1733511670168173300,6.78817333984375,-1.9131964051760733,0.8291811253994703,1.3204032384894788
1733511670178193200,6.798193115234375,-2.1332757647752763,0.5798059670805931,1.099501456591487
1733511670188212200,6.808212158203125,-2.4189620074033735,0.1446674141317606,0.7530703840129077
1733511670198231300,6.818231201171875,-2.753075888592005,-0.259493232229352,0.5502471335105598
1733511670208250400,6.82825048828125,-3.0523721388995644,-0.6147323190331458,0.42962271213680503
1733511670218269200,6.838269287109375,-3.2445851480603216,-0.7786760960429906,0.20299027763232588
1733511670228289000,6.8482890625,-3.1954853093266484,-0.7065244675457477,-0.040393823578208685
1733511670238308000,6.85830810546875,-2.900694553744793,-0.241964005279541,-0.23889745731577275
1733511670248327200,6.8683271484375,-2.414512626779079,0.6507891363203525,-0.43657340805754064
1733511670258346000,6.878345947265625,-1.9426655146360396,1.5660925479024648,-0.7493786898881196
1733511670268366000,6.888365966796875,-1.555841787523031,2.4032220019578934,-1.1347856820710003
1733511670278385200,6.89838525390625,-1.2324014221705495,3.1113901450574395,-1.5130188371017574
1733511670288404200,6.908404296875,-0.9013375762023031,3.72008961366713,-1.767854014392197
1733511670298423300,6.91842333984375,-0.6567652881205082,3.98447354054749,-1.9547629257954655
1733511670308443400,6.928443359375,-0.4653440138593316,3.3627357266664504,-2.040744196072221
1733511670318462200,6.938462158203125,-0.33610140174403785,2.234915353563428,-1.9447770999625325
1733511670328481300,6.948481201171875,-0.13196516894698143,0.9365355847030877,-2.0038037278182803
1733511670338500400,6.958500244140625,0.07787468231916427,-0.36791853563487525,-2.1771863643027842
1733511670348520200,6.968520263671875,0.2623030289530754,-1.4450918405622244,-2.1796911867305635
1733511670358539000,6.9785390625,0.4984473881684243,-2.2062977463662623,-1.9162625147484242
1733511670368558000,6.98855810546875,0.9807260240852832,-2.487871292978525,-1.3051437100373209
1733511670378577200,6.9985771484375,1.7599721751011908,-2.32767663936913,-0.24624796620905398
1733511670388596200,7.00859619140625,2.781007851612568,-1.8179653682559727,0.8160647464558481
1733511670398616300,7.0186162109375,4.011468514978885,-1.106860587182641,1.601973862492293
1733511670408635100,7.02863525390625,5.282773229908943,-0.46081601504087444,2.177523195041716
1733511670418654200,7.038654296875,6.223056184446811,-0.10194120208323001,2.6010551890879867
1733511670428673300,7.04867333984375,6.582925269138813,-0.08149930255711078,2.8495839597105976
1733511670438693400,7.058693359375,6.2396741417706005,-0.4352274002760648,2.7610993283107876
1733511670448712200,7.068712158203125,4.983216282838582,-1.124473400762677,2.4621745416641234
1733511670458731300,7.078731201171875,3.3039784172713755,-1.5851362710684538,2.2492656582161783
1733511670468750300,7.088750244140625,1.864014441116899,-1.6115484771758317,2.0735928649678823
1733511670478769400,7.098769287109375,0.9471825047932565,-1.4805863477915524,1.7835756073981524
1733511670488788700,7.108788818359375,0.34115254765376446,-1.2458429414153098,1.453836726423353
1733511670498807800,7.118807861328125,-0.27403555232286453,-0.8792319812476634,1.0906276836536823
1733511670508827000,7.128826904296875,-1.2023742404364048,-0.5395949527233839,0.936676016087085
1733511670518846000,7.138845947265625,-2.0976514936864374,-0.4555564870774746,1.135766363671422
1733511670528866000,7.148865966796875,-2.4362908894754947,-0.44895781946480273,1.5703296009503305
1733511670538884900,7.158884765625,-2.1840531813323496,-0.2970540243387222,2.116286197660118
1733511670548904000,7.168904052734375,-1.5099651486195622,-0.05537351217567921,2.5188056526854634
1733511670558923000,7.178923095703125,-0.724864426356554,0.21808219443261623,2.5608646329969167
1733511670568943000,7.188943115234375,-0.020952771657705305,0.4035205948919058,2.400362667004019
1733511670578962000,7.1989619140625,0.6305281463190913,0.31345687760710716,2.131129838787764
1733511670588981000,7.20898095703125,1.1599391933541745,0.06811258223950863,1.8828307852678
1733511670599000000,7.219,1.5363738475956021,-0.13752689472734927,1.8424065665513276
1733511670609020000,7.22902001953125,1.8201674083448944,-0.15663082364797593,1.7599024708658455
1733511670619039000,7.2390390625,1.9205448682427406,0.04905073889493942,1.7535986945465205
1733511670629057800,7.249057861328125,1.8613386460363863,0.32828093725144863,1.7617257407702505
1733511670639076900,7.259076904296875,1.6869769353866577,0.5303472319066524,1.8612176500052213
1733511670649096000,7.269095947265625,1.569108096331358,0.6542728867828845,2.0535291511043905
1733511670659116000,7.279115966796875,1.5518915885925293,0.6499374879270792,2.137836350689083
1733511670669134800,7.289134765625,1.68339147811532,0.5775426983237266,2.1454519402593375
1733511670679154000,7.29915380859375,1.940141549116373,0.4667956739723682,2.0677181277155876
1733511670689173000,7.309173095703125,2.2819161741912364,0.30847265945374963,1.9640446950122712
1733511670699193000,7.319193115234375,2.693219678044319,0.11416647740602492,1.8099036423534154
1733511670709212200,7.329212158203125,3.168198658472299,0.011277180817723274,1.6411723388060926
1733511670719231000,7.33923095703125,3.593331365713477,-0.1368377434194088,1.5061176794111728
1733511670729250000,7.34925,3.7191029407173395,-0.3818295720875263,1.4943573912516235
1733511670739270000,7.359269775390625,3.6687475489646193,-0.7803624416947365,1.5395347958445549
1733511670749289000,7.3692890625,3.5744542312860488,-1.1516033997505903,1.553878086234629
1733511670759307800,7.379307861328125,3.4391765767902136,-1.427044727218151,1.5492665007859467
1733511670769326800,7.389326904296875,3.261669553852081,-1.6277239514291286,1.4563640529438853
1733511670779347000,7.399346923828125,3.0212147840917107,-1.7395383127510546,1.3786457302302122
1733511670789366000,7.409365966796875,2.675097745898366,-1.6852432434618472,1.3268909930735826
1733511670799384800,7.419384765625,2.3193881189733743,-1.4987404286414383,1.335526281080395
1733511670809404000,7.42940380859375,1.9985598358154295,-1.1957657820820808,1.3609523987598717
1733511670819423000,7.439423095703125,1.6903192315518856,-0.8882365409582853,1.3509595586642622
1733511670829443000,7.449443115234375,1.4273562773853539,-0.676122315019369,1.1811331533566116
1733511670839462100,7.459462158203125,1.2162432643782346,-0.5781693057894707,0.9050877225160598
1733511670849481000,7.46948095703125,1.072327545396611,-0.4899480015009641,0.5664191006325185
1733511670859500000,7.4795,0.9205768950056284,-0.42042730602920053,0.1669851905323565
1733511670869520000,7.489519775390625,0.758007402023673,-0.373144745850563,-0.2805116164691746
1733511670879539000,7.4995390625,0.587640898489952,-0.3049363020211458,-0.7026863506875932
1733511670889557800,7.509557861328125,0.3586866699744016,-0.15131635062694548,-1.2175817464403806
1733511670899576800,7.519576904296875,-0.21620112992636858,0.16987901227772234,-1.8962907169520853
1733511670909597000,7.529596923828125,-1.3885311644285916,0.6574491787314415,-2.289934645473957
1733511670919616000,7.539615966796875,-2.7611645025014875,0.9415104505062103,-1.8684892484433948
1733511670929635000,7.549635009765625,-3.6346944727152586,0.7710808186084032,-1.0147007744014263
1733511670939654000,7.55965380859375,-3.8117163424849507,0.2940250319063663,-0.43017888471484184
1733511670949673000,7.5696728515625,-2.9784786351710557,-0.25182722764611243,-0.13350129247307777
1733511670959693000,7.579693115234375,-1.5667692781202494,-0.8459791154652834,0.05091507146209478
1733511670969712000,7.589712158203125,-0.34165172934755683,-1.3264701373130083,0.22485081178471444
1733511670979731000,7.59973095703125,0.5843414185531437,-1.6615660152763128,0.38105683414936065
1733511670989750000,7.60975,0.9811160463161765,-1.9193360769748686,0.3929556539967656
1733511670999769900,7.619769775390625,0.9156336664497852,-1.997244077041745,0.3757672033086419
1733511671009789000,7.629788818359375,0.4793722469508648,-1.95512342967093,0.36468627571538087
1733511671019808000,7.63980810546875,-0.059765609654784196,-1.8434382476866245,0.554525979873538
1733511671029826800,7.649826904296875,-0.2565856742195785,-1.7558073105067014,0.7963109753243625
1733511671039847000,7.659846923828125,-0.02396525134667754,-1.7726725205898284,1.031122624631226
1733511671049866000,7.669865966796875,0.33926892586424945,-1.970712628468871,1.045896269262582
1733511671059885000,7.679885009765625,0.3617617665708065,-2.3025112184524534,0.969338660891354
1733511671069904000,7.68990380859375,0.09294175693914293,-2.6708962025552987,0.9039157561272382
1733511671079924000,7.699924072265625,-0.07384250419363379,-3.00198810557425,0.6988324517384171
1733511671089943000,7.709943115234375,-0.3082218995630741,-3.1726877865850924,0.49718248279914257
1733511671099962000,7.719962158203125,-0.022096680995821953,-3.2939579585164784,0.3461671609453857
1733511671109981200,7.729981201171875,0.6117945120155811,-3.2598686419099567,0.1700562685407698
1733511671120000000,7.74,0.18173939981088041,-3.0104116505265233,0.1846665393039584
1733511671130019800,7.750019775390625,-2.9050223538160322,-2.256916757491231,0.33716040927767754
1733511671140039000,7.760038818359375,-6.930036579066514,-0.3221533942818641,-0.3765808577790856
1733511671150058000,7.77005810546875,-3.8231823238730427,2.1169261029988524,-2.237549793720245
1733511671160076800,7.780076904296875,1.8157267955489456,4.050422222751378,-2.1285417219907043
1733511671170097000,7.790096923828125,3.4080443564236163,5.20353485802114,-0.1862739014353603
1733511671180116000,7.800115966796875,4.215760668990016,4.6180397393882275,1.0487985665753483
1733511671190135000,7.810135009765625,4.177126694691181,2.839817183455825,1.4907109975732862
1733511671200154000,7.820154052734375,3.3599995797008275,0.760364778804779,1.3624132650926708
1733511671210174000,7.830174072265625,3.117598352047801,-1.0343202516287564,1.6903829444378613
1733511671220193000,7.840193115234375,3.740239252248406,-1.950492262738943,2.8170775283813474
1733511671230212000,7.850212158203125,4.8022050511717795,-1.8305360960155725,3.9259836499169465
1733511671240231000,7.86023095703125,5.4358741258651015,-1.2285422625243663,4.43944082956016
1733511671250250000,7.87025,5.533388159155845,-0.5510545043706894,4.4702799121990795
1733511671260269800,7.880269775390625,5.334240382295847,0.1787210749030113,4.107280712787807
1733511671270289000,7.890288818359375,4.890856563571095,0.9602315175890922,3.726408587555587
1733511671280308000,7.900307861328125,4.00728158468306,1.6332874307751655,3.189385823407769
1733511671290326800,7.910326904296875,2.935310524573922,2.1892010656148195,2.022047094386816
1733511671300347000,7.920346923828125,1.8447230268001555,2.74312498794198,0.31408743059560656
1733511671310366000,7.930365966796875,1.028662006671354,3.121827952441573,-1.7413509151309727
1733511671320385000,7.940385009765625,0.8164800492584705,3.017023762142658,-2.968789600327611
1733511671330404000,7.950404052734375,0.8618488847702741,2.6399761636346577,-3.0612454734459518
1733511671340424000,7.960423828125,0.8122644773900508,1.94723413772583,-2.8838743518471714
1733511671350443000,7.970443115234375,0.41121582556962966,1.091240993246436,-2.7632138362467287
1733511671360461800,7.9804619140625,-0.07003391482406296,0.45141924114227294,-2.5739178835764527
1733511671370481000,7.99048095703125,-0.38326515784859655,0.27783669817149637,-1.986256380689889
1733511671380501000,8.0005009765625,-0.4771148234128952,0.5194698640614748,-1.4165022904157638
1733511671390519800,8.010519775390625,-0.5146142407238483,0.9017951107114552,-0.8707154973149299
1733511671400539000,8.020538818359375,-0.7437246096491813,1.006383027911186,-0.4701516333367675
1733511671410558000,8.030557861328125,-1.1482944213330746,0.6426584368348122,-0.3666922452429309
1733511671420577000,8.040576904296875,-1.4497487264573574,0.017869418689608573,-0.16547697792649269
1733511671430597000,8.05059716796875,-1.6100982783675193,-0.7350684249848127,0.2114345000464469
1733511671440616000,8.060615966796876,-1.7100900999486446,-1.4982348172068596,0.5128995822930709
1733511671450635000,8.070635009765626,-1.8789082049965857,-1.882926792988181,0.7437242443230002
1733511671460654000,8.080654052734374,-2.0519792913138866,-1.7990765433907507,0.6939898340128362
1733511671470674000,8.090673828125,-2.290735294332355,-1.4488082307368515,0.493200171697326
1733511671480692700,8.100692626953125,-2.763198638677597,-0.8297703234642744,0.20451376087255774
1733511671490712000,8.110712158203125,-3.448856843805313,-0.2013561005592346,-0.08550685769803822
1733511671500731000,8.12073095703125,-4.064187713253498,0.24095979667305945,-0.4290053839560598
1733511671510751000,8.1307509765625,-4.560944810247421,0.441570047301054,-1.0121688447710127
1733511671520770000,8.14077001953125,-4.977990657144785,0.45353813299238677,-1.4474743517845867
1733511671530789000,8.1507890625,-5.324063856196403,0.05470072748064995,-1.6349083099752664
1733511671540808000,8.160807861328125,-5.063609085458517,-0.8532926533490419,-1.3816408203929662
1733511671550828000,8.170828125,-4.000983361321688,-1.6659925995469091,-0.9066353172842413
1733511671560847000,8.18084716796875,-2.747208457863331,-1.7249585832566021,-0.7002063704401255
1733511671570866200,8.1908662109375,-1.970539025467634,-0.9878817410588264,-0.9792947491731494
1733511671580885200,8.20088525390625,-2.071657805252075,-0.19632102900147436,-1.4270923657521604
1733511671590904000,8.210904052734374,-2.644893746292591,0.3519090655982494,-1.4891162757277487
1733511671600924000,8.220923828125,-3.524174827378988,0.5567021548688411,-1.0572496571216732
1733511671610943000,8.23094287109375,-4.010379258437455,0.5110580095469951,-0.28360914409309623
1733511671620962000,8.240962158203125,-3.2660078753173347,1.231267303574085,0.6885187821906059
1733511671630980900,8.25098095703125,-1.5800351485371589,4.050550817567109,1.3943021490454672
1733511671641001000,8.2610009765625,0.37701530367359515,7.2897443357169625,2.3688816331997513
1733511671651020000,8.27102001953125,2.2030244237840173,8.643262054431437,3.6363778957575557
1733511671661039000,8.2810390625,3.8983541769742964,6.953643080103397,3.478717144539952
1733511671671058200,8.29105810546875,4.868266546100378,3.4247821407347914,1.9163772271692752
1733511671681078000,8.301078125,5.098052622330188,1.5175316383510826,1.5550846855454146
1733511671691097000,8.31109716796875,5.199216994822025,0.7271586747735739,2.0752228042572733
1733511671701116200,8.3211162109375,5.599014769798517,0.46123161010444164,2.6972078708976506
1733511671711135200,8.33113525390625,6.360185019767284,0.3684621409922838,3.180521548950672
1733511671721155000,8.341155029296875,6.570299596321583,0.29365619859397407,3.5159137795120476
1733511671731174000,8.351173828125,6.113424427860975,0.13614625402390956,3.486567273518443
1733511671741193000,8.36119287109375,5.068397488778829,-0.26774083609282967,2.925164393612742
1733511671751212000,8.3712119140625,3.825128781765699,-1.0160615413606167,2.294331565258652
1733511671761231000,8.381231201171875,2.5749533641040325,-1.685236229199171,1.6098464955635368
1733511671771251000,8.3912509765625,1.3618307890295982,-2.0855688417047262,0.9308417569756507
1733511671781270000,8.40127001953125,0.29946356969848276,-2.316906239029765,0.21259981749877332
1733511671791289000,8.4112890625,-0.6185270351409912,-2.465235682800412,-0.3617740415304899
1733511671801308200,8.42130810546875,-1.2848434109389781,-2.533578566664457,-0.5318200809381902
1733511671811328300,8.431328369140624,-1.6569349944747984,-2.396710428106785,-0.2906454724706709
1733511671821347000,8.44134716796875,-1.73078582810536,-2.113980697196722,-0.007396686122566461
1733511671831366100,8.4513662109375,-1.5577848844148219,-1.6719781036972998,-0.008042728941142559
1733511671841385200,8.46138525390625,-1.1946971299372613,-1.1234107399672268,-0.2629951028704643
1733511671851405000,8.471405029296875,-0.7773463087439536,-0.702277331495285,-0.6059240125469864
1733511671861423900,8.481423828125,-0.34934885972142216,-0.4513555282562971,-0.9251154882833361
1733511671871443000,8.49144287109375,0.15155710058026015,-0.2443780806839466,-1.1592051069259643
1733511671881462000,8.5014619140625,0.6785748958032578,-0.1365975049227476,-1.2825864257924258
1733511671891482000,8.511482177734376,1.0274538729906082,-0.025161329263448714,-1.3268230424039065
1733511671901501200,8.521501220703126,1.0765431172650306,0.022633856612443923,-1.271748513174802
1733511671911520000,8.53152001953125,0.84071425373964,0.08758709803819656,-1.1272956185765564
1733511671921539000,8.5415390625,0.5752068757873028,0.18211363995075225,-0.9555893908716737
1733511671931559200,8.55155908203125,0.370061977404356,0.32125147700607776,-0.7499278482034802
1733511671941578200,8.561578125,0.28656419450640674,0.42493163171112536,-0.5375815670743584
1733511671951597000,8.57159716796875,0.31196517774462695,0.504510195338726,-0.2876471674375236
1733511671961616100,8.5816162109375,0.38544315947480495,0.5818956328362226,-0.042687195212393995
1733511671971635200,8.59163525390625,0.38433249481916426,0.68568801574409,0.12897475495934485
1733511671981655000,8.601655029296875,0.22470654447581617,0.7629805142611265,0.17378186493515968
1733511671991674000,8.611674072265625,-0.06266776083707809,0.8672013517141341,0.06128171330615878
1733511672001693000,8.62169287109375,-0.3881201235990971,0.8921879089325666,-0.09221402718648314
1733511672011712000,8.6317119140625,-0.6925123088061809,0.8369283785253763,-0.02401230535879731
1733511672021732000,8.641732177734376,-0.9257727831482887,0.6880377937406301,0.31457156085073945
1733511672031751200,8.651751220703124,-1.0828467474538832,0.35651042191386223,0.8422726621627807
1733511672041770000,8.66177001953125,-1.0817641398489475,-0.05108370602726936,1.4697120486862956
1733511672051789000,8.6717890625,-0.8214017235696315,-0.20508768830299376,2.074603357184678
1733511672061809200,8.68180908203125,-0.49528410183191296,-0.04891571433842182,2.3551805862359703
1733511672071828200,8.691828125,-0.3385504023313522,0.3283592631846666,2.0747225996501744
1733511672081847300,8.701847412109375,-0.41022915261983867,0.6337018079191445,1.429279354402423
1733511672091866000,8.7118662109375,-0.6015197862386703,0.6686831049293279,0.8068532659962773
1733511672101886000,8.721885986328125,-0.8017115191936492,0.5042576818823814,0.5698392843395471
1733511672111905000,8.731905029296875,-0.9330582639813423,0.22382395295500754,0.7257071607910096
1733511672121924000,8.741924072265626,-1.0679811136901378,-0.14412263973057268,0.9236119518525898
1733511672131943000,8.75194287109375,-1.2311287718862294,-0.43355332958400244,0.8718653980024158
1733511672141962000,8.7619619140625,-1.3358780171275138,-0.49280923615098,0.7090478485435247
1733511672151982000,8.771982177734374,-1.327962421697378,-0.28372283360064027,0.3623623628124594
1733511672162001200,8.782001220703124,-1.3249609017938375,0.003937339448928833,-0.143229636413604
1733511672172020000,8.79202001953125,-1.3597948992878197,0.24903321301341055,-0.5173625165186823
1733511672182039000,8.8020390625,-1.1798995199084281,0.3440092522591352,-0.7099613101266324
1733511672192059100,8.81205908203125,-0.8079805164605378,0.21826339621841906,-0.8351895720340311
1733511672202078200,8.822078125,-0.36028581226672973,-0.10415654004514217,-0.9580246551945805
1733511672212097300,8.83209716796875,-0.0317285057593137,-0.5149696300327777,-1.0877509591735899
1733511672222116000,8.8421162109375,-0.05824526821970939,-0.8492962771892547,-1.0023032112516461
1733511672232136000,8.852135986328125,-0.24741627933606503,-1.0232458999067544,-0.6862870045505464
1733511672242155000,8.862155029296876,-0.5042864695854484,-1.0249977120101452,-0.3862555718362331
1733511672252174000,8.872174072265626,-0.6475223896093666,-0.8754401877492666,-0.22813684771806
1733511672262193000,8.88219287109375,-0.5548844379223883,-0.7364104872435331,-0.26900442628785964
1733511672272213000,8.892212890625,-0.28392449365258215,-0.6367506740957498,-0.4008117743246257
1733511672282232000,8.902232177734374,0.06298048004806041,-0.6992103451400995,-0.602821078095585
1733511672292251100,8.912251220703125,0.12293386735990643,-0.9074439302533864,-0.6439775566093623
1733511672302270200,8.922270263671875,-0.2159912135027349,-1.2613321869701146,-0.2741346287831664
1733511672312289000,8.9322890625,-0.4883977033190429,-1.7204934205412863,0.2346938681460917
1733511672322309000,8.94230908203125,-0.4237180181376636,-2.1798381939858196,0.5785976142041385
1733511672332328200,8.952328125,-0.11292422225996851,-2.64431740770936,0.7011084338463842
1733511672342347300,8.96234716796875,-0.017519143947213888,-2.9068162514954805,0.6350551222242414
1733511672352366000,8.972365966796875,-1.2371715591818093,-2.706783508494496,0.8176885482653975
1733511672362386000,8.982385986328126,-4.947459909802675,-1.578878379717469,1.6483227950826287
1733511672372405000,8.992405029296876,-8.617885621112585,-0.061385904332995414,1.9890126936607062
1733511672382424000,9.002424072265624,-9.082180710440873,0.28885201318264003,1.6217231035791337
1733511672392443100,9.012443115234374,-4.37213371848464,-0.5615466722905635,0.7335267485007644
1733511672402463000,9.022462890625,4.286894937138259,-1.659588577723503,-1.068863157221675
1733511672412482000,9.03248193359375,10.245022712564468,-3.184579884430766,-2.2712672082744536
1733511672422501000,9.042501220703125,13.49544606525898,-5.186593075570464,-3.0180095583096143
1733511672432520200,9.052520263671875,15.779757610154151,-6.5644561309903855,-4.430600812761485
1733511672442540300,9.062540283203125,14.18991652239561,-6.515880608391761,-4.2770235314652325
1733511672452559000,9.07255908203125,10.490960297650098,-4.855391282436251,-1.5293969943203032
1733511672462578200,9.082578125,8.135148281642794,-1.8704682934314012,1.177740003786981
1733511672472597200,9.09259716796875,3.596697627276182,4.172206189423799,2.737147667098045
1733511672482617000,9.1026171875,-7.365419462165236,13.18439975592494,4.922047236126661
1733511672492636200,9.11263623046875,-11.739627648836374,13.762479045343397,8.03135122255981
1733511672502655200,9.1226552734375,-5.754876947161555,7.466891293171048,7.6119819011509415
1733511672512674300,9.13267431640625,0.8254004378169775,0.9345756828069687,4.909574708044529
1733511672522694400,9.1426943359375,2.8345395353138447,-2.215192415961623,3.3636399820297953
1733511672532713500,9.15271337890625,2.5426415785640475,-2.7207576733112333,2.4793887113153934
1733511672542732300,9.162732177734375,1.7430571345269679,-2.6878005756050345,1.6497756242394446
1733511672552751400,9.17275146484375,1.3620990845769643,-2.312027234816551,0.9096867407441138
1733511672562770400,9.1827705078125,0.8780284506767988,-1.3476274916321038,0.4889284491948783
1733511672572790300,9.192790283203125,0.8071142550200223,-0.93852705078125,-0.4824243279978633
1733511672582809000,9.20280908203125,1.0903022510915994,-0.5126040699452161,-1.308676706469059
1733511672592828200,9.212828125,1.0139116698503494,0.32988661888241766,-1.236114743605256
1733511672602847200,9.22284716796875,0.6895861922264098,1.2584136691749095,-1.1012171744681893
1733511672612867300,9.232867431640624,0.6117769763588905,2.345684589746594,-1.2047585052244365
1733511672622886400,9.242886474609374,0.9519066837709397,3.3915538248717785,-1.6120952974036336
1733511672632905200,9.2529052734375,1.2699638217151163,4.127297957161069,-2.5893039610177278
1733511672642924300,9.26292431640625,1.4460942956030367,3.8652088632196184,-3.186224729028344
1733511672652944400,9.2729443359375,0.5096797069311142,2.5183938570141793,-3.7063387362122535
1733511672662963500,9.28296337890625,-0.6522399196505546,1.433473298960924,-4.0181420013934375
1733511672672982300,9.292982177734375,-1.8699835786543786,0.5307727638423443,-3.223638806143403
1733511672683001300,9.30300146484375,-2.9383529610097407,-0.0536526797324419,-2.1770281050011513
1733511672693021200,9.313021240234375,-3.3119910433351993,0.04735854802429676,-1.3575477048829196
1733511672703040300,9.323040283203126,-3.5588790610134597,0.6189934836089611,-0.15744374746605752
1733511672713059300,9.333059326171876,-3.72010890288949,1.3894874422401189,0.781478586243093
1733511672723078100,9.343078125,-3.8017607656598087,1.491060980054736,1.2753092743963002
1733511672733098200,9.35309814453125,-3.9361131220042704,0.7330845576912164,1.3815674628958106
1733511672743117300,9.363117431640624,-4.181931464624404,-0.6805424695491791,1.5202026111260056
1733511672753136400,9.373136474609375,-4.604036932998896,-1.7833271855950354,2.0681302156478165
1733511672763155200,9.3831552734375,-5.078058466571569,-1.8489263237088918,2.974365939155221
1733511672773174300,9.39317431640625,-5.521922177767753,-1.1625298674345015,3.5288644464999437
1733511672783194400,9.4031943359375,-6.012481589165329,-0.31396658069491384,3.058048430970311
1733511672793213400,9.41321337890625,-6.742165398502349,0.29055589449107644,2.0180093633033334
1733511672803232500,9.423232421875,-7.275591891723871,0.4459294115543365,1.0939357852883635
1733511672813251300,9.433251220703125,-6.917766295558214,0.2850140424549579,0.6969608126476406
1733511672823271200,9.443271240234376,-6.092300975811481,0.050909518504142756,0.5827139634817838
1733511672833290200,9.453290283203126,-5.192984237912297,-0.3204407451450825,0.5640368816711008
1733511672843309300,9.463309326171874,-4.243978170953691,-0.7136328382462263,0.49095527884736656
1733511672853328100,9.473328125,-3.3009351040527224,-0.5808282958656549,0.10871478787139058
1733511672863348200,9.48334814453125,-2.336884758827835,0.4973427879273891,-0.3572251460544765
1733511672873367300,9.4933671875,-1.1099801805078984,3.1612738276451826,-0.8732309872671962
1733511672883386400,9.503386474609375,0.2963878155149519,6.443413922595977,-1.4179348074369131
1733511672893405400,9.513405517578125,1.5928488912723957,8.291401504150032,-2.249405212817341
1733511672903425300,9.52342529296875,3.0035727444171902,8.333194819262623,-3.7682536328554153
1733511672913444400,9.5334443359375,4.374925395029783,6.523364242145418,-5.540444507408142
1733511672923463400,9.54346337890625,5.360221211248636,4.072454606339335,-5.727120340707898
1733511672933482500,9.553482421875,6.137340725499391,2.1810452316880227,-4.20626043471694
1733511672943502300,9.56350244140625,6.921661549431085,1.3725421526581048,-2.5914400962635873
1733511672953521200,9.573521240234374,7.8623945858240125,1.0042845943272114,-1.5788444774478674
1733511672963540200,9.583540283203124,8.29461462097764,0.3335311128646135,-0.5915557338461279
1733511672973559300,9.593559326171874,7.4930784583508965,-0.5903858132839203,0.3492249410808086
1733511672983578000,9.603578125,5.618583393621444,-1.330581079763174,0.9949994641095399
1733511672993598200,9.61359814453125,3.823749310106039,-1.8485516451776027,1.4604996914438904
1733511673003617300,9.6236171875,2.5717092676162716,-2.339161325457692,1.7781702412232756
1733511673013636400,9.63363623046875,1.4734955127477645,-2.985062105214596,2.1516076864100993
1733511673023655400,9.643655517578125,0.41326399027109145,-3.52409708596766,2.6900439706176518
1733511673033675500,9.653675537109375,-0.6322387496292591,-3.826486626115441,3.1970629339069125
1733511673043694300,9.6636943359375,-1.5554723696887491,-3.9123154823094604,3.469664361773431
1733511673053713400,9.67371337890625,-2.162386416186392,-3.8310347909390923,3.41385684209466
1733511673063732500,9.683732421875,-2.3148190574921665,-3.568405014249682,2.9843887359976766
1733511673073752300,9.69375244140625,-2.0016310599543155,-2.958845129418373,2.2858497142478824
1733511673083771100,9.703771240234374,-1.3544284038186072,-2.064983734315634,1.347716631220281
1733511673093790200,9.713790283203124,-0.6873007116377353,-1.1442103668898342,0.46306145588010544
1733511673103809300,9.723809326171875,-0.2736906844079494,-0.4896937344789505,-0.4825893093012273
1733511673113829400,9.733829345703125,-0.06549458176083862,0.07905249392688274,-1.6026121603958308
1733511673123848400,9.743848388671875,0.07357954240851104,0.43957273600399493,-2.6197470300763843
1733511673133867300,9.7538671875,0.25355507435202596,0.6353817238301038,-3.3486490413859484
1733511673143886300,9.76388623046875,0.3178244251668453,0.8619698808014392,-3.6453076366662978
1733511673153906400,9.773906494140626,0.2535468910455704,1.1831763496220111,-3.4562966384172435
1733511673163925500,9.783925537109376,0.13094576277136802,1.4621984581857919,-2.5634511423587796
1733511673173944300,9.7939443359375,-0.04457805046029389,1.6817127312481401,-1.4633300925642252
1733511673183963400,9.80396337890625,-0.34697796587161717,1.9108745380997656,-0.6046744508773088
1733511673193983200,9.813983154296874,-0.8284018846552819,2.156483621883392,-0.15024872139543294
1733511673204002300,9.824002197265624,-1.5425263788759707,2.252154657655954,-0.16180077363178133
1733511673214021000,9.834021240234375,-2.4372213021934033,2.2028175030350683,-0.42151714709252114
1733511673224040200,9.844040283203125,-3.270836026126146,2.112180369776487,-0.4221916853532195
1733511673234060300,9.854060302734375,-3.9317654481887816,1.8512211566478012,0.10206745881140232
1733511673244079400,9.864079345703125,-4.367677323597669,1.4386229368090628,0.9678101361498236
1733511673254098400,9.874098388671875,-4.262873717820644,1.1589636993855237,1.7581619108088313
1733511673264117200,9.8841171875,-3.352569721961021,1.153875436335802,2.1922882179751992
1733511673274136300,9.89413623046875,-1.9879227064669132,1.3241852412462234,2.09699449108243
1733511673284156400,9.904156494140626,-0.6486246517628431,1.25809568926692,1.6279314566999672
1733511673294175500,9.914175537109376,0.4898814390707761,0.9307622619986533,1.265017743615061
1733511673304194300,9.9241943359375,1.392587161821127,0.5524047499358654,1.08868327158764
1733511673314213400,9.93421337890625,1.8632102851271628,0.19250819271504876,0.8907245583817363
1733511673324233200,9.944233154296874,1.7876526475787162,-0.2337117252409458,0.4981814307086169
1733511673334252300,9.954252197265625,1.4686515798479318,-0.6209358498483896,0.03508607255890965
1733511673344271400,9.964271240234375,1.19248486071527,-0.7465700622081756,-0.3004186784662306
1733511673354290200,9.974290283203125,1.1336468872994183,-0.687946608325839,-0.3752076697297394
1733511673364310300,9.984310302734375,0.9995851113993673,-0.47278877690732474,-0.19148542553856968
1733511673374329300,9.994329345703125,1.0198527503371237,-0.26247137125730513,-0.05225041171908378
1733511673384348400,10.004348388671875,1.3081091357141732,-0.3252829244792461,-0.13006824928447602
1733511673394367200,10.0143671875,1.6516795581646262,-0.47984337159395213,-0.13938187494426965
1733511673404387300,10.02438720703125,1.912969026160985,-0.7537491600573063,-0.020624124225229024
1733511673414406400,10.034406494140624,2.1194619050867853,-1.163189208126068,0.02581701669320464
1733511673424425500,10.044425537109374,2.3036568813562392,-1.635302277728915,-0.09015753304809332
1733511673434444500,10.054444580078124,2.47808990367651,-2.105406345596909,-0.34874987091496584
1733511673444464000,10.064464111328125,2.6021581818938255,-2.563594350221753,-0.6900611162617802
1733511673454483200,10.074483154296875,2.684317994186282,-2.984525514119863,-1.0047053039573133
1733511673464502300,10.084502197265625,2.6098995898008344,-3.3876632471740242,-1.1648439895957707
1733511673474521300,10.094521240234375,2.3429807376153766,-3.6923528809577224,-1.22053431263566
1733511673484540200,10.1045400390625,1.9309417590945959,-3.884087166690826,-1.136811342679709
1733511673494559700,10.114559814453125,1.3769669833630322,-3.8119156644493337,-0.8252211357273161
1733511673504578800,10.124578857421875,0.19217165423706173,-3.544170152181387,-0.2997597761660814
1733511673514598000,10.134597900390625,-2.065157191186398,-2.860808533558249,0.39692543441057204
1733511673524616700,10.14461669921875,-5.8168052878081795,-1.5508786121577023,1.0171189414590596
1733511673534636800,10.15463671875,-11.245249555933475,0.6760223617762326,1.4329532206095754
1733511673544656000,10.16465576171875,-17.362857991480826,3.37006563116312,2.113237039222568
1733511673554675000,10.174675048828124,-14.719137965142727,2.4731354961395264,2.7104730106621977
1733511673564694000,10.184694091796874,-9.23849063157141,0.41542029152214527,2.4042402390897273
1733511673574713600,10.194713623046875,-7.929674224370718,0.2529682143747806,2.373430967067182
1733511673584732700,10.204732666015625,1.3962848472952842,-0.43772506231069563,1.2407022175259887
1733511673594751700,10.214751708984375,9.30996304563284,-1.0264327132493256,-2.2422053644411264
1733511673604770800,10.224770751953125,11.923144141322373,-1.1221382358133791,-4.536669323907792
1733511673614791000,10.234791015625,14.146838428169488,-0.8395710019886493,-5.16832325938642
1733511673624809700,10.244809814453125,14.368169979786872,-0.19963176098465918,-5.767417864304781
1733511673634828800,10.254828857421876,11.719092225807904,-0.5373258387476205,-5.638125129437446
1733511673644847900,10.264847900390626,8.987548954588174,-1.776739039376378,-5.064692789041995
1733511673654868000,10.274867919921874,5.251032522255182,-2.244019281995296,-3.8642040700912474
1733511673664886800,10.28488671875,-0.34349311943054195,-0.11331716710031031,-1.2769590874299406
1733511673674905900,10.29490576171875,-3.1348522691875695,2.1072171944111586,2.305616052599996
1733511673684925000,10.304925048828125,-2.4303742127776142,3.2563311154335737,4.810682664398849
1733511673694944800,10.31494482421875,1.2354701620914041,4.267449939695,5.371301992711425
1733511673704963800,10.3249638671875,4.828671910075843,3.597849719920754,3.723486270368099
1733511673714982700,10.334982666015625,4.967597273424268,1.907220107245445,1.4865332734972239
1733511673725001700,10.345001708984375,3.9697044259607788,1.0607833111405371,-0.11177812096476554
1733511673735021800,10.355021728515625,3.5957264441564676,0.81166943410635,-0.4125638791777193
1733511673745041000,10.365041015625,3.8737820457756516,0.44677755281627174,-0.45375981291905043
1733511673755059700,10.375059814453126,4.780826163056492,0.30222412045300007,-0.5776257004320621
1733511673765078800,10.385078857421876,5.5001656885117285,0.6062047291845083,-0.6126731214810163
1733511673775097900,10.395097900390626,5.4717783829391,1.0905500883728265,-0.7229872343078255
1733511673785118000,10.405117919921874,4.791616437140107,1.4736732074022292,-0.7877885000422596
1733511673795137000,10.415136962890625,3.5657799264430996,1.8185352770984171,-0.47433133017420764
1733511673805155800,10.42515576171875,1.958925744563341,2.0094027168691158,0.2331999763265252
1733511673815175000,10.4351748046875,0.09851999546289443,1.9496447059988975,1.2092444915320724
1733511673825194800,10.44519482421875,-1.5298890156209468,1.6574708549171686,2.365870907076448
1733511673835213800,10.4552138671875,-2.4125205761790274,1.2025292848676443,3.249448370182514
1733511673845232600,10.465232666015625,-2.5583903518378732,0.416498734408617,3.877270472413301
1733511673855251700,10.475251708984375,-1.8836463394343852,-0.12038929744362831,4.062988274335861
1733511673865271800,10.485271728515626,-0.5566039917239919,-0.3000987988620996,3.3951863361552355
1733511673875291000,10.495290771484376,-0.11260521030551754,-0.35473932058811186,2.9261843843102455
1733511673885310000,10.50531005859375,-0.46142216424047944,-0.20184885251224038,2.106016586449742
1733511673895328800,10.515328857421874,-0.3240203571975231,0.6337994230747223,0.6948327876430005
1733511673905348900,10.525348876953124,-0.16364627363430334,1.3076327503740788,-0.3454331475824117
1733511673915368000,10.535367919921875,-0.3662567033698782,1.4117343453615903,-1.0561728947356344
1733511673925387000,10.545386962890625,-0.5021241769850254,1.0303735598295927,-1.9925287389576434
1733511673935405800,10.55540576171875,-0.9216508078474551,0.2491355043441057,-2.346836097869277
1733511673945425700,10.56542578125,-1.7037772635400295,0.04228665158748626,-2.7773662802398205
1733511673955444700,10.57544482421875,-2.4515526098847387,-0.039402620583772655,-3.53467108695209
1733511673965463800,10.5854638671875,-3.2352386430442333,0.053881227791309355,-4.106396038907766
1733511673975483000,10.59548291015625,-4.152021479529142,0.5253355412244797,-4.049269253323972
1733511673985502700,10.605502685546876,-5.169219331443309,1.5500824933439492,-3.2522672269955275
1733511673995521800,10.615521728515626,-5.996038403886557,2.6403303838998076,-1.690969219893217
1733511674005540900,10.625540771484374,-6.117738199406862,3.0914959425419566,-0.033790041399002074
1733511674015560000,10.635559814453124,-5.463682754766941,2.6581846050202844,1.0833161915965377
1733511674025578800,10.645578857421874,-4.68136917900443,1.6412112095117568,1.6532433003500102
1733511674035598800,10.655598876953125,-3.9443163022041317,0.370561743620038,2.2403752264045176
1733511674045618000,10.665617919921875,-3.241027747839689,-0.8205980059713125,3.1325445767670868
1733511674055637000,10.675636962890625,-2.6564906605839727,-1.8867635946720838,3.8961265640527007
1733511674065656800,10.68565673828125,-1.9976222627043723,-2.668278713533282,4.072899427497386
1733511674075675600,10.695675537109375,-1.260105421654135,-2.9195202502459288,3.6829201589629053
1733511674085694700,10.70569482421875,-0.5802712465047836,-1.9240788875877857,2.8672295065164564
1733511674095713800,10.7157138671875,0.1591711557805538,0.4870908585041761,1.9969509393140672
1733511674105732900,10.72573291015625,0.8494410924874246,3.270966959029436,1.1502858874112367
1733511674115753000,10.7357529296875,1.3540157313644885,5.37479743361175,0.14374153145849705
1733511674125771800,10.745771728515624,1.726479947604984,6.192164202576875,-1.1046353123486041
1733511674135790800,10.755790771484374,2.0392016428053377,5.080899827477336,-2.619247848382592
1733511674145810000,10.765809814453124,2.526685884541273,2.9889754792660472,-3.4890845170363782
1733511674155830000,10.775830078125,3.0191829860031603,1.1885527819633483,-3.6949469891041513
1733511674165848800,10.785848876953125,3.038282823270559,0.1674707820922136,-4.217660365131497
1733511674175868000,10.795867919921875,2.372271421768516,-0.4715612809389829,-4.759450197550654
1733511674185887000,10.805886962890625,1.4237781266376375,-0.9774655609846115,-5.106390242564678
1733511674195906800,10.81590673828125,0.27564795595556496,-1.4114695569455622,-5.119331557202339
1733511674205926000,10.82592578125,-1.278378744969517,-1.6862182259738445,-4.487216141691803
1733511674215944700,10.83594482421875,-2.771462024632096,-1.3274118020772934,-3.0375229448139667
1733511674225963800,10.8459638671875,-3.2792522645547986,-0.5303828877419233,-1.445352391194552
1733511674235984000,10.85598388671875,-3.1606969045400617,-0.03415887471139431,0.12976853568553923
1733511674246003000,10.8660029296875,-3.13601692905277,0.1818634645819664,1.5613156888894735
1733511674256021800,10.876021728515624,-3.5825767474651333,0.18840426452755926,2.9379335665538906
1733511674266040800,10.886040771484375,-4.517942411606014,-0.05322247162163257,4.0088931115329265
1733511674276061000,10.89606103515625,-5.41855065062046,-0.3761398360133171,4.268244304943084
1733511674286080000,10.906080078125,-5.805790557318925,-0.32260756779015065,3.875547886404395
1733511674296098800,10.916098876953125,-5.366807603901624,0.04322247113287449,3.421481930145621
1733511674306118000,10.926117919921875,-4.19146969282031,0.28689912554919716,3.043266164641082
1733511674316137700,10.9361376953125,-2.872926256853342,0.17069208222627638,2.7034599170297384
1733511674326156800,10.94615673828125,-1.5815305016614496,0.16563187622725964,2.482747958615422
1733511674336175900,10.95617578125,-0.3160778737604618,0.4842810617804527,2.293748796934634
1733511674346194700,10.966194580078126,0.7797229747474194,0.9673100776731968,2.151352250344306
1733511674356213800,10.9762138671875,1.4803694901704787,1.484468157660961,1.843341070922464
1733511674366233900,10.98623388671875,1.5443874965727329,1.8003847033798694,1.3769288433097302
1733511674376253000,10.9962529296875,1.2187187145810574,1.7109966933995484,0.14654285261482
1733511674386271700,11.006271728515625,0.5650549726724624,1.3893196844577789,-1.4933113893300294
1733511674396290800,11.016290771484375,-0.13271920218467712,1.1476999625712632,-2.7685551972746847
1733511674406311000,11.026310791015625,-0.7227647506635636,1.0831459495961666,-3.540518643936515
1733511674416330000,11.036330078125,-1.0720833613771945,1.2214753928780555,-3.566638881359994
1733511674426348800,11.046348876953125,-1.1737597019791601,1.3957172765403985,-3.1160154667705298
1733511674436368000,11.056367919921875,-1.4194798449218273,1.526591143119335,-2.592068749555945
1733511674446387700,11.0663876953125,-1.8339222313225267,1.8081255267649887,-2.095438201551139
1733511674456406800,11.07640673828125,-2.035652425891161,2.2343436911553143,-1.6490617768816649
1733511674466425900,11.08642578125,-1.6149211684793232,2.5491420464992522,-1.4394238779284059
1733511674476444700,11.096444580078124,-0.6140197868496179,2.400984452164173,-1.4825455190353094
1733511674486464800,11.10646484375,0.49540513439569617,1.75898009532392,-1.644942797255516
1733511674496483800,11.11648388671875,1.399858614128828,0.8997872780203818,-1.6956939103275537
1733511674506503000,11.1265029296875,2.0661761589705945,0.14667173969149588,-1.5698621295690536
1733511674516521700,11.136521728515625,2.6570775205612183,-0.4999006557166576,-1.3023268990509211
1733511674526541800,11.146541748046875,3.22299115588963,-1.0425655174046755,-0.9880832549802958
1733511674536561000,11.156560791015625,3.5870641220122574,-1.372621647635102,-0.8011218827374279
1733511674546579700,11.166579833984375,3.5987446229338644,-1.6374702694177627,-0.7867121029824018
1733511674556598800,11.176598876953125,3.329436683654785,-1.9022586854457855,-0.7529530412435531
1733511674566618600,11.18661865234375,2.911992777350545,-2.013251208990812,-0.4912874334111809
1733511674576637700,11.1966376953125,2.475218732154369,-2.1416005255281925,-0.07052198146879672
1733511674586656800,11.20665673828125,2.124947496891022,-2.4017460841864344,0.2501968499653041
1733511674596675800,11.21667578125,1.8708552469223736,-2.703618906983733,0.5172366981819272
1733511674606696000,11.226696044921875,1.5447044535674155,-2.894280010527372,0.7974176213920116
1733511674616714800,11.23671484375,1.2052104867756366,-3.0612843441516158,1.0359010910794137
1733511674626733800,11.24673388671875,1.0920014562249183,-3.240720289325714,0.9377687797598541
1733511674636753000,11.2567529296875,1.3474289003200828,-3.5651802069842815,0.5185550873041153
1733511674646772700,11.266772705078125,1.5266626009203492,-3.9459763443708415,0.09464330016002058
1733511674656791800,11.276791748046875,1.5014023413270712,-4.280201869240403,-0.29179464250579473
1733511674666810600,11.286810546875,1.3047083873599767,-4.410846603238582,-0.4545546165585518
1733511674676829700,11.29682958984375,0.5756542542286217,-4.183310936284065,-0.12100509125441312
1733511674686849800,11.306849853515626,-0.9597368659399449,-3.392382092389464,0.8230994673982263
1733511674696868900,11.316868896484374,-3.5336423284262417,-2.132608240777254,2.1134683637604117
1733511674706887700,11.3268876953125,-8.292661148822306,-0.5313678071260451,3.635729660981893
1733511674716906800,11.33690673828125,-11.275906560003756,0.2984288198232651,4.503132672747969
1733511674726925800,11.34692578125,-11.455393358582258,0.43279637373685836,4.551448083105683
1733511674736946000,11.35694580078125,-17.447922293043135,2.3051930048823355,5.430305385822058
1733511674746964700,11.36696484375,-8.170470354914665,4.273293989548087,2.9560879396647213
1733511674756983800,11.37698388671875,8.576310917186737,6.351134867349266,-2.001937057163566
1733511674767003000,11.3870029296875,16.739370703583955,7.093115848201513,-3.47878641038388
1733511674777022700,11.397022705078125,19.98222917398214,4.5289434058308595,-4.410346252501011
1733511674787041800,11.407041748046876,15.35983474651575,1.0726350769758224,-4.7251226882740855
1733511674797060600,11.417060546875,9.855562791728973,-2.019697316390276,-4.019002125354111
1733511674807079700,11.42707958984375,8.065528801971674,-4.181104366150498,-2.549823014500737
1733511674817099800,11.437099853515624,7.999220054283738,-4.586251100939512,-0.2707084537267685
1733511674827118800,11.447118896484374,7.44081343358457,-3.3792432093530893,1.091912316636741
1733511674837137700,11.4571376953125,5.817572765049338,-0.26065993792116643,1.1586335906483232
1733511674847156700,11.46715673828125,4.636258117645979,2.6856436898320912,1.610356052520871
1733511674857176800,11.4771767578125,3.7509395099610088,4.388408561459183,2.0994835314191875
1733511674867196000,11.48719580078125,2.474126260742545,4.552287456539273,1.1528965813662857
1733511674877214700,11.497214599609375,0.6714999159157276,3.6716456084936855,-0.9520464575678109
1733511674887233800,11.50723388671875,-0.7989775641851127,3.005360212355852,-2.7795670051544903
1733511674897253600,11.517253662109376,-0.9418085566699504,2.2760674481630323,-3.4561665822967886
1733511674907272700,11.527272705078126,-0.056842927141115066,1.3874743488520382,-2.8931115512698886
1733511674917291800,11.537291748046876,0.9524627832837402,0.7365361594498157,-1.3705021712630987
1733511674927310600,11.547310546875,1.4465117903627454,0.6209259129762649,0.15524536063894628
1733511674937330700,11.55733056640625,1.268314300942421,0.682508216664195,0.6258291748479008
1733511674947349800,11.567349853515625,0.4962591574091464,0.475984942600131,0.4839341480389237
1733511674957368800,11.577368896484375,-0.4350508016001433,0.5388701455801725,0.5174960797704756
1733511674967387600,11.5873876953125,-1.0404839618902653,0.6534434502214193,0.3561830896556377
1733511674977407700,11.59740771484375,-1.410239138367772,0.6143307524949312,0.4195793108977377
1733511674987426800,11.6074267578125,-1.289750472202897,0.46435003438591954,0.39026466134712096
1733511674997446000,11.61744580078125,-1.086356728336215,0.42274084366858006,0.24106223413422703
1733511675007465000,11.62746484375,-1.0879454588323831,0.11812719773054123,0.4776726034261286
1733511675017484500,11.637484619140626,-1.1848387298762797,-0.28185119450986384,0.5239822269193828
1733511675027503600,11.647503662109376,-1.2553519435167313,-0.5664794525176287,0.24657529846727846
1733511675037522700,11.657522705078126,-1.4267840304553507,-0.6862339591890573,0.06449000782817602
1733511675047541800,11.667541748046874,-1.5642203242897987,-0.8181061891555785,-0.10764408989995718
1733511675057561900,11.677561767578124,-1.4168097489297389,-0.7909054630190133,-0.40418621919378633
1733511675067580700,11.68758056640625,-1.1179320162951945,-0.8108633784204721,-0.4303866822466254
1733511675077599700,11.697599853515625,-0.9074095165271312,-0.7837672817021608,-0.28368498580828305
1733511675087618800,11.707618896484375,-1.0050152466893196,-0.641498745405674,-0.1478242707274854
1733511675097639000,11.717638916015625,-1.280130995464325,-0.5052858558863401,0.05666925107464194
1733511675107657700,11.72765771484375,-1.5156687670886515,-0.28433424349725245,0.6442392762854695
1733511675117676800,11.7376767578125,-1.7069709450148045,0.08836334310770035,1.0202842736221849
1733511675127696000,11.74769580078125,-1.8770728062629698,0.6369459044069051,0.9200785170294344
1733511675137715000,11.75771484375,-2.205203521388769,1.0440350054353476,0.29140651997104283
1733511675147734800,11.76773486328125,-2.6044717195332048,1.052239939200878,-0.5110756913341582
1733511675157753600,11.777753662109374,-2.9022283391833303,0.7338830145925282,-0.9749472945533693
1733511675167772700,11.787772705078124,-3.1291642866790292,0.17254618566036223,-1.0188599399074911
1733511675177791700,11.797791748046874,-3.2510897076487537,-0.362393050211668,-0.8311214458122849
1733511675187811800,11.807811767578125,-3.2145944989442823,-0.5352578003019094,-0.4041898724555969
1733511675197830700,11.81783056640625,-2.9154619147658347,0.18962533075511454,-0.017307839284092186
1733511675207849700,11.827849609375,-2.2546106725059447,2.306240468108654,-0.05181669647693634
1733511675217868800,11.837868896484375,-1.433943546821177,4.890161567044258,-0.23212694026753306
1733511675227889000,11.847888916015625,-0.7130301961779594,6.2451078572571275,-0.27131182644739743
1733511675237908000,11.857907958984375,-0.12001242695525288,5.725670726421475,-0.35835239651873707
1733511675247926800,11.8679267578125,0.3065922525346279,3.804363641634583,-0.3173639680482447
1733511675257945900,11.87794580078125,0.7215174540162086,2.34906838696599,0.14694617271870375
1733511675267965700,11.887965576171876,1.1664742211461065,1.3458984758824108,0.15038096947297452
1733511675277984800,11.89798486328125,1.5894776612736283,0.5616635766685009,-0.15291487186476588
1733511675288003600,11.908003662109374,2.014754453160614,-0.14569208100438116,-0.4997169697128236
1733511675298022700,11.918022705078124,2.4548691870868207,-0.9723580087125301,-0.537654193919152
1733511675308042800,11.928042724609375,2.855959924483299,-1.7549200062781571,-0.11971563596576451
1733511675318061800,11.938061767578125,3.0169314076840874,-2.309405654141307,0.29038170696794985
1733511675328081000,11.948080810546875,2.681663680285215,-2.4115151985287664,0.5400155162230134
1733511675338099700,11.958099609375,1.7596727537631986,-2.012531662544608,0.8293038749963044
1733511675348119800,11.968119873046875,0.6309566008642316,-1.3194558746367693,1.0433265649050474
1733511675358139000,11.978138916015626,-0.2262871281981468,-0.6425736811608076,1.1485213619567454
1733511675368158000,11.988157958984376,-1.3923252960145474,-0.1960398739725351,1.2586600451514125
1733511675378176800,11.9981767578125,-3.2513755388528107,-0.18489947127699852,1.0346803171128034
1733511675388196600,12.008196533203124,-5.128489846169948,-0.6589502309441566,0.2939342848829925
1733511675398215700,12.018215576171874,-6.923526174259186,-1.2137889300286768,-0.5203596525080502
1733511675408234800,12.02823486328125,-8.287255490386485,-1.157780627080798,-0.8657805251307785
1733511675418253800,12.03825390625,-8.28178319645524,-0.2802612949699163,-0.48772433410212396
1733511675428273700,12.048273681640625,-6.804870568740368,0.7659417021542787,-0.07854600570946932
1733511675438292700,12.058292724609375,-5.111802915263175,1.3773024989277123,0.05499708007872104
1733511675448311800,12.068311767578125,-3.58925052614063,1.603668537580967,0.31000790619701146
1733511675458331000,12.078330810546875,-2.061045079692453,1.6610288396596908,0.5430727118365466
1733511675468351000,12.08835107421875,-0.6190178873978555,1.6151994008988142,0.7111433595180511
1733511675478369800,12.098369873046876,0.6090509123958647,1.4252894079834222,0.9501654661267995
1733511675488388900,12.108388916015626,1.7123874171055853,1.236709786888957,1.2402655796743929
1733511675498408000,12.118407958984376,2.659765152209997,1.1500649381369352,1.406042855721712
1733511675508427000,12.128427001953124,3.227853793489933,1.2172469615280628,1.3939637108713387
1733511675518446800,12.13844677734375,3.3169501270473,1.5040607468813656,1.0882461953446267
1733511675528466000,12.1484658203125,2.9859295356988906,1.8469541468530892,0.22969372177124023
1733511675538485000,12.158485107421875,2.1170050134539604,1.8787468769550322,-0.8961772708296776
1733511675548504800,12.1685048828125,0.9472773434698581,1.6896429397255182,-1.7328389612428843
1733511675558524000,12.17852392578125,-0.272455005133152,1.5918471668839453,-2.0761076242677867
1733511675568543000,12.18854296875,-1.3509481604874134,1.67110132086277,-1.8795145003266631
1733511675578562000,12.19856201171875,-2.021129395020008,1.7976894729465245,-1.243175475771725
1733511675588580900,12.208580810546875,-2.229789681112766,1.9057044419854878,-0.6071354341633618
1733511675598601000,12.21860107421875,-1.9855811117768287,1.9625129554003475,-0.27927316071540115
1733511675608620000,12.2286201171875,-1.3128548689365387,1.9929747291594742,-0.3120085784949362
1733511675618639000,12.23863916015625,-0.37526188413500783,1.860962798461318,-0.4468021027356386
1733511675628658200,12.248658203125,0.5784340942054986,1.373951434934139,-0.307892959869653
1733511675638677800,12.258677734375,1.3702192626684904,0.7649959457367658,0.029690058734267947
1733511675648696800,12.26869677734375,1.8637194036930798,0.1806552578359842,0.38230595742762086
1733511675658716000,12.2787158203125,2.096709244400263,-0.27541093232929703,0.5664578252077103
1733511675668735000,12.28873486328125,2.138342985036969,-0.6126771400690079,0.4379688079386949
1733511675678755000,12.298755126953125,2.2365496767669915,-1.2804425456315278,0.040624563594162465
1733511675688774000,12.30877392578125,2.442912937963754,-1.6575941890358923,-0.26010391147360207
1733511675698793000,12.31879296875,2.256374467308074,-1.5629969199746847,-0.5304354947119951
1733511675708812000,12.32881201171875,1.8767326145231722,-1.4720710329025983,-0.7133095976412296
1733511675718832000,12.33883203125,1.499422711817175,-1.4714473480463026,-0.735672236096859
1733511675728851000,12.348850830078124,1.2243565012723208,-1.5132254655897617,-0.5202328112579881
1733511675738870000,12.3588701171875,1.203900573220849,-1.7173153750270604,-0.14675664149597287
1733511675748889000,12.36888916015625,1.4550178990319371,-2.0936217997789384,0.14445990886092186
1733511675758909000,12.378908935546875,1.9286651924647389,-2.5220927115321157,0.26220497540608045
1733511675768928000,12.388927978515625,2.401263853627443,-2.8955180278897283,0.18171528828293085
1733511675778946800,12.39894677734375,2.7055817314893007,-3.064230918997526,0.06485840274915099
1733511675788966000,12.4089658203125,2.766037076973915,-3.055691054189205,-0.021307722575217482
1733511675798986000,12.418986083984375,2.62481804973036,-2.9286230096340176,-0.030114275495707988
1733511675809005000,12.429005126953125,2.3330513181447983,-2.8032728749126195,-0.007680033108592033
1733511675819024000,12.43902392578125,2.0340449906945226,-2.8207027331411836,0.08181552889943122
1733511675829043000,12.44904296875,1.7690737654455004,-2.9360856005996463,0.17542057205289602
1733511675839063000,12.45906298828125,1.5064102326169608,-3.1665719340533016,0.2351267066054046
1733511675849082000,12.46908203125,1.2974955333717166,-3.4341023422658443,0.11826646007075906
1733511675859101200,12.47910107421875,0.9248733500905334,-3.5072914971172806,-0.12477847231328487
1733511675869120000,12.4891201171875,0.008686872063577175,-3.1312112823367118,-0.23434183983802795
1733511675879139800,12.499139892578125,-2.4967718077927827,-1.9487620779454706,-0.10226590399295091
1733511675889159000,12.509158935546875,-9.220558084517716,0.5630009627521038,0.6217366448372602
1733511675899178000,12.519177978515625,-15.540863513839245,3.2635973070442676,1.535264425048977
1733511675909196800,12.52919677734375,-15.764183608925341,4.346839118230343,1.940255530884862
1733511675919217000,12.539216796875,-17.497786686408517,5.435517567512393,2.943841037032008
1733511675929236000,12.549236083984376,-3.8223113862574096,5.096047712248564,2.063208102945238
1733511675939255000,12.559255126953126,10.79347960165739,4.082430641430616,-1.3937376470305025
1733511675949274000,12.569274169921876,15.021103142398594,3.4225416683316228,-2.4613556264966725
1733511675959293000,12.57929296875,17.38815609886646,1.4717705886512993,-2.4082087043292817
1733511675969313000,12.58931298828125,15.305689314830301,-1.2466454899698496,-2.3296577301837504
1733511675979332000,12.59933203125,10.913743811416625,-3.408441831308603,-2.3456558020435274
