time,seconds_elapsed,z,y,x
1733511663405198300,0.0251982421875,-0.014702297747135162,0.0022444380447268486,-0.05031998082995415
1733511663415217400,0.035217529296875,-0.015446918085217476,0.03452488034963608,-0.04980519041419029
1733511663425237500,0.045237548828125,-0.021136241033673286,0.07840240746736526,-0.0439339317381382
1733511663435256600,0.055256591796875,-0.021701630204916,0.10182011127471924,-0.03905581682920456
1733511663445275400,0.065275390625,-0.019816413521766663,0.11127936840057373,-0.04090667515993118
1733511663455294500,0.07529443359375,-0.0197311919182539,0.11927923560142517,-0.03781367838382721
1733511663465314300,0.085314208984375,-0.017822619527578354,0.099123515188694,-0.037770021706819534
1733511663475333400,0.09533349609375,-0.017693189904093742,0.06053324043750763,-0.03835245594382286
1733511663485352000,0.10535205078125,-0.01692308485507965,0.011282912455499172,-0.03158469498157501
1733511663495371000,0.11537109375,-0.01770818419754505,-0.03283208608627319,-0.026857314631342888
1733511663505389800,0.125389892578125,-0.02329516038298607,-0.07472822070121765,-0.02819969691336155
1733511663515410000,0.135409912109375,-0.027440370991826057,-0.10484324395656586,-0.027827920392155647
1733511663525429000,0.145428955078125,-0.03505081683397293,-0.12425484508275986,-0.02809491939842701
1733511663535448000,0.155447998046875,-0.03840932622551918,-0.15481728315353394,-0.027963092550635338
1733511663545467100,0.165467041015625,-0.03682350739836693,-0.1816389411687851,-0.0392799936234951
1733511663555486000,0.17548583984375,-0.02878156118094921,-0.20608621835708618,-0.04726095497608185
1733511663565506000,0.185506103515625,-0.018691249191761017,-0.2185927778482437,-0.04960770159959793
1733511663575525000,0.195525146484375,-0.008021295070648193,-0.21748676896095276,-0.04709101468324661
1733511663585544200,0.205544189453125,0.002134113572537899,-0.21742868423461914,-0.05002124235033989
1733511663595563000,0.21556298828125,0.004763185977935791,-0.23830386996269226,-0.05590682849287987
1733511663605582800,0.225582763671875,0.007741296663880348,-0.25924235582351685,-0.06403780728578568
1733511663615602000,0.235601806640625,0.005204901099205017,-0.26477110385894775,-0.07288163155317307
1733511663625621000,0.24562109375,-0.0013009816175326705,-0.2595890462398529,-0.07478329539299011
1733511663635640000,0.25564013671875,-0.008136516436934471,-0.2546622157096863,-0.0702761560678482
1733511663645659000,0.265658935546875,-0.015388460829854012,-0.24636372923851013,-0.06528353691101074
1733511663655679000,0.275678955078125,-0.024716181680560112,-0.2377483993768692,-0.06183234602212906
1733511663665698000,0.285697998046875,-0.028909776359796524,-0.2253580391407013,-0.05452661216259003
1733511663675717000,0.295717041015625,-0.029597671702504158,-0.21164968609809875,-0.04233546182513237
1733511663685736000,0.30573583984375,-0.029880162328481674,-0.20182164013385773,-0.037561625242233276
1733511663695755000,0.315755126953125,-0.02757439576089382,-0.19307981431484222,-0.03920053690671921
1733511663705775000,0.325775146484375,-0.023719994351267815,-0.17758522927761078,-0.0366382971405983
1733511663715794200,0.335794189453125,-0.02448219060897827,-0.15471906960010529,-0.03081423044204712
1733511663725813000,0.34581298828125,-0.027395064011216164,-0.14493204653263092,-0.029183775186538696
1733511663735832000,0.35583203125,-0.023923899978399277,-0.13877056539058685,-0.03556550666689873
1733511663745851100,0.36585107421875,-0.02347872033715248,-0.14757278561592102,-0.04371432587504387
1733511663755871000,0.37587109375,-0.014215448871254921,-0.15734392404556274,-0.046350590884685516
1733511663765890000,0.38589013671875,-0.01029742881655693,-0.16539250314235687,-0.04538967087864876
1733511663775908900,0.395908935546875,-0.005030495580285788,-0.17441421747207642,-0.04355848208069801
1733511663785928000,0.405927978515625,0.002276606857776642,-0.18924452364444733,-0.04152661934494972
1733511663795948000,0.415947998046875,0.0026550418697297573,-0.21247342228889465,-0.049125418066978455
1733511663805967000,0.425967041015625,-0.0018831718480214477,-0.24382339417934418,-0.06072468310594559
1733511663815986000,0.43598583984375,-0.0050938790664076805,-0.26194271445274353,-0.06905505806207657
1733511663826005000,0.4460048828125,-0.005732967518270016,-0.25895023345947266,-0.07591284811496735
1733511663836024000,0.456024169921875,-0.003086051670834422,-0.2330816239118576,-0.06550680845975876
1733511663846044200,0.466044189453125,0.0053817820735275745,-0.19143381714820862,-0.04554465040564537
1733511663856063200,0.476063232421875,0.0096092838793993,-0.15787851810455322,-0.023921113461256027
1733511663866082000,0.48608203125,0.010205183178186417,-0.14626966416835785,-0.0019013163400813937
1733511663876101000,0.49610107421875,0.006173156667500734,-0.15959373116493225,0.0024015530943870544
1733511663886121000,0.506120849609375,-0.004084564279764891,-0.19179637730121613,-0.007634519599378109
1733511663896140000,0.51614013671875,-0.017424870282411575,-0.2251756340265274,-0.014747023582458496
1733511663906158800,0.526158935546875,-0.03479407727718353,-0.23711450397968292,-0.022002391517162323
1733511663916178000,0.536177978515625,-0.05066145583987236,-0.2203294038772583,-0.03407876193523407
1733511663926197000,0.546197021484375,-0.0572030246257782,-0.18063439428806305,-0.04895428195595741
1733511663936217000,0.556217041015625,-0.049717944115400314,-0.12418656796216965,-0.04633985832333565
1733511663946236200,0.566236083984375,-0.03566442057490349,-0.07129834592342377,-0.032183874398469925
1733511663956255000,0.5762548828125,-0.02453959733247757,-0.030614033341407776,0.007243693340569735
1733511663966274000,0.586274169921875,-0.006015622057020664,0.007522852160036564,0.05792904272675514
1733511663976293000,0.596293212890625,0.00023987668100744486,0.05953891575336456,0.1010432243347168
1733511663986313200,0.606313232421875,-0.006387179717421532,0.13839544355869293,0.10729748755693436
1733511663996332000,0.61633203125,-0.022221269086003304,0.2153645157814026,0.06704993546009064
1733511664006351000,0.62635107421875,-0.02491830848157406,0.28885605931282043,0.006873234640806913
1733511664016370200,0.6363701171875,0.021087266504764557,0.3100508451461792,-0.029567331075668335
1733511664026390000,0.64639013671875,0.0696682408452034,0.28587162494659424,-0.02182415872812271
1733511664036409000,0.6564091796875,0.0884251520037651,0.13681796193122864,0.002237236127257347
1733511664046428000,0.666427978515625,0.12816648185253143,-0.017936253920197487,0.020865948870778084
1733511664056447000,0.676447021484375,0.14925925433635712,-0.11824128776788712,0.06071269512176514
1733511664066466000,0.686466064453125,0.14306049048900604,-0.10457415878772736,0.07344794273376465
1733511664076486100,0.696486083984375,0.11526374518871307,0.010648833587765694,0.02314962074160576
1733511664086505000,0.7065048828125,0.05720130354166031,0.15327483415603638,-0.0794576108455658
1733511664096524000,0.71652392578125,-0.004332364536821842,0.20833835005760193,-0.17478279769420624
1733511664106543000,0.726543212890625,-0.03261815756559372,0.1611885130405426,-0.22010454535484314
1733511664116562200,0.736562255859375,-0.025176752358675003,0.03631769120693207,-0.24019809067249298
1733511664126582300,0.746582275390625,-0.006748579908162355,-0.10522738844156265,-0.19464853405952454
1733511664136601000,0.75660107421875,0.002422547899186611,-0.12310624867677689,-0.08113182336091995
1733511664146620200,0.7666201171875,0.032224707305431366,0.02197156473994255,0.03635876998305321
1733511664156639000,0.776638916015625,0.056707948446273804,0.2361363172531128,0.1189628392457962
1733511664166659000,0.7866591796875,0.07205629348754883,0.42313089966773987,0.13804006576538086
1733511664176678000,0.796677978515625,0.07546859979629517,0.5538089871406555,0.11743278801441193
1733511664186697000,0.806697021484375,0.08726972341537476,0.5935262441635132,0.0703262910246849
1733511664196716000,0.816716064453125,0.09195955097675323,0.5309816598892212,0.024347083643078804
1733511664206735000,0.826735107421875,0.0878010243177414,0.4170055389404297,-0.03223603591322899
1733511664216755000,0.8367548828125,0.08504492044448853,0.2947978675365448,-0.08650033921003342
1733511664226774000,0.84677392578125,0.10270755738019943,0.170477494597435,-0.1193491518497467
1733511664236793000,0.85679296875,0.12121812999248505,0.07838883996009827,-0.12396440654993057
1733511664246812200,0.866812255859375,0.11890773475170135,0.02725089155137539,-0.10682598501443863
1733511664256832000,0.87683203125,0.1078348383307457,0.020114418119192123,-0.06414137035608292
1733511664266851000,0.88685107421875,0.09567831456661224,0.037790123373270035,-0.01946709305047989
1733511664276870000,0.896869873046875,0.0810551643371582,0.03259669244289398,0.028999775648117065
1733511664286889000,0.906888916015625,0.07381589710712433,-0.004640689119696617,0.0852888822555542
1733511664296908000,0.916907958984375,0.06471241265535355,-0.03319377079606056,0.13151895999908447
1733511664306927900,0.926927978515625,0.052179981023073196,-0.0414995402097702,0.15967786312103271
1733511664316947000,0.936947021484375,0.04936502128839493,-0.049698881804943085,0.15583625435829163
1733511664326966000,0.946966064453125,0.038535889238119125,-0.10919340699911118,0.13780651986598969
1733511664336985000,0.956985107421875,0.01233331486582756,-0.21607138216495514,0.10324586927890778
1733511664347004000,0.96700390625,-0.01047020684927702,-0.31052693724632263,0.04678349941968918
1733511664357024000,0.97702392578125,-0.03308843448758125,-0.3889743387699127,-0.014892916195094585
1733511664367043000,0.98704296875,-0.058348797261714935,-0.4230789542198181,-0.07256147265434265
1733511664377062100,0.997062255859375,-0.07611741125583649,-0.418275386095047,-0.11586073786020279
1733511664387081200,1.007081298828125,-0.07964520156383514,-0.36550524830818176,-0.14001686871051788
1733511664397100800,1.017100830078125,-0.07247570902109146,-0.2724916934967041,-0.13074161112308502
1733511664407120000,1.027119873046875,-0.04468610882759094,-0.16730166971683502,-0.10075132548809052
1733511664417139000,1.037138916015625,-0.01043066568672657,-0.06628504395484924,-0.06890764832496643
1733511664427158000,1.047157958984375,-0.0037431002128869295,-0.014346551150083542,-0.06967668235301971
1733511664437176800,1.0571767578125,-0.013223687186837196,-0.006560799665749073,-0.10766108334064484
1733511664447197000,1.067197021484375,-0.043422289192676544,-0.04840577393770218,-0.16483205556869507
1733511664457216000,1.077216064453125,-0.08457345515489578,-0.12657994031906128,-0.22299762070178986
1733511664467235000,1.087235107421875,-0.12727360427379608,-0.2027985006570816,-0.27672678232192993
1733511664477254000,1.09725390625,-0.20300936698913574,-0.25810784101486206,-0.2904966473579407
1733511664487274500,1.1072744140625,-0.300689160823822,-0.2848258316516876,-0.25953954458236694
1733511664497293600,1.11729345703125,-0.40630531311035156,-0.2975544035434723,-0.16681066155433655
1733511664507312400,1.1273125,-0.5051661729812622,-0.2811730206012726,-0.01756654493510723
1733511664517331500,1.13733154296875,-0.5687640905380249,-0.22748476266860962,0.03698325157165527
1733511664527350500,1.1473505859375,-0.5855287909507751,-0.28786754608154297,-0.08646120876073837
1733511664537370400,1.157370361328125,-0.5419674515724182,-0.4887138307094574,-0.2078121304512024
1733511664547389400,1.167389404296875,-0.4773011803627014,-0.581005871295929,-0.14423885941505432
1733511664557408300,1.177408203125,-0.44521087408065796,-0.3870862126350403,0.1046857237815857
1733511664567427300,1.18742724609375,-0.42721685767173767,-0.024610135704278946,0.359769731760025
1733511664577446400,1.1974462890625,-0.3857943117618561,0.19110803306102753,0.3998558819293976
1733511664587466500,1.207466552734375,-0.3099421262741089,0.1556570678949356,0.25793224573135376
1733511664597485300,1.2174853515625,-0.2483770251274109,0.0067197950556874275,0.007824399508535862
1733511664607504400,1.22750439453125,-0.1905365139245987,-0.14829495549201965,-0.21227972209453583
1733511664617523500,1.2375234375,-0.13777956366539001,-0.3072949945926666,-0.33624374866485596
1733511664627543600,1.24754345703125,-0.08603247255086899,-0.5732390284538269,-0.34256020188331604
1733511664637562600,1.257562744140625,-0.0776515007019043,-0.7926701307296753,-0.323363333940506
1733511664647581400,1.26758154296875,-0.11448685079813004,-0.8549737334251404,-0.3823404610157013
1733511664657600500,1.2776005859375,-0.16040562093257904,-0.7322880029678345,-0.4811570644378662
1733511664667619600,1.28761962890625,-0.20119862258434296,-0.4866938591003418,-0.5407971143722534
1733511664677639400,1.297639404296875,-0.23142604529857635,-0.2720382809638977,-0.560541033744812
1733511664687658200,1.307658203125,-0.2713330090045929,-0.19692249596118927,-0.582908034324646
1733511664697677300,1.31767724609375,-0.3239661157131195,-0.32704320549964905,-0.6274451613426208
1733511664707696400,1.3276962890625,-0.366481751203537,-0.5190572738647461,-0.6640519499778748
1733511664717716500,1.337716552734375,-0.3757633864879608,-0.5323810577392578,-0.7054973840713501
1733511664727735600,1.347735595703125,-0.37714895606040955,-0.3167964518070221,-0.7753730416297913
1733511664737754400,1.35775439453125,-0.36996692419052124,-0.05420476570725441,-0.8463630676269531
1733511664747773400,1.3677734375,-0.33532214164733887,0.12613898515701294,-0.8998890519142151
1733511664757792500,1.37779248046875,-0.27037936449050903,0.14405407011508942,-0.9346930980682373
1733511664767812600,1.3878125,-0.19510474801063538,-0.014936498366296291,-0.9673817753791809
1733511664777831400,1.39783154296875,-0.16533035039901733,-0.3014356195926666,-0.9890535473823547
1733511664787850500,1.4078505859375,-0.18455679714679718,-0.5862740278244019,-0.983299732208252
1733511664797869600,1.41786962890625,-0.2105729579925537,-0.7105997204780579,-0.9577938318252563
1733511664807888400,1.427888427734375,-0.2177240401506424,-0.7008746266365051,-0.9455433487892151
1733511664817908200,1.437908203125,-0.17388442158699036,-0.6571820378303528,-0.944351851940155
1733511664827927300,1.44792724609375,-0.10531420260667801,-0.6357611417770386,-0.9321057200431824
1733511664837946400,1.4579462890625,-0.02831769362092018,-0.6722314953804016,-0.9008979797363281
1733511664847965400,1.46796533203125,0.05359572917222977,-0.7591031193733215,-0.8716840147972107
1733511664857985500,1.477985595703125,0.09826413542032242,-0.8909066915512085,-0.8564344644546509
1733511664868004400,1.48800439453125,0.10297801345586777,-1.0260268449783325,-0.8342803716659546
1733511664878023400,1.4980234375,0.12826046347618103,-1.081939935684204,-0.7575280666351318
1733511664888042500,1.50804248046875,0.15460295975208282,-0.9927334189414978,-0.6558985114097595
1733511664898061600,1.5180615234375,0.16376769542694092,-0.7679852843284607,-0.5715532898902893
1733511664908081400,1.528081298828125,0.17199252545833588,-0.5499985814094543,-0.5061432719230652
1733511664918100500,1.5381005859375,0.21067866683006287,-0.44293439388275146,-0.4630189538002014
1733511664928119300,1.548119384765625,0.274129718542099,-0.41840454936027527,-0.4715803563594818
1733511664938138400,1.558138427734375,0.32641690969467163,-0.4475954473018646,-0.5326650142669678
1733511664948157200,1.5681572265625,0.35150209069252014,-0.5285177826881409,-0.6018490195274353
1733511664958177300,1.57817724609375,0.3436918556690216,-0.6203174591064453,-0.6711202263832092
1733511664968196400,1.5881962890625,0.33399632573127747,-0.6449679136276245,-0.7224811315536499
1733511664978215400,1.59821533203125,0.33054405450820923,-0.5940783619880676,-0.7272242307662964
1733511664988234500,1.608234375,0.3391135632991791,-0.5077866911888123,-0.6914944648742676
1733511664998254300,1.61825439453125,0.3489376902580261,-0.42492055892944336,-0.648366391658783
1733511665008273400,1.6282734375,0.320393443107605,-0.35603418946266174,-0.633690595626831
1733511665018292500,1.63829248046875,0.3158453106880188,-0.2662979066371918,-0.6488685011863708
1733511665028311600,1.6483115234375,0.32163017988204956,-0.14556026458740234,-0.6698698401451111
1733511665038330400,1.658330322265625,0.30355504155158997,-0.012804356403648853,-0.6322534680366516
1733511665048350200,1.66835009765625,0.3162344992160797,0.11322828382253647,-0.5331977605819702
1733511665058369300,1.678369384765625,0.3255571722984314,0.210367351770401,-0.40109220147132874
1733511665068388400,1.688388427734375,0.31911298632621765,0.24964727461338043,-0.27538323402404785
1733511665078407200,1.6984072265625,0.3084339499473572,0.20508193969726562,-0.17442893981933594
1733511665088426200,1.70842626953125,0.313012957572937,0.1011476069688797,-0.1415499746799469
1733511665098446300,1.7184462890625,0.347640722990036,-0.07923361659049988,-0.18450117111206055
1733511665108465400,1.72846533203125,0.39274686574935913,-0.3519468903541565,-0.26627978682518005
1733511665118484500,1.738484375,0.4313400685787201,-0.6711041331291199,-0.34071728587150574
1733511665128503300,1.74850341796875,0.46597298979759216,-0.8802411556243896,-0.37422752380371094
1733511665138523400,1.7585234375,0.5249244570732117,-0.9571567177772522,-0.26652610301971436
1733511665148542500,1.76854248046875,0.590445339679718,-0.9007408022880554,-0.016167009249329567
1733511665158561500,1.7785615234375,0.6574693918228149,-0.6625032424926758,0.2165522575378418
1733511665168580400,1.788580322265625,0.6769988536834717,-0.3941449224948883,0.3400668501853943
1733511665178599400,1.798599365234375,0.6247025728225708,-0.2105623036623001,0.40122154355049133
1733511665188619300,1.808619384765625,0.5496756434440613,-0.12132076919078827,0.49917811155319214
1733511665198638300,1.818638427734375,0.5540810823440552,-0.1366232931613922,0.627187192440033
1733511665208657400,1.828657470703125,0.6201055645942688,-0.3218333125114441,0.6850095987319946
1733511665218676200,1.83867626953125,0.6714017987251282,-0.6314507722854614,0.650237500667572
1733511665228696300,1.8486962890625,0.653810441493988,-0.8215463161468506,0.5629851222038269
1733511665238715400,1.85871533203125,0.5724050402641296,-0.7863214612007141,0.5222184658050537
1733511665248734500,1.868734375,0.46902626752853394,-0.5971580743789673,0.5837576389312744
1733511665258753300,1.878753173828125,0.40351730585098267,-0.3912421762943268,0.6971995234489441
1733511665268772400,1.8887724609375,0.3810679018497467,-0.27272430062294006,0.753990113735199
1733511665278792400,1.89879248046875,0.36558613181114197,-0.38426440954208374,0.7192636132240295
1733511665288811500,1.9088115234375,0.3276355266571045,-0.6755255460739136,0.5291655659675598
1733511665298830600,1.91883056640625,0.23212313652038574,-0.9460920691490173,0.1621563881635666
1733511665308849400,1.928849365234375,0.08618680387735367,-1.1561185121536255,-0.33338481187820435
1733511665318868500,1.938868408203125,-0.0716739296913147,-1.1875853538513184,-0.8305853009223938
1733511665328888300,1.948888427734375,-0.12897364795207977,-0.8516250848770142,-1.06380295753479
1733511665338907400,1.958907470703125,-0.20419277250766754,-0.35597509145736694,-0.8554822206497192
1733511665348926200,1.96892626953125,-0.23003913462162018,-0.03855334222316742,-0.3723278045654297
1733511665358945300,1.9789453125,-0.18833217024803162,0.22738219797611237,0.018965916708111763
1733511665368965400,1.98896533203125,-0.11186541616916656,0.6717528104782104,0.022732257843017578
1733511665378984400,1.998984375,-0.040794700384140015,1.0123881101608276,-0.1741914600133896
1733511665389003500,2.00900341796875,0.021136723458766937,1.1232584714889526,-0.3493579924106598
1733511665399022300,2.019022216796875,0.07692675292491913,1.0946918725967407,-0.44198939204216003
1733511665409041400,2.02904150390625,0.10223527997732162,1.0285547971725464,-0.4726351201534271
1733511665419061500,2.0390615234375,0.10126109421253204,1.00983464717865,-0.45399272441864014
1733511665429080600,2.04908056640625,0.10123417526483536,1.0465036630630493,-0.4092169404029846
1733511665439099400,2.059099365234375,0.09805223345756531,1.0508626699447632,-0.3528439402580261
1733511665449118500,2.069118408203125,0.12299812585115433,0.9325631260871887,-0.2899586260318756
1733511665459138300,2.07913818359375,0.18851429224014282,0.6907153725624084,-0.23274806141853333
1733511665469157400,2.089157470703125,0.2713741362094879,0.43391677737236023,-0.19252972304821014
1733511665479176200,2.09917626953125,0.33876833319664,0.23204305768013,-0.18123365938663483
1733511665489195000,2.109195068359375,0.3760015070438385,0.12349947541952133,-0.1871529072523117
1733511665499214000,2.119214111328125,0.39721012115478516,0.09658850729465485,-0.17871174216270447
1733511665509234200,2.129234130859375,0.38870978355407715,0.11176594346761703,-0.15342754125595093
1733511665519253200,2.139253173828125,0.32088518142700195,0.1060611829161644,-0.1166737824678421
1733511665529272000,2.14927197265625,0.23511017858982086,0.050044167786836624,-0.06031505763530731
1733511665539291100,2.159291015625,0.14509719610214233,0.0009184353984892368,0.029327478259801865
1733511665549310200,2.169310302734375,0.06108805537223816,-0.006934757344424725,0.13005533814430237
1733511665559330300,2.179330322265625,-0.0014512216439470649,0.019130399450659752,0.22692915797233582
1733511665569349400,2.189349365234375,-0.05764788016676903,0.08082790672779083,0.3117620050907135
1733511665579368200,2.1993681640625,-0.11162589490413666,0.16755267977714539,0.3748815953731537
1733511665589387300,2.20938720703125,-0.17231148481369019,0.2661859393119812,0.4183920919895172
1733511665599407000,2.219406982421875,-0.23987561464309692,0.36112841963768005,0.45560070872306824
1733511665609426200,2.22942626953125,-0.31714168190956116,0.4498727023601532,0.515097439289093
1733511665619445000,2.239445068359375,-0.4071751832962036,0.5468567609786987,0.5850235223770142
1733511665629464000,2.249464111328125,-0.4837016463279724,0.6795932054519653,0.6639787554740906
1733511665639483100,2.259483154296875,-0.5490159392356873,0.8396545052528381,0.7558186650276184
1733511665649503200,2.269503173828125,-0.5989435315132141,0.988050639629364,0.8559593558311462
1733511665659522300,2.279522216796875,-0.629552960395813,1.0782935619354248,0.9271779656410217
1733511665669541000,2.289541015625,-0.6308228373527527,1.1105272769927979,0.9520068764686584
1733511665679560200,2.299560302734375,-0.6054578423500061,1.0947834253311157,0.9298864006996155
1733511665689580300,2.309580322265625,-0.5732341408729553,1.0823354721069336,0.8885493874549866
1733511665699599400,2.319599365234375,-0.5491306781768799,1.1409205198287964,0.8625247478485107
1733511665709618200,2.3296181640625,-0.537420392036438,1.3002424240112305,0.8768610954284668
1733511665719637200,2.33963720703125,-0.5281893014907837,1.5300809144973755,0.9409790635108948
1733511665729656300,2.34965625,-0.5251599550247192,1.7463512420654297,1.0405946969985962
1733511665739676200,2.35967626953125,-0.5360366106033325,1.8611310720443726,1.1546441316604614
1733511665749695200,2.3696953125,-0.5370694994926453,1.8354582786560059,1.2561002969741821
1733511665759714000,2.379714111328125,-0.5255409479141235,1.741969347000122,1.285174012184143
1733511665769733000,2.389733154296875,-0.508081316947937,1.6877690553665161,1.2598849534988403
1733511665779752200,2.399752197265625,-0.4980214834213257,1.701072096824646,1.226871132850647
1733511665789772300,2.409772216796875,-0.4872739315032959,1.7820618152618408,1.2035366296768188
1733511665799791000,2.419791015625,-0.46678677201271057,1.8769763708114624,1.1399840116500854
1733511665809810200,2.42981005859375,-0.4471051096916199,1.9623810052871704,1.0440231561660767
1733511665819829200,2.439829345703125,-0.4385017454624176,1.9859107732772827,0.9448174834251404
1733511665829849300,2.449849365234375,-0.443461149930954,1.9424046277999878,0.8687600493431091
1733511665839868400,2.459868408203125,-0.46861523389816284,1.8645929098129272,0.8244232535362244
1733511665849887200,2.46988720703125,-0.4823804795742035,1.8267767429351807,0.804715633392334
1733511665859906300,2.47990625,-0.4832784831523895,1.8185746669769287,0.7795152068138123
1733511665869925400,2.48992529296875,-0.48901939392089844,1.7737698554992676,0.7307178974151611
1733511665879945200,2.4999453125,-0.510208785533905,1.6219172477722168,0.6443473100662231
1733511665889964000,2.509964111328125,-0.5524106621742249,1.3786625862121582,0.525127112865448
1733511665899983000,2.519983154296875,-0.6044120788574219,1.1050525903701782,0.4370329678058624
1733511665910002200,2.530002197265625,-0.6251804828643799,0.8617244362831116,0.48112979531288147
1733511665920022300,2.540022216796875,-0.5936105847358704,0.7482506036758423,0.7743225693702698
1733511665930041300,2.550041259765625,-0.5437387228012085,0.5882545709609985,1.4948402643203735
1733511665940060200,2.56006005859375,-0.5276793241500854,1.4463248252868652,1.3420329093933105
1733511665950079200,2.570079345703125,-0.4280383884906769,2.1976826190948486,0.7205051779747009
1733511665960098300,2.580098388671875,-0.003959544934332371,2.0361311435699463,0.554322361946106
1733511665970118400,2.590118408203125,0.40892091393470764,0.9403627514839172,0.07275114953517914
1733511665980137200,2.60013720703125,0.4408953785896301,-0.891399621963501,-0.23587965965270996
1733511665990156300,2.61015625,0.008784886449575424,-2.083991527557373,-0.15645624697208405
1733511666000175400,2.62017529296875,-0.30464813113212585,-2.398049831390381,-0.2961488962173462
1733511666010195200,2.6301953125,-0.05522100627422333,-2.4915690422058105,-0.8842397332191467
1733511666020214000,2.640214111328125,0.48618578910827637,-2.1310575008392334,-1.8751370906829834
1733511666030233000,2.650233154296875,0.9340847730636597,-1.667454481124878,-2.707895517349243
1733511666040252200,2.660252197265625,1.1885820627212524,-1.3486312627792358,-3.2249584197998047
1733511666050271200,2.670271240234375,1.1818230152130127,-1.568297028541565,-3.090575695037842
1733511666060291300,2.680291259765625,0.8128126263618469,-2.292766571044922,-2.110952615737915
1733511666070310100,2.69031005859375,0.5218611359596252,-2.239983558654785,-1.1667648553848267
1733511666080329200,2.7003291015625,0.5072606205940247,-1.4399536848068237,-0.8753766417503357
1733511666090348300,2.710348388671875,0.5737614035606384,-0.6505721807479858,-0.7257902026176453
1733511666100368400,2.720368408203125,0.5460988879203796,0.35829660296440125,-0.5189791917800903
1733511666110387200,2.73038720703125,0.25899702310562134,1.5392919778823853,-0.4655875563621521
1733511666120406300,2.74040625,-0.12478871643543243,2.449178457260132,-0.65672767162323
1733511666130425000,2.750425048828125,-0.32693976163864136,2.601011037826538,-0.9338675141334534
1733511666140444200,2.760444091796875,-0.27926596999168396,1.268011450767517,-1.151577115058899
1733511666150464300,2.77046435546875,-0.07499811053276062,-1.2857660055160522,-1.2543402910232544
1733511666160483000,2.780483154296875,0.009319696575403214,-1.8766993284225464,-1.3696613311767578
1733511666170502100,2.790502197265625,-0.046455807983875275,-0.7583303451538086,-1.2523008584976196
1733511666180521200,2.800521240234375,-0.10851864516735077,0.6592942476272583,-0.7415693402290344
1733511666190541300,2.810541259765625,-0.057640958577394485,1.6787782907485962,-0.14780613780021667
1733511666200560000,2.82056005859375,0.00681605888530612,2.351236581802368,0.22494959831237793
1733511666210579200,2.8305791015625,0.034345194697380066,2.7142834663391113,0.30548614263534546
1733511666220598300,2.840598388671875,0.0361204594373703,2.719635486602783,0.23659148812294006
1733511666230617300,2.850617431640625,0.023334989324212074,2.3919827938079834,0.12881717085838318
1733511666240637200,2.86063720703125,0.03885615989565849,1.8707871437072754,0.0382409431040287
1733511666250656000,2.870656005859375,0.07472097128629684,1.298394799232483,-0.07512695342302322
1733511666260675000,2.880675048828125,0.09687953442335129,0.7654232978820801,-0.2088485211133957
1733511666270694100,2.890694091796875,0.08416856080293655,0.3739284873008728,-0.3748207688331604
1733511666280714200,2.90071435546875,0.04893680289387703,0.1755424290895462,-0.5798788666725159
1733511666290733000,2.910733154296875,0.010416770353913307,0.14705494046211243,-0.7979207038879395
1733511666300752100,2.920752197265625,-0.03982456400990486,0.18680235743522644,-0.9953722953796387
1733511666310771200,2.930771240234375,-0.0612933374941349,0.18406890332698822,-1.195441722869873
1733511666320790300,2.940790283203125,-0.02829783782362938,-0.08863506466150284,-1.378127932548523
1733511666330810400,2.950810302734375,0.06407060474157333,-0.8654071688652039,-1.3868908882141113
1733511666340829200,2.9608291015625,0.22448956966400146,-1.8462060689926147,-1.1666394472122192
1733511666350848300,2.97084814453125,0.38535693287849426,-2.3327183723449707,-0.8557550311088562
1733511666360867300,2.980867431640625,0.4449249505996704,-2.2316839694976807,-0.6118451356887817
1733511666370886100,2.99088623046875,0.4476560354232788,-1.7092220783233643,-0.44031381607055664
1733511666380906000,3.000906005859375,0.436472088098526,-1.0641275644302368,-0.23688240349292755
1733511666390925000,3.010925048828125,0.42387381196022034,-0.5058570504188538,0.021049827337265015
1733511666400944000,3.020944091796875,0.4185328483581543,-0.07490646094083786,0.24431514739990234
1733511666410963200,3.030963134765625,0.4298087954521179,0.16814550757408142,0.3629443347454071
1733511666420983300,3.0409833984375,0.4161103069782257,0.20861490070819855,0.33969971537590027
1733511666431002000,3.051002197265625,0.4054499864578247,0.14303046464920044,0.2001214176416397
1733511666441021200,3.061021240234375,0.4051373600959778,0.019841941073536873,0.011610888876020908
1733511666451040300,3.071040283203125,0.3753264248371124,-0.11454080790281296,-0.12234119325876236
1733511666461059000,3.08105908203125,0.29866519570350647,-0.19441008567810059,-0.16743436455726624
1733511666471079200,3.0910791015625,0.21942973136901855,-0.06979651749134064,-0.21032561361789703
1733511666481099500,3.101099609375,0.13615348935127258,0.27697208523750305,-0.33491018414497375
1733511666491118600,3.11111865234375,0.06413869559764862,0.5365363359451294,-0.46717363595962524
1733511666501137400,3.121137451171875,-0.030915921553969383,0.5584746599197388,-0.49762794375419617
1733511666511157500,3.131157470703125,-0.16795074939727783,0.5027847290039062,-0.4036511480808258
1733511666521176600,3.141176513671875,-0.2602050304412842,0.4684586524963379,-0.24356615543365479
1733511666531195600,3.151195556640625,-0.2609565258026123,0.48374220728874207,-0.09484391659498215
1733511666541214500,3.16121435546875,-0.2184748351573944,0.5679281949996948,-0.005134003236889839
1733511666551233500,3.171233642578125,-0.17781665921211243,0.6811022758483887,0.034078773111104965
1733511666561253600,3.181253662109375,-0.1550586223602295,0.7258204817771912,0.03962400555610657
1733511666571272700,3.191272705078125,-0.12700317800045013,0.6196874976158142,0.007109271362423897
1733511666581291800,3.201291748046875,-0.0677582398056984,0.34686875343322754,-0.06092197820544243
1733511666591310600,3.211310546875,0.0020735724829137325,-0.022910602390766144,-0.13229575753211975
1733511666601330400,3.221330322265625,0.04432462528347969,-0.3278508186340332,-0.18280474841594696
1733511666611349500,3.231349609375,0.08858567476272583,-0.44664841890335083,-0.19048474729061127
1733511666621368600,3.24136865234375,0.12227972596883774,-0.4069555997848511,-0.13828971982002258
1733511666631387400,3.251387451171875,0.1542428433895111,-0.35881778597831726,-0.030218634754419327
1733511666641406500,3.261406494140625,0.1983429342508316,-0.3715093433856964,0.09984561800956726
1733511666651426600,3.271426513671875,0.2338835746049881,-0.36105480790138245,0.20072463154792786
1733511666661445600,3.281445556640625,0.27361130714416504,-0.2893984615802765,0.2658037543296814
1733511666671464700,3.291464599609375,0.29264089465141296,-0.20383484661579132,0.29360657930374146
1733511666681483500,3.3014833984375,0.28566446900367737,-0.09087527543306351,0.28745201230049133
1733511666691503600,3.311503662109375,0.27369213104248047,0.045638225972652435,0.2520897388458252
1733511666701522700,3.321522705078125,0.2430168092250824,0.16428525745868683,0.22167004644870758
1733511666711541800,3.331541748046875,0.20645484328269958,0.27834197878837585,0.21870611608028412
1733511666721560600,3.341560546875,0.176462322473526,0.4215731918811798,0.23353645205497742
1733511666731579600,3.35157958984375,0.1600194126367569,0.5046572685241699,0.2592485547065735
1733511666741599500,3.361599609375,0.139277383685112,0.50263512134552,0.27489301562309265
1733511666751618600,3.37161865234375,0.11337888240814209,0.3725567162036896,0.2898592948913574
1733511666761637600,3.3816376953125,0.08221670240163803,0.18867796659469604,0.2885253131389618
1733511666771656400,3.391656494140625,0.062034424394369125,0.06237014755606651,0.282664030790329
1733511666781676500,3.401676513671875,0.06541185081005096,0.08564484864473343,0.27510252594947815
1733511666791695600,3.411695556640625,0.08637987822294235,0.27477940917015076,0.270054429769516
1733511666801714700,3.421714599609375,0.1021130383014679,0.44307735562324524,0.3334834575653076
1733511666811733500,3.4317333984375,0.11904440075159073,0.507030725479126,0.46277347207069397
1733511666821752600,3.441752685546875,0.11934320628643036,0.48020821809768677,0.5856919288635254
1733511666831772700,3.451772705078125,0.07498866319656372,0.41074079275131226,0.6302201747894287
1733511666841791700,3.461791748046875,0.002822329057380557,0.3283335566520691,0.5992004871368408
1733511666851810600,3.471810546875,-0.09742515534162521,0.2735128700733185,0.4777717888355255
1733511666861829600,3.48182958984375,-0.23711806535720825,0.23191429674625397,0.3125801682472229
1733511666871849500,3.491849365234375,-0.40123847126960754,0.1896706074476242,0.1920117288827896
1733511666881868500,3.50186865234375,-0.5056005120277405,0.18085208535194397,0.1942700892686844
1733511666891887600,3.5118876953125,-0.5285386443138123,0.2571333050727844,0.31997165083885193
1733511666901906400,3.521906494140625,-0.4737875461578369,0.42870721220970154,0.5273184776306152
1733511666911925500,3.531925537109375,-0.363446444272995,0.6789823770523071,0.7863234281539917
1733511666921945600,3.541945556640625,-0.2526962161064148,0.9270212054252625,1.0577442646026611
1733511666931964700,3.551964599609375,-0.18970011174678802,1.0875940322875977,1.2960435152053833
1733511666941983500,3.5619833984375,-0.17781922221183777,1.1800802946090698,1.4292963743209839
1733511666952002600,3.57200244140625,-0.19799578189849854,1.2067090272903442,1.463786005973816
1733511666962022700,3.582022705078125,-0.2106705605983734,1.1807153224945068,1.4256870746612549
1733511666972041700,3.592041748046875,-0.2290952056646347,1.1521376371383667,1.380784034729004
1733511666982060500,3.602060546875,-0.2676050662994385,1.1770206689834595,1.4292168617248535
1733511666992079600,3.61207958984375,-0.3179329037666321,1.290662169456482,1.5616858005523682
1733511667002098700,3.6220986328125,-0.35865315794944763,1.4654324054718018,1.7023918628692627
1733511667012118500,3.632118408203125,-0.35161134600639343,1.6329402923583984,1.7807257175445557
1733511667022137600,3.6421376953125,-0.31565868854522705,1.724657416343689,1.7741596698760986
1733511667032156400,3.652156494140625,-0.2857973575592041,1.7251869440078735,1.7291370630264282
1733511667042175500,3.662175537109375,-0.2884434759616852,1.6919350624084473,1.697631597518921
1733511667052195600,3.672195556640625,-0.30439552664756775,1.6952210664749146,1.6705031394958496
1733511667062214700,3.682214599609375,-0.31941789388656616,1.7232165336608887,1.6500862836837769
1733511667072233700,3.692233642578125,-0.337978333234787,1.7503410577774048,1.6114157438278198
1733511667082252500,3.70225244140625,-0.3603675365447998,1.7468416690826416,1.5438034534454346
1733511667092271600,3.712271728515625,-0.38800063729286194,1.7384085655212402,1.4436261653900146
1733511667102291700,3.722291748046875,-0.4331659972667694,1.7595436573028564,1.3246310949325562
1733511667112310500,3.732310546875,-0.4969256520271301,1.7534724473953247,1.2129439115524292
1733511667122329600,3.74232958984375,-0.5579213500022888,1.6783188581466675,1.1211020946502686
1733511667132348400,3.752348388671875,-0.6113411784172058,1.571943998336792,1.0399410724639893
1733511667142368500,3.762368408203125,-0.651759147644043,1.528841257095337,0.9755996465682983
1733511667152387600,3.7723876953125,-0.6757687926292419,1.587777018547058,0.8769894242286682
1733511667162406700,3.78240673828125,-0.6715461015701294,1.5919262170791626,0.7470383644104004
1733511667172425500,3.792425537109375,-0.6298027634620667,1.3728665113449097,0.630202054977417
1733511667182444500,3.802444580078125,-0.5248574614524841,0.9711396098136902,0.6960108876228333
1733511667192464600,3.812464599609375,-0.39214158058166504,0.6602614521980286,1.1419235467910767
1733511667202483700,3.822483642578125,-0.27214670181274414,0.8048383593559265,1.800761103630066
1733511667212502500,3.83250244140625,-0.38736453652381897,2.5448288917541504,1.187212586402893
1733511667222521600,3.842521484375,-0.3820003867149353,3.5141232013702393,0.7445586919784546
1733511667232541400,3.85254150390625,0.01013500802218914,3.4339330196380615,0.31370317935943604
1733511667242560500,3.862560546875,0.23884515464305878,2.0479063987731934,-0.545549213886261
1733511667252579600,3.87257958984375,-0.009573590941727161,-0.8054694533348083,-1.0042566061019897
1733511667262598400,3.882598388671875,-0.5771499276161194,-3.0590403079986572,-0.8857634663581848
1733511667272617500,3.892617431640625,-0.9247764945030212,-3.8961527347564697,-0.8695312738418579
1733511667282637600,3.902637451171875,-0.6976008415222168,-3.7908713817596436,-1.779229998588562
1733511667292656600,3.91265673828125,-0.014776709489524364,-2.5939013957977295,-3.875771999359131
1733511667302675500,3.922675537109375,0.06922738254070282,-3.7478392124176025,-3.6962287425994873
1733511667312694500,3.932694580078125,0.06541869044303894,-4.048975467681885,-2.0452466011047363
1733511667322714600,3.942714599609375,0.1931430995464325,-2.129434823989868,-0.8585125803947449
1733511667332733700,3.952733642578125,0.21244721114635468,-0.4180428981781006,-0.3621133267879486
1733511667342752500,3.96275244140625,0.2841570973396301,0.5772847533226013,-0.15373186767101288
1733511667352771600,3.972771484375,0.4342825710773468,1.0268886089324951,-0.07859428226947784
1733511667362790700,3.982790771484375,0.5861000418663025,1.0438334941864014,-0.04472766071557999
1733511667372810500,3.992810546875,0.6701496839523315,0.8821827173233032,-0.07413383573293686
1733511667382829600,4.00282958984375,0.6802574992179871,0.8787238001823425,-0.25032350420951843
1733511667392848400,4.012848388671875,0.6590982675552368,1.003930926322937,-0.531873881816864
1733511667402867500,4.022867431640625,0.4738844335079193,1.0405339002609253,-0.8691920042037964
1733511667412887600,4.032887451171875,0.15359200537204742,0.7283883690834045,-1.2897357940673828
1733511667422906600,4.04290673828125,-0.029443856328725815,0.04189496487379074,-1.6223230361938477
1733511667432925400,4.052925537109375,-0.13950218260288239,-0.7046105861663818,-1.7329280376434326
1733511667442944500,4.062944580078125,-0.17751161754131317,-0.9932080507278442,-1.6201599836349487
1733511667452964600,4.072964599609375,-0.12918925285339355,-0.5778775215148926,-1.36043381690979
1733511667462983700,4.082983642578125,-0.07282079011201859,0.12874004244804382,-1.0430227518081665
1733511667473002800,4.093002685546875,-0.06759454309940338,0.865937352180481,-0.7225418090820312
1733511667483020000,4.10302001953125,-0.10193733870983124,1.5092108249664307,-0.4337558150291443
1733511667493039000,4.1130390625,-0.14361129701137543,1.939501166343689,-0.17596612870693207
1733511667503059200,4.12305908203125,-0.19738371670246124,2.1304209232330322,-0.013752720318734646
1733511667513078000,4.133078125,-0.24702316522598267,2.083538293838501,0.029613159596920013
1733511667523097000,4.14309716796875,-0.2851122319698334,1.8554375171661377,-0.027307379990816116
1733511667533116200,4.1531162109375,-0.3009414076805115,1.5204633474349976,-0.14549607038497925
1733511667543136000,4.163135986328125,-0.3167584538459778,1.142225980758667,-0.29884833097457886
1733511667553155000,4.173155029296875,-0.32171863317489624,0.780648946762085,-0.4530268907546997
1733511667563174000,4.183173828125,-0.2835848033428192,0.3774586319923401,-0.5776157379150391
1733511667573193000,4.19319287109375,-0.20657457411289215,-0.05661147087812424,-0.6152089238166809
1733511667583212000,4.2032119140625,-0.14530669152736664,-0.38992124795913696,-0.602800190448761
1733511667593232000,4.21323193359375,-0.10019569098949432,-0.5346232652664185,-0.5964857935905457
1733511667603251000,4.2232509765625,-0.05047021061182022,-0.5061882138252258,-0.6343333125114441
1733511667613270000,4.23327001953125,-0.0022864127531647682,-0.4037332236766815,-0.6838670969009399
1733511667623289000,4.2432890625,0.05590605363249779,-0.4067623019218445,-0.6519408822059631
1733511667633309200,4.25330908203125,0.12544742226600647,-0.4506731331348419,-0.5836197733879089
1733511667643328000,4.263327880859375,0.1655476987361908,-0.4351179003715515,-0.555070161819458
1733511667653347000,4.27334716796875,0.1734723150730133,-0.35003161430358887,-0.5666947960853577
1733511667663366100,4.2833662109375,0.19427506625652313,-0.2216174453496933,-0.5934745073318481
1733511667673385200,4.29338525390625,0.24162083864212036,-0.10577191412448883,-0.6186325550079346
1733511667683404800,4.30340478515625,0.27341634035110474,-0.058605194091796875,-0.6270468235015869
1733511667693423900,4.313423828125,0.29163122177124023,-0.0960845798254013,-0.6483663320541382
1733511667703443000,4.32344287109375,0.32193002104759216,-0.24691909551620483,-0.7048775553703308
1733511667713462000,4.3334619140625,0.3501330614089966,-0.484000563621521,-0.7387056946754456
1733511667723482000,4.343482177734375,0.35338878631591797,-0.6877675652503967,-0.7231967449188232
1733511667733501000,4.3535009765625,0.3323103189468384,-0.7835211753845215,-0.6903510689735413
1733511667743520000,4.36352001953125,0.3175492286682129,-0.8402121663093567,-0.6508742570877075
1733511667753539000,4.3735390625,0.29779908061027527,-0.9427309036254883,-0.5478681325912476
1733511667763558100,4.38355810546875,0.2519511580467224,-1.0152524709701538,-0.3366911709308624
1733511667773578000,4.393577880859375,0.22888565063476562,-0.839625895023346,-0.027439892292022705
1733511667783597000,4.40359716796875,0.21236181259155273,-0.3428524136543274,0.25883474946022034
1733511667793616100,4.4136162109375,0.18823213875293732,0.2683178782463074,0.5135087370872498
1733511667803635200,4.42363525390625,0.14749827980995178,0.7302061319351196,0.7583595514297485
1733511667813655000,4.433655029296875,0.10418679565191269,1.0168017148971558,0.8928610682487488
1733511667823673900,4.443673828125,0.04129410907626152,1.118546962738037,0.9203699231147766
1733511667833693000,4.45369287109375,-0.014276035130023956,1.054886817932129,0.865196168422699
1733511667843712000,4.4637119140625,-0.014774312265217304,0.8637046217918396,0.7431679964065552
1733511667853732000,4.473732177734375,0.023270949721336365,0.5904947519302368,0.5656493306159973
1733511667863751000,4.4837509765625,0.04690197855234146,0.2921275198459625,0.3678797781467438
1733511667873770000,4.49377001953125,0.03952322527766228,0.01099321711808443,0.20133988559246063
1733511667883789000,4.5037890625,0.05237617343664169,-0.17314837872982025,0.08430381864309311
1733511667893808000,4.51380810546875,0.10674792528152466,-0.21309030055999756,-0.03279157727956772
1733511667903828200,4.523828125,0.09974833577871323,-0.08774729073047638,-0.14899860322475433
1733511667913847000,4.533846923828125,0.06547928601503372,0.12841163575649261,-0.20528662204742432
1733511667923866000,4.5438662109375,0.041389402002096176,0.32513323426246643,-0.15712468326091766
1733511667933885200,4.55388525390625,0.025385886430740356,0.46549171209335327,0.04111126810312271
1733511667943904000,4.563904052734375,0.02330515719950199,0.6120870113372803,0.33393463492393494
1733511667953923800,4.573923828125,0.05935698002576828,0.7917667627334595,0.5729196071624756
1733511667963943000,4.58394287109375,0.11061163991689682,0.9425299167633057,0.6813337206840515
1733511667973962000,4.5939619140625,0.14749360084533691,1.034239411354065,0.679034411907196
1733511667983981000,4.60398095703125,0.17121116816997528,1.0655773878097534,0.6027255654335022
1733511667994001200,4.614001220703125,0.192108616232872,1.0286253690719604,0.49257370829582214
1733511668004020000,4.62402001953125,0.22383299469947815,0.9478998780250549,0.3802871108055115
1733511668014039000,4.6340390625,0.2614341676235199,0.8499360084533691,0.3006974160671234
1733511668024058000,4.64405810546875,0.2796802818775177,0.735315203666687,0.2825101613998413
1733511668034078200,4.654078125,0.28077876567840576,0.5684980154037476,0.330942302942276
1733511668044097000,4.664096923828125,0.2674294114112854,0.3389689326286316,0.4144560992717743
1733511668054116000,4.6741162109375,0.2561877965927124,0.14564435184001923,0.5009374618530273
1733511668064135200,4.68413525390625,0.2639634609222412,0.089010089635849,0.5667604207992554
1733511668074154200,4.694154296875,0.2487037628889084,0.1880781352519989,0.5921121835708618
1733511668084173800,4.704173828125,0.20966660976409912,0.36539939045906067,0.5988590121269226
1733511668094193000,4.71419287109375,0.15527719259262085,0.5549783110618591,0.60377037525177
1733511668104212000,4.7242119140625,0.08734820038080215,0.7319294214248657,0.6129934191703796
1733511668114231000,4.73423095703125,0.020863547921180725,0.8506284952163696,0.6384838819503784
1733511668124251100,4.744251220703125,-0.043641142547130585,0.8798540234565735,0.685583770275116
1733511668134270000,4.75427001953125,-0.07646249234676361,0.8785597681999207,0.7488626837730408
1733511668144289000,4.7642890625,-0.06588868051767349,0.9081171154975891,0.8263971209526062
1733511668154308000,4.77430810546875,-0.05030059069395065,0.9386656284332275,0.9253928661346436
1733511668164328200,4.784328125,-0.045615024864673615,0.9216877222061157,1.034010648727417
1733511668174347000,4.794346923828125,-0.0718703344464302,0.8639911413192749,1.1307395696640015
1733511668184366000,4.804365966796875,-0.12984254956245422,0.8078905940055847,1.2038787603378296
1733511668194385200,4.81438525390625,-0.20930476486682892,0.7934337258338928,1.2325416803359985
1733511668204404200,4.824404296875,-0.2849838435649872,0.8352557420730591,1.2245575189590454
1733511668214424000,4.834424072265625,-0.3442500829696655,0.9291673302650452,1.1948440074920654
1733511668224443000,4.84444287109375,-0.38405242562294006,1.0790371894836426,1.1630066633224487
1733511668234462000,4.8544619140625,-0.42023369669914246,1.2353274822235107,1.1473157405853271
1733511668244481000,4.86448095703125,-0.4608498513698578,1.3501317501068115,1.1511874198913574
1733511668254501000,4.874501220703125,-0.4932060241699219,1.4743363857269287,1.1433131694793701
1733511668264520000,4.88452001953125,-0.5129783749580383,1.5968633890151978,1.1260353326797485
1733511668274539000,4.8945390625,-0.5121437907218933,1.6190617084503174,1.1166311502456665
1733511668284558000,4.90455810546875,-0.4831390678882599,1.5545533895492554,1.1234099864959717
1733511668294577200,4.9145771484375,-0.4262697100639343,1.4778231382369995,1.1473820209503174
1733511668304597200,4.92459716796875,-0.38105401396751404,1.407860517501831,1.2137229442596436
1733511668314616000,4.934615966796875,-0.35617613792419434,1.3473011255264282,1.2923357486724854
1733511668324635100,4.94463525390625,-0.3577066659927368,1.3373161554336548,1.330952763557434
1733511668334654200,4.954654296875,-0.3692832887172699,1.3746168613433838,1.3155354261398315
1733511668344674000,4.964674072265625,-0.39958661794662476,1.4305185079574585,1.2766937017440796
1733511668354692900,4.97469287109375,-0.4343392848968506,1.500216007232666,1.221115231513977
1733511668364712000,4.9847119140625,-0.462136834859848,1.5491786003112793,1.1736747026443481
1733511668374731000,4.99473095703125,-0.4913267195224762,1.6228090524673462,1.1616460084915161
1733511668384751000,5.004751220703125,-0.5122748613357544,1.8147779703140259,1.1679292917251587
1733511668394770200,5.014770263671875,-0.5040341019630432,2.0000975131988525,1.1051253080368042
1733511668404789000,5.0247890625,-0.488644003868103,1.9706915616989136,0.9510732293128967
1733511668414808000,5.03480810546875,-0.4792388379573822,1.758360743522644,0.7352469563484192
1733511668424827100,5.0448271484375,-0.4802148640155792,1.4384996891021729,0.5544609427452087
1733511668434847200,5.05484716796875,-0.48502644896507263,1.1138720512390137,0.48526301980018616
1733511668444866000,5.064865966796875,-0.43772363662719727,0.9474860429763794,0.6125216484069824
1733511668454885000,5.074885009765625,-0.34910640120506287,0.9465200304985046,0.993342936038971
1733511668464904200,5.084904296875,-0.3125515878200531,1.0335156917572021,1.5787872076034546
1733511668474924000,5.094924072265625,-0.30809786915779114,1.2565044164657593,2.0249392986297607
1733511668484943400,5.104943359375,-0.42452409863471985,2.029597759246826,1.539711594581604
1733511668494962200,5.114962158203125,-0.352315217256546,2.8854665756225586,0.8533427119255066
1733511668504981200,5.124981201171875,-0.14352525770664215,3.172780752182007,-0.031045442447066307
1733511668515000300,5.135000244140625,-0.2328266054391861,1.9161670207977295,-1.0476926565170288
1733511668525020400,5.1450205078125,-0.6201218366622925,-0.7156768441200256,-1.3957374095916748
1733511668535039500,5.15503955078125,-0.9515396952629089,-2.7049787044525146,-1.292197585105896
1733511668545058300,5.165058349609375,-1.0298123359680176,-3.5712499618530273,-1.7714771032333374
1733511668555077400,5.175077392578125,-0.7244343161582947,-2.758840322494507,-3.0736374855041504
1733511668565097200,5.18509716796875,-0.37880659103393555,-1.948171615600586,-2.0061373710632324
1733511668575116300,5.1951162109375,-0.11410942673683167,-0.6824124455451965,-0.41521337628364563
1733511668585135000,5.205135009765625,0.017484286800026894,0.41786855459213257,0.1582607924938202
1733511668595154200,5.215154296875,0.1273697465658188,0.5277271270751953,-0.034257736057043076
1733511668605174300,5.22517431640625,0.19016548991203308,0.07039795815944672,-0.5135511159896851
1733511668615193300,5.235193359375,0.23996295034885406,-0.349979966878891,-0.9857515096664429
1733511668625212400,5.24521240234375,0.2925981879234314,-0.6211150884628296,-1.3609062433242798
1733511668635231200,5.255231201171875,0.2899891138076782,-1.0412859916687012,-1.5683646202087402
1733511668645250300,5.265250244140625,0.23673762381076813,-1.4890276193618774,-1.6330355405807495
1733511668655270400,5.2752705078125,0.17261791229248047,-1.7198615074157715,-1.6179234981536865
1733511668665289500,5.28528955078125,0.10049978643655777,-1.6706234216690063,-1.5445823669433594
1733511668675308300,5.295308349609375,0.0511234775185585,-1.48617684841156,-1.4026708602905273
1733511668685327400,5.305327392578125,0.0404556542634964,-1.2537777423858643,-1.2428034543991089
1733511668695347200,5.31534716796875,0.059139467775821686,-0.9249712228775024,-1.115024447441101
1733511668705366300,5.3253662109375,0.08321790397167206,-0.5678207874298096,-0.9951140880584717
1733511668715385300,5.33538525390625,0.08912121504545212,-0.24187155067920685,-0.8585559725761414
1733511668725404200,5.345404052734375,0.09258652478456497,0.10359689593315125,-0.7222489714622498
1733511668735423200,5.35542333984375,0.1169174537062645,0.46873196959495544,-0.5954276919364929
1733511668745443300,5.365443359375,0.1321784406900406,0.8597947955131531,-0.4631921947002411
1733511668755462400,5.37546240234375,0.10444632172584534,1.2437264919281006,-0.3125765025615692
1733511668765481200,5.385481201171875,0.013554500415921211,1.4445443153381348,-0.25869542360305786
1733511668775500300,5.395500244140625,0.0029266735073179007,1.4125142097473145,-0.2558858394622803
1733511668785520400,5.405520263671875,0.00999976322054863,1.232564091682434,-0.302154541015625
1733511668795539500,5.41553955078125,-0.04558459669351578,1.0163869857788086,-0.4077570140361786
1733511668805558300,5.425558349609375,-0.08594001084566116,0.8125408887863159,-0.5888511538505554
1733511668815577300,5.435577392578125,-0.06599215418100357,0.5884138345718384,-0.8074939846992493
1733511668825597200,5.44559716796875,-0.019802026450634003,0.3106312155723572,-1.002673625946045
1733511668835616300,5.4556162109375,-0.005351110361516476,0.04291420802474022,-1.1570254564285278
1733511668845635300,5.46563525390625,0.020734285935759544,-0.12960056960582733,-1.2626688480377197
1733511668855654100,5.475654052734375,0.10372640192508698,-0.2892836928367615,-1.2571337223052979
1733511668865673200,5.485673095703125,0.16496632993221283,-0.47494304180145264,-1.1448726654052734
1733511668875693300,5.495693359375,0.15630461275577545,-0.6093034744262695,-1.0377395153045654
1733511668885712400,5.50571240234375,0.10777115821838379,-0.6390142440795898,-1.013778805732727
1733511668895731200,5.515731201171875,0.03897280618548393,-0.5943168997764587,-1.040989637374878
1733511668905750300,5.525750244140625,-0.0357791967689991,-0.5083391666412354,-1.0677183866500854
1733511668915770400,5.535770263671875,-0.08416607975959778,-0.4376470446586609,-1.0552787780761719
1733511668925789400,5.54578955078125,-0.09933678060770035,-0.39106595516204834,-0.9929552674293518
1733511668935808500,5.55580859375,-0.08429095149040222,-0.3175709545612335,-0.9226240515708923
1733511668945827300,5.565827392578125,-0.05377112701535225,-0.19275765120983124,-0.8609055876731873
1733511668955846400,5.575846435546875,0.003496304154396057,-0.009688356891274452,-0.7870910167694092
1733511668965866200,5.5858662109375,0.06904681771993637,0.13950085639953613,-0.682417094707489
1733511668975885300,5.59588525390625,0.10485338419675827,0.15218991041183472,-0.5272732973098755
1733511668985904000,5.605904052734375,0.12253677099943161,0.04867124930024147,-0.3292003870010376
1733511668995923200,5.615923095703125,0.14272195100784302,-0.07352928817272186,-0.15425342321395874
1733511669005943300,5.625943359375,0.16450980305671692,-0.16537904739379883,-0.028398025780916214
1733511669015962400,5.63596240234375,0.19899731874465942,-0.2485014796257019,0.0637601688504219
1733511669025981400,5.6459814453125,0.25197213888168335,-0.31984755396842957,0.1050301119685173
1733511669036000300,5.656000244140625,0.32381966710090637,-0.3123672604560852,0.0741630271077156
1733511669046020400,5.666020263671875,0.39526990056037903,-0.2801738977432251,-0.00265691801905632
1733511669056039400,5.676039306640625,0.47105616331100464,-0.32331305742263794,-0.05504806712269783
1733511669066058500,5.68605859375,0.5508503317832947,-0.49997198581695557,-0.05450265109539032
1733511669076077300,5.696077392578125,0.6062988042831421,-0.8264250755310059,-0.020798474550247192
1733511669086096400,5.706096435546875,0.6175985932350159,-1.194397211074829,-0.004694872535765171
1733511669096116200,5.7161162109375,0.585651159286499,-1.3749502897262573,-0.04761342704296112
1733511669106135300,5.72613525390625,0.5347211360931396,-1.2758058309555054,-0.08488676697015762
1733511669116154400,5.736154296875,0.436764657497406,-0.9275479316711426,-0.05623845383524895
1733511669126173200,5.746173095703125,0.2545918822288513,-0.3196598291397095,0.07200313359498978
1733511669136193300,5.756193359375,0.11340077221393585,0.4956527352333069,0.29344215989112854
1733511669146212400,5.76621240234375,0.06675071269273758,1.2419521808624268,0.6031222939491272
1733511669156231400,5.7762314453125,0.024753360077738762,1.7003302574157715,0.8967497944831848
1733511669166250200,5.786250244140625,-0.03524472564458847,1.7752801179885864,1.0659732818603516
1733511669176270300,5.796270263671875,-0.08868979662656784,1.5177204608917236,1.0425679683685303
1733511669186289400,5.806289306640625,-0.09469123184680939,1.0474313497543335,0.8157840371131897
1733511669196308500,5.81630859375,-0.04865783452987671,0.5240379571914673,0.4185090959072113
1733511669206327600,5.82632763671875,0.04346276819705963,0.14815062284469604,-0.051224563270807266
1733511669216346400,5.836346435546875,0.08633990585803986,0.02000093273818493,-0.3921847641468048
1733511669226366200,5.8463662109375,0.07148052752017975,0.0781039148569107,-0.5196175575256348
1733511669236385300,5.85638525390625,0.07025336474180222,0.28218191862106323,-0.5102840065956116
1733511669246404400,5.866404296875,0.08564510941505432,0.5136950016021729,-0.44449302554130554
1733511669256423200,5.876423095703125,0.0975426584482193,0.6655968427658081,-0.35164088010787964
1733511669266443300,5.886443359375,0.09328825771808624,0.6743059158325195,-0.22626033425331116
1733511669276462300,5.89646240234375,0.07479803264141083,0.5866715312004089,-0.06829777359962463
1733511669286481400,5.9064814453125,0.0695904865860939,0.478476345539093,0.10965704172849655
1733511669296500200,5.916500244140625,0.09510990977287292,0.40561503171920776,0.2662270665168762
1733511669306519300,5.926519287109375,0.12935815751552582,0.3625626266002655,0.35962945222854614
1733511669316539400,5.936539306640625,0.15423458814620972,0.3317031264305115,0.40010666847229004
1733511669326558500,5.946558349609375,0.17618702352046967,0.2968154549598694,0.4024142920970917
1733511669336577500,5.95657763671875,0.19406089186668396,0.1734609454870224,0.3889193534851074
1733511669346596400,5.966596435546875,0.1784190833568573,-0.0022485540248453617,0.3553565740585327
1733511669356616200,5.9766162109375,0.17400385439395905,-0.14014948904514313,0.3153688907623291
1733511669366635300,5.98663525390625,0.15899401903152466,-0.2174120396375656,0.28169694542884827
1733511669376654300,5.996654296875,0.1387491226196289,-0.25347116589546204,0.2534675896167755
1733511669386673200,6.006673095703125,0.12170196324586868,-0.26763251423835754,0.2473772019147873
1733511669396693200,6.016693359375,0.10813988745212555,-0.27314186096191406,0.26183992624282837
1733511669406712300,6.02671240234375,0.09231112152338028,-0.28905636072158813,0.3098207712173462
1733511669416731400,6.0367314453125,0.062351044267416,-0.3151787221431732,0.4094981849193573
1733511669426750500,6.04675048828125,0.018819015473127365,-0.3160405158996582,0.5632078647613525
1733511669436769300,6.056769287109375,-0.02244059182703495,-0.24196788668632507,0.7442312240600586
1733511669446789400,6.066789306640625,-0.04335785657167435,-0.10870224237442017,0.9367532730102539
1733511669456808400,6.076808349609375,-0.03585227206349373,0.06689009070396423,1.0982595682144165
1733511669466827500,6.08682763671875,-0.01515151932835579,0.2591138780117035,1.1924326419830322
1733511669476846300,6.096846435546875,-0.010947016067802906,0.4008029103279114,1.2270793914794922
1733511669486866200,6.1068662109375,-0.027095891535282135,0.3993251323699951,1.2100071907043457
1733511669496885200,6.11688525390625,-0.05737750977277756,0.26975956559181213,1.165274739265442
1733511669506904000,6.126904052734375,-0.1077064648270607,0.08590905368328094,1.1104730367660522
1733511669516923100,6.136923095703125,-0.16315588355064392,-0.06091658025979996,1.0668916702270508
1733511669526943200,6.146943115234375,-0.25882142782211304,-0.13728351891040802,1.0667182207107544
1733511669536962300,6.15696240234375,-0.3604711890220642,-0.09812778979539871,1.1327906847000122
1733511669546981000,6.166981201171875,-0.42033079266548157,0.09573595970869064,1.2215543985366821
1733511669557000200,6.177000244140625,-0.4627350866794586,0.36997750401496887,1.3098149299621582
1733511669567019300,6.187019287109375,-0.4844560921192169,0.6325603723526001,1.3851637840270996
1733511669577039400,6.197039306640625,-0.4883057177066803,0.8465142250061035,1.4598983526229858
1733511669587058400,6.207058349609375,-0.4755465090274811,1.0060482025146484,1.5782886743545532
1733511669597077200,6.2170771484375,-0.4505438804626465,1.1886924505233765,1.744590163230896
1733511669607096300,6.227096435546875,-0.3868549168109894,1.4346891641616821,1.8785783052444458
1733511669617116200,6.2371162109375,-0.31232625246047974,1.6518760919570923,1.8906899690628052
1733511669627135200,6.24713525390625,-0.2632750868797302,1.7584507465362549,1.79185152053833
1733511669637154000,6.257154052734375,-0.2995794117450714,1.7452505826950073,1.664397120475769
1733511669647173000,6.267173095703125,-0.3902355432510376,1.6967233419418335,1.568105697631836
1733511669657193200,6.277193115234375,-0.4683481454849243,1.6999245882034302,1.4625872373580933
1733511669667212300,6.28721240234375,-0.5265025496482849,1.683779001235962,1.3957030773162842
1733511669677231400,6.2972314453125,-0.5668842196464539,1.6592258214950562,1.3349894285202026
1733511669687250200,6.307250244140625,-0.5834682583808899,1.6897683143615723,1.2197445631027222
1733511669697269200,6.317269287109375,-0.595285177230835,1.6996865272521973,1.071558952331543
1733511669707289300,6.327289306640625,-0.6172794103622437,1.633101224899292,0.9611873626708984
1733511669717308200,6.33730810546875,-0.6178650856018066,1.5242050886154175,0.8752560615539551
1733511669727327200,6.3473271484375,-0.6062813997268677,1.3702943325042725,0.7551467418670654
1733511669737346000,6.357345947265625,-0.6013548970222473,1.2270044088363647,0.6169083714485168
1733511669747366100,6.3673662109375,-0.6205568313598633,1.1211732625961304,0.5430669188499451
1733511669757385200,6.37738525390625,-0.6297809481620789,0.7468535900115967,0.7727366089820862
1733511669767404000,6.387404052734375,-0.5337159633636475,0.004185004159808159,1.7470881938934326
1733511669777423000,6.397423095703125,-0.36134064197540283,1.0172027349472046,2.5172433853149414
1733511669787443200,6.407443115234375,-0.47529464960098267,3.331878185272217,2.132472276687622
1733511669797462300,6.417462158203125,-0.21820318698883057,3.859619140625,1.4022579193115234
1733511669807481300,6.4274814453125,0.10116760432720184,3.1986136436462402,0.39552441239356995
1733511669817500200,6.437500244140625,0.17824608087539673,1.1702055931091309,-0.7183457016944885
1733511669827519200,6.447519287109375,-0.13407321274280548,-1.5791492462158203,-1.3794070482254028
1733511669837539000,6.4575390625,-0.5803565979003906,-3.48898983001709,-1.6586041450500488
1733511669847558100,6.46755810546875,-0.7041690945625305,-4.385800838470459,-1.8112744092941284
1733511669857577000,6.477576904296875,-0.39728066325187683,-4.9795918464660645,-2.0940141677856445
1733511669867596000,6.487595947265625,0.28878238797187805,-5.001160144805908,-2.6680679321289062
1733511669877616000,6.4976162109375,1.2064391374588013,-4.400262832641602,-3.4985098838806152
1733511669887635200,6.50763525390625,1.7969876527786255,-2.940178394317627,-4.348915100097656
1733511669897654300,6.517654296875,1.1926476955413818,-2.487013339996338,-3.0313925743103027
1733511669907673000,6.527673095703125,0.5163226127624512,-2.0843629837036133,-0.9726678729057312
1733511669917693200,6.537693115234375,0.17165616154670715,-1.2393778562545776,-0.4724178910255432
1733511669927712300,6.547712158203125,0.1608884632587433,-0.3790684640407562,-0.6411048769950867
1733511669937731300,6.5577314453125,0.30157023668289185,0.2925916612148285,-0.7735984921455383
1733511669947750100,6.567750244140625,0.43625107407569885,0.8995141386985779,-0.7287005186080933
1733511669957769200,6.577769287109375,0.45173585414886475,1.6463558673858643,-0.6706892848014832
1733511669967789000,6.5877890625,0.35856810212135315,2.3706443309783936,-0.737208902835846
1733511669977808100,6.59780810546875,0.2640742063522339,2.7618486881256104,-0.8862517476081848
1733511669987827200,6.6078271484375,0.13594950735569,2.6524817943573,-1.0793519020080566
1733511669997846000,6.617845947265625,-0.04934149608016014,1.6891728639602661,-1.2291324138641357
1733511670007866000,6.6278662109375,-0.14299874007701874,-0.6047601103782654,-1.5104479789733887
1733511670017885200,6.63788525390625,-0.05506094917654991,-2.4722812175750732,-1.8679380416870117
1733511670027904300,6.647904296875,0.04704411327838898,-2.533747911453247,-2.0726969242095947
1733511670037923000,6.657923095703125,0.05476299673318863,-1.8019388914108276,-2.032670736312866
1733511670047943200,6.667943115234375,-0.015544988214969635,-0.9867085218429565,-1.791454792022705
1733511670057962200,6.677962158203125,-0.14120207726955414,-0.2330913245677948,-1.5155220031738281
1733511670067981300,6.687981201171875,-0.28305160999298096,0.4630161225795746,-1.2885987758636475
1733511670078000400,6.69800048828125,-0.3684832453727722,1.0650746822357178,-1.0465424060821533
1733511670088019200,6.708019287109375,-0.33487603068351746,1.3043838739395142,-0.7972907423973083
1733511670098039000,6.7180390625,-0.24510610103607178,1.1754904985427856,-0.5940719842910767
1733511670108058000,6.72805810546875,-0.20630571246147156,0.8311567902565002,-0.473556250333786
1733511670118077200,6.7380771484375,-0.19907966256141663,0.4062650501728058,-0.4671928584575653
1733511670128096000,6.748095947265625,-0.17685158550739288,0.06346110999584198,-0.5398183465003967
1733511670138116000,6.7581162109375,-0.15017502009868622,-0.14000271260738373,-0.6383705735206604
1733511670148135200,6.76813525390625,-0.135770782828331,-0.244344562292099,-0.7325063943862915
1733511670158154200,6.778154296875,-0.11795570701360703,-0.23277272284030914,-0.8258320689201355
1733511670168173300,6.78817333984375,-0.09040770679712296,-0.16614070534706116,-0.9199833273887634
1733511670178193200,6.798193115234375,-0.05528204143047333,-0.14763642847537994,-0.979176938533783
1733511670188212200,6.808212158203125,0.0023993675131350756,-0.1928880661725998,-0.9642142057418823
1733511670198231300,6.818231201171875,0.07072455435991287,-0.2910548150539398,-0.8733662962913513
1733511670208250400,6.82825048828125,0.13607479631900787,-0.4109521806240082,-0.7356273531913757
1733511670218269200,6.838269287109375,0.18624359369277954,-0.4747941493988037,-0.5956891775131226
1733511670228289000,6.8482890625,0.24832826852798462,-0.4349367618560791,-0.478020042181015
1733511670238308000,6.85830810546875,0.3169593811035156,-0.2871769666671753,-0.39357274770736694
1733511670248327200,6.8683271484375,0.37042713165283203,-0.08552054315805435,-0.3345879912376404
1733511670258346000,6.878345947265625,0.38166502118110657,0.08511602133512497,-0.2647370398044586
1733511670268366000,6.888365966796875,0.34857603907585144,0.16819733381271362,-0.17034371197223663
1733511670278385200,6.89838525390625,0.29138293862342834,0.16883395612239838,-0.06177568435668945
1733511670288404200,6.908404296875,0.2151707112789154,0.16139601171016693,0.039054788649082184
1733511670298423300,6.91842333984375,0.14524972438812256,0.2295912504196167,0.10772855579853058
1733511670308443400,6.928443359375,0.13857130706310272,0.3538282513618469,0.14381065964698792
1733511670318462200,6.938462158203125,0.15682746469974518,0.46478602290153503,0.1643347442150116
1733511670328481300,6.948481201171875,0.1668878197669983,0.5020849704742432,0.19392405450344086
1733511670338500400,6.958500244140625,0.1424952745437622,0.4505779445171356,0.27245911955833435
1733511670348520200,6.968520263671875,0.08027956634759903,0.2993980050086975,0.4157284200191498
1733511670358539000,6.9785390625,0.004858315922319889,0.09010473638772964,0.6110968589782715
1733511670368558000,6.98855810546875,-0.025957120582461357,-0.1294768899679184,0.790462076663971
1733511670378577200,6.9985771484375,-0.023597635328769684,-0.32256320118904114,0.8842781782150269
1733511670388596200,7.00859619140625,-0.021561915054917336,-0.4524727165699005,0.8342123031616211
1733511670398616300,7.0186162109375,-0.02371309883892536,-0.47924378514289856,0.6105225682258606
1733511670408635100,7.02863525390625,-0.0108827855437994,-0.37997710704803467,0.2557881474494934
1733511670418654200,7.038654296875,0.007991060614585876,-0.20670920610427856,-0.12499278783798218
1733511670428673300,7.04867333984375,0.0060924929566681385,-0.05092732980847359,-0.43527236580848694
1733511670438693400,7.058693359375,-0.013925908133387566,0.04853342846035957,-0.5636818408966064
1733511670448712200,7.068712158203125,-0.009804134257137775,0.07754271477460861,-0.5181671380996704
1733511670458731300,7.078731201171875,0.02840552106499672,0.06384186446666718,-0.3988232910633087
1733511670468750300,7.088750244140625,0.07057720422744751,0.06786297261714935,-0.3428356647491455
1733511670478769400,7.098769287109375,0.10954458266496658,0.08389467000961304,-0.42383435368537903
1733511670488788700,7.108788818359375,0.11716122180223465,-0.0021600567270070314,-0.608264148235321
1733511670498807800,7.118807861328125,0.08718603849411011,-0.3498048484325409,-0.6369043588638306
1733511670508827000,7.128826904296875,0.04341139271855354,-0.859334409236908,-0.38112422823905945
1733511670518846000,7.138845947265625,0.03906126320362091,-1.247666835784912,-0.018085617572069168
1733511670528866000,7.148865966796875,0.097044937312603,-1.3944100141525269,0.28898856043815613
1733511670538884900,7.158884765625,0.17210380733013153,-1.3957546949386597,0.4859448969364166
1733511670548904000,7.168904052734375,0.21966654062271118,-1.3656679391860962,0.5756004452705383
1733511670558923000,7.178923095703125,0.24830342829227448,-1.3798539638519287,0.5961208939552307
1733511670568943000,7.188943115234375,0.25316688418388367,-1.4877210855484009,0.5739348530769348
1733511670578962000,7.1989619140625,0.24492564797401428,-1.6802000999450684,0.5445542931556702
1733511670588981000,7.20898095703125,0.23208096623420715,-1.9550795555114746,0.5054079294204712
1733511670599000000,7.219,0.20252683758735657,-2.2609591484069824,0.446943998336792
1733511670609020000,7.22902001953125,0.17430639266967773,-2.5459437370300293,0.38178178668022156
1733511670619039000,7.2390390625,0.14486882090568542,-2.723372220993042,0.34237369894981384
1733511670629057800,7.249057861328125,0.13427743315696716,-2.7721006870269775,0.3490648865699768
1733511670639076900,7.259076904296875,0.13714095950126648,-2.7243480682373047,0.40517643094062805
1733511670649096000,7.269095947265625,0.1412358283996582,-2.597853183746338,0.4731384217739105
1733511670659116000,7.279115966796875,0.1358744353055954,-2.4182822704315186,0.5308151245117188
1733511670669134800,7.289134765625,0.12194157391786575,-2.2191195487976074,0.5655933618545532
1733511670679154000,7.29915380859375,0.1086873859167099,-2.050245523452759,0.5710748434066772
1733511670689173000,7.309173095703125,0.08571815490722656,-1.9152333736419678,0.5717243552207947
1733511670699193000,7.319193115234375,0.058098822832107544,-1.7898997068405151,0.5524304509162903
1733511670709212200,7.329212158203125,0.027735326439142227,-1.7434059381484985,0.5011637806892395
1733511670719231000,7.33923095703125,0.02131326124072075,-1.8232455253601074,0.4380626082420349
1733511670729250000,7.34925,0.02221900224685669,-1.9547394514083862,0.3579152822494507
1733511670739270000,7.359269775390625,0.037103742361068726,-2.1135802268981934,0.2632959187030792
1733511670749289000,7.3692890625,0.05630913004279137,-2.292670726776123,0.15239258110523224
1733511670759307800,7.379307861328125,0.0638224184513092,-2.4479730129241943,0.013707992620766163
1733511670769326800,7.389326904296875,0.06306874006986618,-2.557439088821411,-0.13940006494522095
1733511670779347000,7.399346923828125,0.0527372770011425,-2.6062543392181396,-0.2787020206451416
1733511670789366000,7.409365966796875,0.04250458627939224,-2.620431661605835,-0.39053741097450256
1733511670799384800,7.419384765625,0.04904068261384964,-2.6529297828674316,-0.4543492794036865
1733511670809404000,7.42940380859375,0.05980784446001053,-2.723865270614624,-0.4664083421230316
1733511670819423000,7.439423095703125,0.058580055832862854,-2.7889957427978516,-0.43529126048088074
1733511670829443000,7.449443115234375,0.042328380048274994,-2.7871639728546143,-0.4080180823802948
1733511670839462100,7.459462158203125,0.013581591658294201,-2.690532922744751,-0.41227254271507263
1733511670849481000,7.46948095703125,-0.023239539936184883,-2.5529956817626953,-0.4433135688304901
1733511670859500000,7.4795,-0.06545998901128769,-2.448946475982666,-0.4645381271839142
1733511670869520000,7.489519775390625,-0.10620688647031784,-2.424485206604004,-0.4644864499568939
1733511670879539000,7.4995390625,-0.15842746198177338,-2.4707069396972656,-0.4311825931072235
1733511670889557800,7.509557861328125,-0.2416301965713501,-2.606113910675049,-0.3271046578884125
1733511670899576800,7.519576904296875,-0.30834218859672546,-2.769490957260132,-0.14236591756343842
1733511670909597000,7.529596923828125,-0.29481491446495056,-2.7939295768737793,0.12401650846004486
1733511670919616000,7.539615966796875,-0.20888690650463104,-2.58538818359375,0.42458048462867737
1733511670929635000,7.549635009765625,-0.12353498488664627,-2.1289734840393066,0.7023476958274841
1733511670939654000,7.55965380859375,-0.07919734716415405,-1.5926120281219482,0.8293895721435547
1733511670949673000,7.5696728515625,-0.06738676130771637,-1.2147984504699707,0.7994625568389893
1733511670959693000,7.579693115234375,-0.07764051109552383,-1.1345715522766113,0.6858378052711487
1733511670969712000,7.589712158203125,-0.09076137095689774,-1.2466423511505127,0.5230627059936523
1733511670979731000,7.59973095703125,-0.11427366733551025,-1.4075641632080078,0.35600408911705017
1733511670989750000,7.60975,-0.1253684014081955,-1.4972532987594604,0.208602637052536
1733511670999769900,7.619769775390625,-0.14271707832813263,-1.4870866537094116,0.10834774374961853
1733511671009789000,7.629788818359375,-0.16485488414764404,-1.4618101119995117,0.09308703243732452
1733511671019808000,7.63980810546875,-0.16632886230945587,-1.4417554140090942,0.11663960665464401
1733511671029826800,7.649826904296875,-0.1475711613893509,-1.4190322160720825,0.11310505867004395
1733511671039847000,7.659846923828125,-0.13672208786010742,-1.4103894233703613,0.06154145672917366
1733511671049866000,7.669865966796875,-0.13468582928180695,-1.4487605094909668,-0.01268829870969057
1733511671059885000,7.679885009765625,-0.14340423047542572,-1.5173346996307373,-0.09587905555963516
1733511671069904000,7.68990380859375,-0.16436490416526794,-1.5704184770584106,-0.19188600778579712
1733511671079924000,7.699924072265625,-0.19932018220424652,-1.62505042552948,-0.33787527680397034
1733511671089943000,7.709943115234375,-0.23239530622959137,-1.7452439069747925,-0.5265730023384094
1733511671099962000,7.719962158203125,-0.24781200289726257,-1.9163382053375244,-0.7029018998146057
1733511671109981200,7.729981201171875,-0.22128692269325256,-2.099163293838501,-0.7290298938751221
1733511671120000000,7.74,-0.21226388216018677,-2.5154640674591064,-0.387459933757782
1733511671130019800,7.750019775390625,-0.35786688327789307,-3.281207323074341,0.01743108220398426
1733511671140039000,7.760038818359375,-0.6105614900588989,-3.237506151199341,-0.14954344928264618
1733511671150058000,7.77005810546875,-0.5803481936454773,-2.2457568645477295,-0.3461816906929016
1733511671160076800,7.780076904296875,-0.43650075793266296,-1.2550430297851562,-0.4909425973892212
1733511671170097000,7.790096923828125,-0.2986491620540619,-0.6644641160964966,-0.7482425570487976
1733511671180116000,7.800115966796875,-0.1336846798658371,-0.6176670789718628,-0.8524856567382812
1733511671190135000,7.810135009765625,-0.10996843129396439,-0.9586646556854248,-0.6747268438339233
1733511671200154000,7.820154052734375,-0.17782630026340485,-1.389027714729309,-0.37495186924934387
1733511671210174000,7.830174072265625,-0.17355939745903015,-1.863407850265503,-0.1610097587108612
1733511671220193000,7.840193115234375,-0.05892006307840347,-2.398343324661255,-0.15600351989269257
1733511671230212000,7.850212158203125,0.07866469025611877,-2.822373390197754,-0.31713008880615234
1733511671240231000,7.86023095703125,0.1749752312898636,-2.9459805488586426,-0.5774837732315063
1733511671250250000,7.87025,0.19240935146808624,-2.6957790851593018,-0.9208203554153442
1733511671260269800,7.880269775390625,0.19354602694511414,-2.3414459228515625,-1.2853018045425415
1733511671270289000,7.890288818359375,0.22124770283699036,-2.1168410778045654,-1.5524448156356812
1733511671280308000,7.900307861328125,0.2172907590866089,-2.130063533782959,-1.691098690032959
1733511671290326800,7.910326904296875,0.14159733057022095,-2.368448257446289,-1.6880807876586914
1733511671300347000,7.920346923828125,-0.009314039722084999,-2.633289337158203,-1.6065244674682617
1733511671310366000,7.930365966796875,-0.1444614678621292,-2.6552109718322754,-1.5001163482666016
1733511671320385000,7.940385009765625,-0.18921521306037903,-2.4918429851531982,-1.372568130493164
1733511671330404000,7.950404052734375,-0.1444019377231598,-2.3135504722595215,-1.2507820129394531
1733511671340424000,7.960423828125,-0.08931852132081985,-2.206578254699707,-1.149125576019287
1733511671350443000,7.970443115234375,-0.05090774968266487,-2.1311540603637695,-1.0870816707611084
1733511671360461800,7.9804619140625,-0.031117580831050873,-2.015322685241699,-1.0629757642745972
1733511671370481000,7.99048095703125,-0.05416697636246681,-1.8700950145721436,-1.0581094026565552
1733511671380501000,8.0005009765625,-0.08009384572505951,-1.7647480964660645,-1.0565954446792603
1733511671390519800,8.010519775390625,-0.08255886286497116,-1.707927942276001,-1.0211104154586792
1733511671400539000,8.020538818359375,-0.11264795809984207,-1.6674754619598389,-0.9392759799957275
1733511671410558000,8.030557861328125,-0.17256242036819458,-1.7122714519500732,-0.8751199245452881
1733511671420577000,8.040576904296875,-0.2220836877822876,-1.917429804801941,-0.8813883662223816
1733511671430597000,8.05059716796875,-0.25093159079551697,-2.2359883785247803,-0.988064169883728
1733511671440616000,8.060615966796876,-0.23858489096164703,-2.5689847469329834,-1.1331051588058472
1733511671450635000,8.070635009765626,-0.20390307903289795,-2.8506228923797607,-1.2662118673324585
1733511671460654000,8.080654052734374,-0.14613406360149384,-3.0599443912506104,-1.3891983032226562
1733511671470674000,8.090673828125,-0.09112140536308289,-3.208220958709717,-1.449450969696045
1733511671480692700,8.100692626953125,-0.024091556668281555,-3.2670066356658936,-1.3473572731018066
1733511671490712000,8.110712158203125,0.06248034909367561,-3.1645920276641846,-1.108554482460022
1733511671500731000,8.12073095703125,0.12985588610172272,-2.8198630809783936,-0.870871901512146
1733511671510751000,8.1307509765625,0.15788032114505768,-2.2246580123901367,-0.7407205104827881
1733511671520770000,8.14077001953125,0.12388064712285995,-1.6963331699371338,-0.6070902347564697
1733511671530789000,8.1507890625,0.047931551933288574,-1.4264414310455322,-0.3630274832248688
1733511671540808000,8.160807861328125,0.021112164482474327,-1.2821868658065796,-0.11877376586198807
1733511671550828000,8.170828125,0.07739701122045517,-1.1850049495697021,-0.07367046922445297
1733511671560847000,8.18084716796875,0.16500505805015564,-1.3326771259307861,-0.25247836112976074
1733511671570866200,8.1908662109375,0.19605377316474915,-1.7558428049087524,-0.49869799613952637
1733511671580885200,8.20088525390625,0.15661053359508514,-2.149068832397461,-0.6263034343719482
1733511671590904000,8.210904052734374,0.08714649826288223,-2.364727258682251,-0.5135810971260071
1733511671600924000,8.220923828125,0.03315231204032898,-2.295379638671875,-0.14434517920017242
1733511671610943000,8.23094287109375,-0.008614039979875088,-2.056547164916992,0.3788578510284424
1733511671620962000,8.240962158203125,-0.13785320520401,-1.7387659549713135,0.8666015863418579
1733511671630980900,8.25098095703125,-0.23243190348148346,-1.2071454524993896,1.2230249643325806
1733511671641001000,8.2610009765625,-0.10805054754018784,-0.4710719585418701,1.3742830753326416
1733511671651020000,8.27102001953125,0.12887971103191376,0.20522341132164001,1.2652533054351807
1733511671661039000,8.2810390625,0.19009536504745483,0.4155929684638977,1.0468339920043945
1733511671671058200,8.29105810546875,0.21184700727462769,-0.0026370554696768522,0.8921021819114685
1733511671681078000,8.301078125,0.24438409507274628,-0.6359140276908875,0.7932114601135254
1733511671691097000,8.31109716796875,0.2666209638118744,-1.1174886226654053,0.6465548872947693
1733511671701116200,8.3211162109375,0.2954915463924408,-1.4505937099456787,0.35333195328712463
1733511671711135200,8.33113525390625,0.3690536320209503,-1.6972441673278809,-0.03782060742378235
1733511671721155000,8.341155029296875,0.4493606686592102,-1.8840044736862183,-0.4262922704219818
1733511671731174000,8.351173828125,0.4868409335613251,-2.0052287578582764,-0.7193909883499146
1733511671741193000,8.36119287109375,0.49993449449539185,-2.025059700012207,-0.9088789224624634
1733511671751212000,8.3712119140625,0.5167672634124756,-1.9937382936477661,-1.0293687582015991
1733511671761231000,8.381231201171875,0.5444400906562805,-2.0143895149230957,-1.0846731662750244
1733511671771251000,8.3912509765625,0.5528258681297302,-2.1359825134277344,-1.0551382303237915
1733511671781270000,8.40127001953125,0.5263258218765259,-2.309807300567627,-0.9260955452919006
1733511671791289000,8.4112890625,0.4734988212585449,-2.4007673263549805,-0.7102122902870178
1733511671801308200,8.42130810546875,0.4226170480251312,-2.2929084300994873,-0.4564667344093323
1733511671811328300,8.431328369140624,0.3869147300720215,-2.0199692249298096,-0.2071583867073059
1733511671821347000,8.44134716796875,0.35492315888404846,-1.6918561458587646,-0.00994102843105793
1733511671831366100,8.4513662109375,0.3231998383998871,-1.4116716384887695,0.11198088526725769
1733511671841385200,8.46138525390625,0.28518930077552795,-1.2437224388122559,0.16708286106586456
1733511671851405000,8.471405029296875,0.2537224590778351,-1.1758954524993896,0.18371589481830597
1733511671861423900,8.481423828125,0.2316475212574005,-1.1433089971542358,0.1706962287425995
1733511671871443000,8.49144287109375,0.2267528921365738,-1.1182383298873901,0.13951115310192108
1733511671881462000,8.5014619140625,0.23072443902492523,-1.1307055950164795,0.09251546114683151
1733511671891482000,8.511482177734376,0.23344406485557556,-1.1671289205551147,0.056256260722875595
1733511671901501200,8.521501220703126,0.2277749627828598,-1.197465419769287,0.049111805856227875
1733511671911520000,8.53152001953125,0.20267732441425323,-1.1997156143188477,0.07945054024457932
1733511671921539000,8.5415390625,0.1739703118801117,-1.1574208736419678,0.13139952719211578
1733511671931559200,8.55155908203125,0.1333392709493637,-1.0736327171325684,0.18652349710464478
1733511671941578200,8.561578125,0.09335965663194656,-0.9597650766372681,0.1966404914855957
1733511671951597000,8.57159716796875,0.06007227301597595,-0.8263140916824341,0.14870625734329224
1733511671961616100,8.5816162109375,0.032295409590005875,-0.7112647891044617,0.0596562922000885
1733511671971635200,8.59163525390625,0.005256867967545986,-0.6479199528694153,-0.04565282166004181
1733511671981655000,8.601655029296875,-0.016038788482546806,-0.6337054371833801,-0.139078289270401
1733511671991674000,8.611674072265625,-0.03776245936751366,-0.6596875190734863,-0.1972087025642395
1733511672001693000,8.62169287109375,-0.049115248024463654,-0.7441437244415283,-0.18846866488456726
1733511672011712000,8.6317119140625,-0.050270259380340576,-0.8612682223320007,-0.12711450457572937
1733511672021732000,8.641732177734376,-0.06257206201553345,-0.9570735096931458,-0.008367195725440979
1733511672031751200,8.651751220703124,-0.07076927274465561,-0.981408953666687,0.1532030552625656
1733511672041770000,8.66177001953125,-0.05212735757231712,-0.9072596430778503,0.28640446066856384
1733511672051789000,8.6717890625,-0.019452765583992004,-0.7635349631309509,0.3433420658111572
1733511672061809200,8.68180908203125,-0.0073121655732393265,-0.6750621199607849,0.33090895414352417
1733511672071828200,8.691828125,-0.02225489541888237,-0.7285999059677124,0.2875036895275116
1733511672081847300,8.701847412109375,-0.06168672442436218,-0.8808155655860901,0.243838831782341
1733511672091866000,8.7118662109375,-0.11065533757209778,-1.021653652191162,0.23400403559207916
1733511672101886000,8.721885986328125,-0.13920195400714874,-1.0810518264770508,0.2620258927345276
1733511672111905000,8.731905029296875,-0.14022007584571838,-1.0446290969848633,0.3184681236743927
1733511672121924000,8.741924072265626,-0.1271093338727951,-0.9303917288780212,0.4009619355201721
1733511672131943000,8.75194287109375,-0.11380524188280106,-0.7791172862052917,0.4812690317630768
1733511672141962000,8.7619619140625,-0.11612902581691742,-0.6055708527565002,0.5261679291725159
1733511672151982000,8.771982177734374,-0.14078538119792938,-0.4384761452674866,0.5540674328804016
1733511672162001200,8.782001220703124,-0.15117041766643524,-0.32773730158805847,0.6129555702209473
1733511672172020000,8.79202001953125,-0.13879284262657166,-0.26519110798835754,0.7078642845153809
1733511672182039000,8.8020390625,-0.11290066689252853,-0.21786393225193024,0.8225467205047607
1733511672192059100,8.81205908203125,-0.09389129281044006,-0.14062932133674622,0.9241071939468384
1733511672202078200,8.822078125,-0.10479093343019485,-0.005229052156209946,0.9854692220687866
1733511672212097300,8.83209716796875,-0.13385215401649475,0.1555076241493225,1.0297611951828003
1733511672222116000,8.8421162109375,-0.15258775651454926,0.3301801085472107,1.07223379611969
1733511672232136000,8.852135986328125,-0.14848515391349792,0.48647865653038025,1.1123743057250977
1733511672242155000,8.862155029296876,-0.12755723297595978,0.6164310574531555,1.1197372674942017
1733511672252174000,8.872174072265626,-0.10266119986772537,0.6859246492385864,1.1103332042694092
1733511672262193000,8.88219287109375,-0.095650814473629,0.7067258954048157,1.0745365619659424
1733511672272213000,8.892212890625,-0.12830063700675964,0.7049906253814697,1.0331283807754517
1733511672282232000,8.902232177734374,-0.20209379494190216,0.6988365054130554,1.0170091390609741
1733511672292251100,8.912251220703125,-0.27094343304634094,0.7184959650039673,1.0287585258483887
1733511672302270200,8.922270263671875,-0.3145754039287567,0.8174055218696594,1.0239675045013428
1733511672312289000,8.9322890625,-0.32397741079330444,0.9436167478561401,0.9977865219116211
1733511672322309000,8.94230908203125,-0.3147719204425812,0.9865036606788635,0.9681414365768433
1733511672332328200,8.952328125,-0.2941552996635437,0.8644754886627197,0.9204314351081848
1733511672342347300,8.96234716796875,-0.27671417593955994,0.438619464635849,0.9658464789390564
1733511672352366000,8.972365966796875,-0.2481837421655655,-0.14738917350769043,1.2774568796157837
1733511672362386000,8.982385986328126,-0.291240394115448,-0.12237357348203659,1.6517568826675415
1733511672372405000,8.992405029296876,-0.430586040019989,0.5389148592948914,1.691236972808838
1733511672382424000,9.002424072265624,-0.5662320852279663,1.1082003116607666,1.218048095703125
1733511672392443100,9.012443115234374,-0.6603093147277832,1.2197123765945435,0.6267402172088623
1733511672402463000,9.022462890625,-0.6391492486000061,1.045884609222412,0.23582272231578827
1733511672412482000,9.03248193359375,-0.5160835385322571,1.0917866230010986,-0.2705978453159332
1733511672422501000,9.042501220703125,-0.5651022791862488,0.8489283919334412,-1.0974940061569214
1733511672432520200,9.052520263671875,-0.6822406053543091,-0.35723745822906494,-1.7439361810684204
1733511672442540300,9.062540283203125,-0.6574666500091553,-1.951132893562317,-1.9874056577682495
1733511672452559000,9.07255908203125,-0.5713840126991272,-3.522021770477295,-2.171085834503174
1733511672462578200,9.082578125,-0.4991714358329773,-5.220264434814453,-2.8483662605285645
1733511672472597200,9.09259716796875,-0.09930818527936935,-5.264199256896973,-3.052732229232788
1733511672482617000,9.1026171875,0.3567603528499603,-4.037853240966797,-1.963442087173462
1733511672492636200,9.11263623046875,0.44676825404167175,-2.1856484413146973,-1.2428900003433228
1733511672502655200,9.1226552734375,0.2710888385772705,-1.059754490852356,-1.052472472190857
1733511672512674300,9.13267431640625,0.11269202828407288,-0.6658031940460205,-1.0398650169372559
1733511672522694400,9.1426943359375,0.05621848255395889,-0.5186892151832581,-1.0586097240447998
1733511672532713500,9.15271337890625,0.02870004251599312,-0.566893994808197,-1.1554625034332275
1733511672542732300,9.162732177734375,0.022403700277209282,-0.8917390704154968,-1.2970396280288696
1733511672552751400,9.17275146484375,0.26699718832969666,-1.2573440074920654,-1.3184785842895508
1733511672562770400,9.1827705078125,0.4809585213661194,-1.6642571687698364,-1.3325401544570923
1733511672572790300,9.192790283203125,0.6131501197814941,-1.768359661102295,-1.3726906776428223
1733511672582809000,9.20280908203125,0.7276185750961304,-1.5429272651672363,-1.3922995328903198
1733511672592828200,9.212828125,0.7320088148117065,-1.2441227436065674,-1.3253684043884277
1733511672602847200,9.22284716796875,0.6706356406211853,-0.8497419953346252,-1.2179174423217773
1733511672612867300,9.232867431640624,0.5347574353218079,-0.22227753698825836,-1.1351743936538696
1733511672622886400,9.242886474609374,0.2762785851955414,0.32796308398246765,-1.1567318439483643
1733511672632905200,9.2529052734375,0.16194534301757812,0.505795955657959,-1.3459895849227905
1733511672642924300,9.26292431640625,0.062263790518045425,0.4974961578845978,-1.3909531831741333
1733511672652944400,9.2729443359375,-0.0994071289896965,0.22997577488422394,-1.3804669380187988
1733511672662963500,9.28296337890625,-0.2194218635559082,-0.4277880787849426,-1.417386531829834
1733511672672982300,9.292982177734375,-0.35688623785972595,-1.0935817956924438,-1.5558357238769531
1733511672683001300,9.30300146484375,-0.5174691081047058,-1.4977622032165527,-1.7654036283493042
1733511672693021200,9.313021240234375,-0.5957396626472473,-1.8103851079940796,-1.8533875942230225
1733511672703040300,9.323040283203126,-0.5606489777565002,-2.006093978881836,-1.7514673471450806
1733511672713059300,9.333059326171876,-0.4350937306880951,-2.009098768234253,-1.5518977642059326
1733511672723078100,9.343078125,-0.30196210741996765,-1.678942084312439,-1.3733807802200317
1733511672733098200,9.35309814453125,-0.22741863131523132,-0.9743149876594543,-1.2723151445388794
1733511672743117300,9.363117431640624,-0.1814395934343338,-0.10127921402454376,-1.1550140380859375
1733511672753136400,9.373136474609375,-0.09128493070602417,0.5643174648284912,-0.9108919501304626
1733511672763155200,9.3831552734375,0.06657148152589798,0.8019202947616577,-0.6654377579689026
1733511672773174300,9.39317431640625,0.19889463484287262,0.5191764831542969,-0.5881105065345764
1733511672783194400,9.4031943359375,0.25524553656578064,-0.3592824637889862,-0.6722277998924255
1733511672793213400,9.41321337890625,0.2348795384168625,-1.5104575157165527,-0.6772976517677307
1733511672803232500,9.423232421875,0.17548301815986633,-2.2269628047943115,-0.5540252327919006
1733511672813251300,9.433251220703125,0.14342042803764343,-2.300302505493164,-0.350547194480896
1733511672823271200,9.443271240234376,0.19143913686275482,-1.9075119495391846,-0.06991509348154068
1733511672833290200,9.453290283203126,0.32764917612075806,-1.3491847515106201,0.2824120819568634
1733511672843309300,9.463309326171874,0.5128479599952698,-0.921826958656311,0.7063403129577637
1733511672853328100,9.473328125,0.6229190826416016,-0.8001692295074463,1.141151785850525
1733511672863348200,9.48334814453125,0.6351410746574402,-0.7978623509407043,1.5179083347320557
1733511672873367300,9.4933671875,0.649873673915863,-0.6486161351203918,1.7546164989471436
1733511672883386400,9.503386474609375,0.6981093287467957,-0.2896144986152649,1.7819108963012695
1733511672893405400,9.513405517578125,0.6778027415275574,0.2547295093536377,1.5578608512878418
1733511672903425300,9.52342529296875,0.42223942279815674,1.0770493745803833,1.2197957038879395
1733511672913444400,9.5334443359375,0.12305191159248352,2.090151309967041,0.9836732149124146
1733511672923463400,9.54346337890625,-0.10010693967342377,2.686164379119873,0.9043983221054077
1733511672933482500,9.553482421875,-0.21555976569652557,2.4262242317199707,0.8884888291358948
1733511672943502300,9.56350244140625,-0.26285526156425476,1.4754507541656494,0.7591953277587891
1733511672953521200,9.573521240234374,-0.23106509447097778,0.2710902690887451,0.5081385970115662
1733511672963540200,9.583540283203124,-0.15926505625247955,-0.7100709080696106,0.23017244040966034
1733511672973559300,9.593559326171874,-0.11425362527370453,-1.2630208730697632,0.04364944249391556
1733511672983578000,9.603578125,-0.12589339911937714,-1.4507721662521362,-0.13494843244552612
1733511672993598200,9.61359814453125,-0.19034962356090546,-1.3555463552474976,-0.4040491580963135
1733511673003617300,9.6236171875,-0.2685045301914215,-1.038671612739563,-0.7176561951637268
1733511673013636400,9.63363623046875,-0.299698144197464,-0.6740763187408447,-0.946278989315033
1733511673023655400,9.643655517578125,-0.22435957193374634,-0.39884597063064575,-0.9907671809196472
1733511673033675500,9.653675537109375,-0.07408059388399124,-0.286639004945755,-0.8562516570091248
1733511673043694300,9.6636943359375,0.11504468321800232,-0.35562533140182495,-0.6212875843048096
1733511673053713400,9.67371337890625,0.29147592186927795,-0.5628331303596497,-0.3473662734031677
1733511673063732500,9.683732421875,0.4179397225379944,-0.821293830871582,-0.11377587169408798
1733511673073752300,9.69375244140625,0.5016292929649353,-1.0348879098892212,0.028089646250009537
1733511673083771100,9.703771240234374,0.5699501633644104,-1.1691747903823853,0.07928067445755005
1733511673093790200,9.713790283203124,0.6070243120193481,-1.2186675071716309,0.10170821845531464
1733511673103809300,9.723809326171875,0.575339138507843,-1.1379231214523315,0.13287365436553955
1733511673113829400,9.733829345703125,0.47879156470298767,-0.9059479236602783,0.1758437603712082
1733511673123848400,9.743848388671875,0.3339384198188782,-0.575137734413147,0.22171393036842346
1733511673133867300,9.7538671875,0.16684050858020782,-0.3170883357524872,0.30527809262275696
1733511673143886300,9.76388623046875,0.007957237772643566,-0.3333832621574402,0.410623699426651
1733511673153906400,9.773906494140626,-0.10306781530380249,-0.5547183752059937,0.4834185540676117
1733511673163925500,9.783925537109376,-0.1858598291873932,-0.7413915991783142,0.4804726839065552
1733511673173944300,9.7939443359375,-0.2561768591403961,-0.8099395036697388,0.3963727355003357
1733511673183963400,9.80396337890625,-0.3185044527053833,-0.8548981547355652,0.28241589665412903
1733511673193983200,9.813983154296874,-0.38117048144340515,-0.9936318397521973,0.20670540630817413
1733511673204002300,9.824002197265624,-0.4549553096294403,-1.2023898363113403,0.21730943024158478
1733511673214021000,9.834021240234375,-0.5339569449424744,-1.310605525970459,0.31818172335624695
1733511673224040200,9.844040283203125,-0.5761711001396179,-1.1631600856781006,0.504326343536377
1733511673234060300,9.854060302734375,-0.5442839860916138,-0.7675121426582336,0.783541738986969
1733511673244079400,9.864079345703125,-0.42907214164733887,-0.2980179786682129,1.1110856533050537
1733511673254098400,9.874098388671875,-0.2633654773235321,0.09305552393198013,1.4127126932144165
1733511673264117200,9.8841171875,-0.11873918771743774,0.29407426714897156,1.6143115758895874
1733511673274136300,9.89413623046875,-0.0662916898727417,0.3024269938468933,1.706164002418518
1733511673284156400,9.904156494140626,-0.07694702595472336,0.219173401594162,1.6943563222885132
1733511673294175500,9.914175537109376,-0.09574467688798904,0.12699367105960846,1.5754005908966064
1733511673304194300,9.9241943359375,-0.10742833465337753,0.0842585489153862,1.408890962600708
1733511673314213400,9.93421337890625,-0.13135577738285065,0.10310334712266922,1.2633084058761597
1733511673324233200,9.944233154296874,-0.1748664677143097,0.14892782270908356,1.1670706272125244
1733511673334252300,9.954252197265625,-0.24947625398635864,0.18331694602966309,1.1013633012771606
1733511673344271400,9.964271240234375,-0.3210891783237457,0.21063965559005737,1.053672194480896
1733511673354290200,9.974290283203125,-0.33755478262901306,0.328108012676239,1.06300687789917
1733511673364310300,9.984310302734375,-0.31610405445098877,0.45382994413375854,1.0840257406234741
1733511673374329300,9.994329345703125,-0.295693576335907,0.572891891002655,1.072381854057312
1733511673384348400,10.004348388671875,-0.2850814461708069,0.6875109076499939,1.030397653579712
1733511673394367200,10.0143671875,-0.2558649778366089,0.7703288197517395,0.9905247688293457
1733511673404387300,10.02438720703125,-0.21568331122398376,0.8253389000892639,0.9535296559333801
1733511673414406400,10.034406494140624,-0.19052177667617798,0.8816149830818176,0.909086287021637
1733511673424425500,10.044425537109374,-0.17677542567253113,0.9390458464622498,0.8408071994781494
1733511673434444500,10.054444580078124,-0.19062066078186035,0.9859135150909424,0.7410595417022705
1733511673444464000,10.064464111328125,-0.21685677766799927,1.0019760131835938,0.6128171682357788
1733511673454483200,10.074483154296875,-0.2564172148704529,0.9644811749458313,0.47262275218963623
1733511673464502300,10.084502197265625,-0.30264222621917725,0.8836590051651001,0.3334086239337921
1733511673474521300,10.094521240234375,-0.33576634526252747,0.7719098329544067,0.1907595843076706
1733511673484540200,10.1045400390625,-0.3584383428096771,0.6585075855255127,0.04764121398329735
1733511673494559700,10.114559814453125,-0.3659979999065399,0.49608084559440613,-0.036934658885002136
1733511673504578800,10.124578857421875,-0.3355881869792938,0.2672269940376282,0.016991306096315384
1733511673514598000,10.134597900390625,-0.2822389304637909,-0.032614339143037796,0.36703693866729736
1733511673524616700,10.14461669921875,-0.21429228782653809,-0.17218512296676636,1.132163405418396
1733511673534636800,10.15463671875,-0.08419608324766159,0.23203745484352112,2.2830252647399902
1733511673544656000,10.16465576171875,0.062386561185121536,1.7475693225860596,2.496279239654541
1733511673554675000,10.174675048828124,0.062379371374845505,2.767127513885498,1.970407247543335
1733511673564694000,10.184694091796874,0.03786494955420494,2.813488721847534,1.2464535236358643
1733511673574713600,10.194713623046875,-0.06361294537782669,2.6528162956237793,0.760652482509613
1733511673584732700,10.204732666015625,-0.11141179502010345,1.8714771270751953,0.7549672722816467
1733511673594751700,10.214751708984375,-0.12272384017705917,1.1242015361785889,0.6416100859642029
1733511673604770800,10.224770751953125,-0.27935928106307983,1.0387316942214966,0.15883371233940125
1733511673614791000,10.234791015625,-0.5739619135856628,0.5286216139793396,-0.1815134733915329
1733511673624809700,10.244809814453125,-0.7931093573570251,-0.9398316740989685,-0.23489753901958466
1733511673634828800,10.254828857421876,-0.8665188550949097,-1.832748532295227,-0.3700433671474457
1733511673644847900,10.264847900390626,-0.9174660444259644,-2.100372314453125,-0.7698948979377747
1733511673654868000,10.274867919921874,-0.8554495573043823,-1.581591010093689,-1.2427889108657837
1733511673664886800,10.28488671875,-0.731930136680603,-0.5937115550041199,-0.9550958871841431
1733511673674905900,10.29490576171875,-0.5073891878128052,0.15389370918273926,-0.4842572510242462
1733511673684925000,10.304925048828125,-0.2261132150888443,0.5053123831748962,-0.33525121212005615
1733511673694944800,10.31494482421875,-0.14681653678417206,0.4156130850315094,-0.46621403098106384
1733511673704963800,10.3249638671875,-0.23018178343772888,0.04503719508647919,-0.5753678679466248
1733511673714982700,10.334982666015625,-0.3486993610858917,-0.18850179016590118,-0.7062707543373108
1733511673725001700,10.345001708984375,-0.41802462935447693,-0.12929198145866394,-0.8543025255203247
1733511673735021800,10.355021728515625,-0.46236175298690796,-0.009932562708854675,-0.9258456826210022
1733511673745041000,10.365041015625,-0.487514466047287,-0.06335267424583435,-1.0140899419784546
1733511673755059700,10.375059814453126,-0.4640568196773529,-0.3476070463657379,-1.2162067890167236
1733511673765078800,10.385078857421876,-0.3943546712398529,-0.7026695609092712,-1.5159426927566528
1733511673775097900,10.395097900390626,-0.315822035074234,-1.0584771633148193,-1.8081969022750854
1733511673785118000,10.405117919921874,-0.226182222366333,-1.3848741054534912,-2.00093936920166
1733511673795137000,10.415136962890625,-0.10694850236177444,-1.6152842044830322,-2.049038887023926
1733511673805155800,10.42515576171875,0.04784083366394043,-1.6729395389556885,-1.9407143592834473
1733511673815175000,10.4351748046875,0.22375114262104034,-1.4941210746765137,-1.7041876316070557
1733511673825194800,10.44519482421875,0.31294015049934387,-1.0472378730773926,-1.43451726436615
1733511673835213800,10.4552138671875,0.3183192014694214,-0.6305386424064636,-1.2028428316116333
1733511673845232600,10.465232666015625,0.2907390892505646,-0.32264935970306396,-1.0543954372406006
1733511673855251700,10.475251708984375,0.30312973260879517,-0.007084758020937443,-1.0574461221694946
1733511673865271800,10.485271728515626,0.45594367384910583,0.2600194811820984,-0.9767268896102905
1733511673875291000,10.495290771484376,0.5209040641784668,0.17711499333381653,-0.894658088684082
1733511673885310000,10.50531005859375,0.4391077160835266,-0.20680712163448334,-1.0355710983276367
1733511673895328800,10.515328857421874,0.3550088107585907,-0.6516255736351013,-1.3553200960159302
1733511673905348900,10.525348876953124,0.2839489281177521,-1.1109254360198975,-1.6242005825042725
1733511673915368000,10.535367919921875,0.14507892727851868,-1.3708715438842773,-1.824864149093628
1733511673925387000,10.545386962890625,0.09997746348381042,-1.4691615104675293,-1.9200528860092163
1733511673935405800,10.55540576171875,0.12211339175701141,-1.51960027217865,-1.8734004497528076
1733511673945425700,10.56542578125,0.1074775755405426,-1.5797406435012817,-1.756066083908081
1733511673955444700,10.57544482421875,0.055040471255779266,-1.5545694828033447,-1.6244604587554932
1733511673965463800,10.5854638671875,-0.0016389803495258093,-1.436734914779663,-1.5255036354064941
1733511673975483000,10.59548291015625,-0.09594976902008057,-1.2339657545089722,-1.4019044637680054
1733511673985502700,10.605502685546876,-0.1791708618402481,-1.0795725584030151,-1.169325351715088
1733511673995521800,10.615521728515626,-0.19844070076942444,-0.9258428812026978,-0.8872864246368408
1733511674005540900,10.625540771484374,-0.16833017766475677,-0.6748407483100891,-0.658379852771759
1733511674015560000,10.635559814453124,-0.17456597089767456,-0.40595099329948425,-0.4224399924278259
1733511674025578800,10.645578857421874,-0.2107449620962143,-0.1987658590078354,-0.12362567335367203
1733511674035598800,10.655598876953125,-0.1667386144399643,0.01440872997045517,0.17305205762386322
1733511674045618000,10.665617919921875,-0.04252983257174492,0.33101779222488403,0.3841552138328552
1733511674055637000,10.675636962890625,0.1321048140525818,0.6869804263114929,0.4663752317428589
1733511674065656800,10.68565673828125,0.3301461637020111,0.8914724588394165,0.44684895873069763
1733511674075675600,10.695675537109375,0.4943244457244873,0.757923424243927,0.39153963327407837
1733511674085694700,10.70569482421875,0.6101133227348328,0.27474746108055115,0.3009161651134491
1733511674095713800,10.7157138671875,0.6864414215087891,-0.3377883732318878,0.148007333278656
1733511674105732900,10.72573291015625,0.7318893671035767,-0.7921538352966309,-0.06678571552038193
1733511674115753000,10.7357529296875,0.6997871398925781,-0.8097298741340637,-0.30915096402168274
1733511674125771800,10.745771728515624,0.5439674258232117,-0.1599593162536621,-0.5315835475921631
1733511674135790800,10.755790771484374,0.39283329248428345,1.0100573301315308,-0.6972105503082275
1733511674145810000,10.765809814453124,0.3193295896053314,2.2576944828033447,-0.833187460899353
1733511674155830000,10.775830078125,0.28072813153266907,3.029388427734375,-0.9422454833984375
1733511674165848800,10.785848876953125,0.2339954823255539,3.075082540512085,-1.035549521446228
1733511674175868000,10.795867919921875,0.17410045862197876,2.360912561416626,-1.129535436630249
1733511674185887000,10.805886962890625,0.07340092957019806,0.9492267966270447,-1.2215824127197266
1733511674195906800,10.81590673828125,-0.06528051942586899,-0.9173697829246521,-1.2268768548965454
1733511674205926000,10.82592578125,-0.24451345205307007,-2.3384652137756348,-1.003587007522583
1733511674215944700,10.83594482421875,-0.3773338198661804,-3.006443738937378,-0.7127299904823303
1733511674225963800,10.8459638671875,-0.44629374146461487,-3.0662779808044434,-0.5663617849349976
1733511674235984000,10.85598388671875,-0.47399061918258667,-2.587825298309326,-0.6404629349708557
1733511674246003000,10.8660029296875,-0.42455440759658813,-1.7599257230758667,-0.6975928544998169
1733511674256021800,10.876021728515624,-0.27059468626976013,-0.9888192415237427,-0.5099931359291077
1733511674266040800,10.886040771484375,-0.08355338871479034,-0.530167281627655,-0.07050956785678864
1733511674276061000,10.89606103515625,0.05415388196706772,-0.3867049217224121,0.44676339626312256
1733511674286080000,10.906080078125,0.13669328391551971,-0.39619651436805725,0.9049614071846008
1733511674296098800,10.916098876953125,0.18587814271450043,-0.4264260530471802,1.2795193195343018
1733511674306118000,10.926117919921875,0.20290639996528625,-0.510638952255249,1.5979869365692139
1733511674316137700,10.9361376953125,0.19683946669101715,-0.6632303595542908,1.8206535577774048
1733511674326156800,10.94615673828125,0.18275819718837738,-0.8511860966682434,1.8603719472885132
1733511674336175900,10.95617578125,0.18028412759304047,-1.0472956895828247,1.6484575271606445
1733511674346194700,10.966194580078126,0.1764666736125946,-1.2171306610107422,1.2564246654510498
1733511674356213800,10.9762138671875,0.17834660410881042,-1.3185750246047974,0.8672580122947693
1733511674366233900,10.98623388671875,0.13464771211147308,-1.398152470588684,0.6260972619056702
1733511674376253000,10.9962529296875,0.02159785106778145,-1.6146727800369263,0.5655348896980286
1733511674386271700,11.006271728515625,-0.11020586639642715,-1.9104018211364746,0.5840708017349243
1733511674396290800,11.016290771484375,-0.2729455232620239,-2.106205463409424,0.6279929280281067
1733511674406311000,11.026310791015625,-0.4240151643753052,-2.101539373397827,0.6796523332595825
1733511674416330000,11.036330078125,-0.5090195536613464,-1.8921643495559692,0.7555798888206482
1733511674426348800,11.046348876953125,-0.5425262451171875,-1.4613559246063232,0.9052640795707703
1733511674436368000,11.056367919921875,-0.5395970344543457,-0.8712500929832458,1.1633598804473877
1733511674446387700,11.0663876953125,-0.4966042935848236,-0.21792134642601013,1.467239499092102
1733511674456406800,11.07640673828125,-0.4384150207042694,0.4197928309440613,1.7307406663894653
1733511674466425900,11.08642578125,-0.38502269983291626,0.9410731196403503,1.8918536901474
1733511674476444700,11.096444580078124,-0.3674170672893524,1.280752420425415,1.9616719484329224
1733511674486464800,11.10646484375,-0.3712557852268219,1.5120065212249756,1.986287236213684
1733511674496483800,11.11648388671875,-0.3777083456516266,1.645279049873352,1.9963191747665405
1733511674506503000,11.1265029296875,-0.37402334809303284,1.6643092632293701,1.952592372894287
1733511674516521700,11.136521728515625,-0.35184720158576965,1.6003824472427368,1.8334697484970093
1733511674526541800,11.146541748046875,-0.3298637568950653,1.5031882524490356,1.6572577953338623
1733511674536561000,11.156560791015625,-0.35584795475006104,1.4238979816436768,1.4503203630447388
1733511674546579700,11.166579833984375,-0.41975703835487366,1.3826042413711548,1.2386456727981567
1733511674556598800,11.176598876953125,-0.4691144526004791,1.347896695137024,1.0635327100753784
1733511674566618600,11.18661865234375,-0.4614819288253784,1.3028059005737305,0.947321355342865
1733511674576637700,11.1966376953125,-0.4349065124988556,1.2764872312545776,0.872986376285553
1733511674586656800,11.20665673828125,-0.41435855627059937,1.3142579793930054,0.8395084142684937
1733511674596675800,11.21667578125,-0.3660866320133209,1.4166970252990723,0.8643612861633301
1733511674606696000,11.226696044921875,-0.28480640053749084,1.5346791744232178,0.9282121062278748
1733511674616714800,11.23671484375,-0.200304314494133,1.5809478759765625,0.9659458994865417
1733511674626733800,11.24673388671875,-0.16601918637752533,1.5012578964233398,0.9056152105331421
1733511674636753000,11.2567529296875,-0.1594664752483368,1.3534047603607178,0.7741773128509521
1733511674646772700,11.266772705078125,-0.18516428768634796,1.1373021602630615,0.6022794842720032
1733511674656791800,11.276791748046875,-0.2481515109539032,0.8417903184890747,0.400642454624176
1733511674666810600,11.286810546875,-0.309524804353714,0.5616177320480347,0.21842031180858612
1733511674676829700,11.29682958984375,-0.33252227306365967,0.33283570408821106,0.14529763162136078
1733511674686849800,11.306849853515626,-0.2832183241844177,0.18705134093761444,0.32751378417015076
1733511674696868900,11.316868896484374,-0.12297353893518448,0.0418107844889164,0.9391908049583435
1733511674706887700,11.3268876953125,0.04103892669081688,0.20656901597976685,1.5072966814041138
1733511674716906800,11.33690673828125,0.10785337537527084,0.30569905042648315,1.722162127494812
1733511674726925800,11.34692578125,0.18051302433013916,-0.14719821512699127,1.9061170816421509
1733511674736946000,11.35694580078125,-0.07509743422269821,0.9946594834327698,1.1573623418807983
1733511674746964700,11.36696484375,-0.0411025695502758,1.5994712114334106,0.9161834716796875
1733511674756983800,11.37698388671875,0.34604328870773315,1.6903343200683594,0.5915481448173523
1733511674767003000,11.3870029296875,0.4843462407588959,0.8576448559761047,-0.24800147116184235
1733511674777022700,11.397022705078125,0.2582031190395355,-0.6447721123695374,-0.47348520159721375
1733511674787041800,11.407041748046876,-0.09517723321914673,-1.544082760810852,-0.14377300441265106
1733511674797060600,11.417060546875,-0.3379558026790619,-1.6018321514129639,0.01332952082157135
1733511674807079700,11.42707958984375,-0.44683200120925903,-1.3532737493515015,-0.5290737152099609
1733511674817099800,11.437099853515624,-0.545174777507782,-1.1149013042449951,-1.7435035705566406
1733511674827118800,11.447118896484374,-0.4961385726928711,-1.6106115579605103,-2.3953661918640137
1733511674837137700,11.4571376953125,-0.2521378695964813,-2.4089770317077637,-2.445620536804199
1733511674847156700,11.46715673828125,0.09779732674360275,-3.070103883743286,-2.267073631286621
1733511674857176800,11.4771767578125,0.3668711483478546,-3.2433009147644043,-2.092142343521118
1733511674867196000,11.48719580078125,0.4566028416156769,-2.824664831161499,-1.9423657655715942
1733511674877214700,11.497214599609375,0.3911181092262268,-1.9861092567443848,-1.808197259902954
1733511674887233800,11.50723388671875,0.2444567233324051,-1.0236313343048096,-1.6458324193954468
1733511674897253600,11.517253662109376,0.10677102208137512,-0.2692717909812927,-1.4522839784622192
1733511674907272700,11.527272705078126,0.08645526319742203,0.14076536893844604,-1.2456684112548828
1733511674917291800,11.537291748046876,0.2093055546283722,0.3036653399467468,-1.075143575668335
1733511674927310600,11.547310546875,0.3295176029205322,0.412564754486084,-1.0078593492507935
1733511674937330700,11.55733056640625,0.37998664379119873,0.5600394010543823,-1.0143389701843262
1733511674947349800,11.567349853515625,0.4359186589717865,0.6914802193641663,-1.0233993530273438
1733511674957368800,11.577368896484375,0.4047200083732605,0.739997923374176,-1.0132108926773071
1733511674967387600,11.5873876953125,0.374448299407959,0.6958732008934021,-1.0027226209640503
1733511674977407700,11.59740771484375,0.2981891930103302,0.6161059141159058,-1.0479910373687744
1733511674987426800,11.6074267578125,0.2106807827949524,0.5329376459121704,-1.122394323348999
1733511674997446000,11.61744580078125,0.19645816087722778,0.42122340202331543,-1.1777448654174805
1733511675007465000,11.62746484375,0.20479997992515564,0.3666011691093445,-1.1644984483718872
1733511675017484500,11.637484619140626,0.1966448426246643,0.4712700843811035,-1.096985936164856
1733511675027503600,11.647503662109376,0.17775727808475494,0.6358758807182312,-0.949350893497467
1733511675037522700,11.657522705078126,0.14002613723278046,0.7602458000183105,-0.7213425040245056
1733511675047541800,11.667541748046874,0.06382081657648087,0.8218474388122559,-0.5612001419067383
1733511675057561900,11.677561767578124,-0.006879986263811588,0.7745957970619202,-0.5958563685417175
1733511675067580700,11.68758056640625,-0.04390455782413483,0.611351728439331,-0.7726423144340515
1733511675077599700,11.697599853515625,-0.0967097133398056,0.260936439037323,-0.9352421760559082
1733511675087618800,11.707618896484375,-0.15933126211166382,-0.17554768919944763,-1.0219206809997559
1733511675097639000,11.717638916015625,-0.1795012354850769,-0.5169939398765564,-1.0857771635055542
1733511675107657700,11.72765771484375,-0.1288396120071411,-0.7045378088951111,-1.195510983467102
1733511675117676800,11.7376767578125,-0.019942691549658775,-0.7857069373130798,-1.3369858264923096
1733511675127696000,11.74769580078125,0.07013703882694244,-0.8342504501342773,-1.4286960363388062
1733511675137715000,11.75771484375,0.07979205995798111,-0.8741129040718079,-1.404865026473999
1733511675147734800,11.76773486328125,0.053393714129924774,-0.8555671572685242,-1.2959043979644775
1733511675157753600,11.777753662109374,0.02359960228204727,-0.7189052104949951,-1.1362673044204712
1733511675167772700,11.787772705078124,0.012656429782509804,-0.5007249116897583,-0.936601996421814
1733511675177791700,11.797791748046874,0.06284104287624359,-0.3387671709060669,-0.6502434611320496
1733511675187811800,11.807811767578125,0.15806668996810913,-0.30888527631759644,-0.2850600481033325
1733511675197830700,11.81783056640625,0.21964296698570251,-0.40252575278282166,0.08013258129358292
1733511675207849700,11.827849609375,0.22411930561065674,-0.5337567925453186,0.3220975995063782
1733511675217868800,11.837868896484375,0.2189176082611084,-0.5453346371650696,0.4054393470287323
1733511675227889000,11.847888916015625,0.14908505976200104,-0.2989709973335266,0.36935320496559143
1733511675237908000,11.857907958984375,0.06910660862922668,0.16800391674041748,0.3086608350276947
1733511675247926800,11.8679267578125,0.08853107690811157,0.7160865664482117,0.25761866569519043
1733511675257945900,11.87794580078125,0.13532733917236328,1.2092012166976929,0.20235326886177063
1733511675267965700,11.887965576171876,0.16918626427650452,1.5586943626403809,0.10376162827014923
1733511675277984800,11.89798486328125,0.14881546795368195,1.6798850297927856,-0.039417099207639694
1733511675288003600,11.908003662109374,0.1009061336517334,1.4545176029205322,-0.2076827585697174
1733511675298022700,11.918022705078124,0.08983297646045685,0.9040819406509399,-0.3651474714279175
1733511675308042800,11.928042724609375,0.10560958832502365,0.14252668619155884,-0.4930342137813568
1733511675318061800,11.938061767578125,0.10850870609283447,-0.6035246253013611,-0.5520358085632324
1733511675328081000,11.948080810546875,0.10916063189506531,-0.9566559791564941,-0.5749252438545227
1733511675338099700,11.958099609375,0.09100958704948425,-0.7412709593772888,-0.6881237030029297
1733511675348119800,11.968119873046875,0.05911307409405708,-0.0661904439330101,-1.0920298099517822
1733511675358139000,11.978138916015626,0.0839768797159195,0.5015206336975098,-1.6066595315933228
1733511675368158000,11.988157958984376,0.1696302890777588,0.34251099824905396,-1.7231534719467163
1733511675378176800,11.9981767578125,0.23307636380195618,-0.39188575744628906,-1.4867931604385376
1733511675388196600,12.008196533203124,0.22488202154636383,-1.2710697650909424,-1.007034182548523
1733511675398215700,12.018215576171874,0.18155264854431152,-1.8640739917755127,-0.356492817401886
1733511675408234800,12.02823486328125,0.16569830477237701,-1.84841787815094,0.30650386214256287
1733511675418253800,12.03825390625,0.16304366290569305,-1.3912839889526367,0.8544926643371582
1733511675428273700,12.048273681640625,0.14556115865707397,-0.84529048204422,1.3001471757888794
1733511675438292700,12.058292724609375,0.1456250697374344,-0.3730824887752533,1.6327203512191772
1733511675448311800,12.068311767578125,0.14882837235927582,-0.06618785858154297,1.820544958114624
1733511675458331000,12.078330810546875,0.14812423288822174,-0.004723701626062393,1.8930175304412842
1733511675468351000,12.08835107421875,0.14900986850261688,-0.16313768923282623,1.89276123046875
1733511675478369800,12.098369873046876,0.155723437666893,-0.4000146687030792,1.8037607669830322
1733511675488388900,12.108388916015626,0.15310871601104736,-0.6040809750556946,1.609671711921692
1733511675498408000,12.118407958984376,0.14639994502067566,-0.7764868140220642,1.343360185623169
1733511675508427000,12.128427001953124,0.11369480192661285,-0.8329957127571106,1.0626647472381592
1733511675518446800,12.13844677734375,0.05553056672215462,-0.7018523216247559,0.8086150884628296
1733511675528466000,12.1484658203125,-0.05006904900074005,-0.6490083932876587,0.6397890448570251
1733511675538485000,12.158485107421875,-0.17032036185264587,-0.7320007085800171,0.5739074945449829
1733511675548504800,12.1685048828125,-0.2733866572380066,-0.8649061918258667,0.6149844527244568
1733511675558524000,12.17852392578125,-0.3450283408164978,-0.9327667355537415,0.7548331618309021
1733511675568543000,12.18854296875,-0.3731245994567871,-0.8345745205879211,0.9584672451019287
1733511675578562000,12.19856201171875,-0.35957416892051697,-0.5669529438018799,1.1853140592575073
1733511675588580900,12.208580810546875,-0.33007514476776123,-0.19215959310531616,1.396946668624878
1733511675598601000,12.21860107421875,-0.30646541714668274,0.17026494443416595,1.5526683330535889
1733511675608620000,12.2286201171875,-0.303806334733963,0.4144875407218933,1.6313637495040894
1733511675618639000,12.23863916015625,-0.301006555557251,0.5261378884315491,1.6454689502716064
1733511675628658200,12.248658203125,-0.2922104001045227,0.5587717294692993,1.6207239627838135
1733511675638677800,12.258677734375,-0.257896363735199,0.5962362885475159,1.5911582708358765
1733511675648696800,12.26869677734375,-0.206235870718956,0.6765668988227844,1.5861940383911133
1733511675658716000,12.2787158203125,-0.15881696343421936,0.8021370768547058,1.5997213125228882
1733511675668735000,12.28873486328125,-0.1819881796836853,0.8857311010360718,1.5774924755096436
1733511675678755000,12.298755126953125,-0.21748171746730804,0.8821337223052979,1.4754399061203003
1733511675688774000,12.30877392578125,-0.265296071767807,0.8189142942428589,1.3698582649230957
1733511675698793000,12.31879296875,-0.32009780406951904,0.7662742733955383,1.290322184562683
1733511675708812000,12.32881201171875,-0.362003892660141,0.7816061973571777,1.2375487089157104
1733511675718832000,12.33883203125,-0.38424554467201233,0.8560327887535095,1.2343848943710327
1733511675728851000,12.348850830078124,-0.3789174556732178,0.9877902865409851,1.2472662925720215
1733511675738870000,12.3588701171875,-0.3477693796157837,1.1132233142852783,1.246402382850647
1733511675748889000,12.36888916015625,-0.3128066956996918,1.1638059616088867,1.1859756708145142
1733511675758909000,12.378908935546875,-0.28378888964653015,1.138534426689148,1.0576746463775635
1733511675768928000,12.388927978515625,-0.2711164355278015,1.0629996061325073,0.883819580078125
1733511675778946800,12.39894677734375,-0.2740347385406494,0.9623412489891052,0.68409663438797
1733511675788966000,12.4089658203125,-0.2833574116230011,0.8389321565628052,0.49886664748191833
1733511675798986000,12.418986083984375,-0.3027265667915344,0.6985660195350647,0.354529470205307
1733511675809005000,12.429005126953125,-0.3267495632171631,0.5740581154823303,0.23656192421913147
1733511675819024000,12.43902392578125,-0.35181868076324463,0.4860294461250305,0.1472160667181015
