time,seconds_elapsed,z,y,x
1733512128479981800,0.02898193359375,-0.00585604552179575,0.011643529869616032,-0.0047050584107637405
1733512128490001000,0.0390009765625,-0.006789510138332844,0.015146435238420963,-0.006690140813589096
1733512128500019200,0.049019287109375,-0.010207943618297577,0.014784245751798153,-0.002177414484322071
1733512128510038000,0.0590380859375,-0.010082269087433815,0.009847592562437057,0.0015763486735522747
1733512128520056000,0.06905615234375,-0.010399984195828438,-0.00036909221671521664,0.005019549746066332
1733512128530075100,0.0790751953125,-0.009290377609431744,-0.007534040603786707,0.0026187882758677006
1733512128540093000,0.089093017578125,-0.009166540578007698,-0.011497888714075089,0.0005947859026491642
1733512128550112000,0.099112060546875,-0.006096768192946911,-0.007978423498570919,-0.0018267513951286674
1733512128560130000,0.109130126953125,-0.00544642424210906,-0.003749856259673834,-0.0030075968243181705
1733512128570148900,0.11914892578125,-0.0019207189325243235,0.001833559013903141,-0.004529784899204969
1733512128580168000,0.12916796875,-0.0005270867259241641,0.0019712443463504314,-0.006779623217880726
1733512128590186200,0.139186279296875,0.0017838169587776065,0.000006708083674311638,-0.009165551513433456
1733512128600205000,0.149205078125,0.007229981478303671,0.002941778162494302,-0.004636579658836126
1733512128610223000,0.15922314453125,0.007611559703946114,0.008404060266911983,-0.006649964954704046
1733512128620242200,0.1692421875,0.01182920765131712,0.017480647191405296,-0.0074076345190405846
1733512128630260000,0.179260009765625,0.009856658056378365,0.02549879252910614,-0.011279146187007427
1733512128640279000,0.189279052734375,0.008895257487893105,0.03222993388772011,-0.016955142840743065
1733512128650298000,0.199298095703125,0.01146912295371294,0.029556799679994583,-0.014015166088938713
1733512128660316000,0.20931591796875,0.010690680705010891,0.028728023171424866,-0.013244979083538055
1733512128670335000,0.2193349609375,0.011219743639230728,0.019564323127269745,-0.006276510655879974
1733512128680353000,0.22935302734375,0.014285042881965637,0.015334958210587502,-0.00582963228225708
1733512128690372000,0.2393720703125,0.017506401985883713,0.0064040059223771095,-0.001115461578592658
1733512128700390100,0.24939013671875,0.021923255175352097,0.007021327503025532,-0.007192262448370457
1733512128710409000,0.259408935546875,0.02309856191277504,0.010937181301414967,-0.009081426076591015
1733512128720427000,0.269427001953125,0.024319088086485863,0.020028946921229362,-0.006864345166832209
1733512128730446000,0.279446044921875,0.025536416098475456,0.01854282058775425,-0.004179126117378473
1733512128740465000,0.28946484375,0.027228055521845818,0.022192416712641716,-0.005160234402865171
1733512128750483000,0.29948291015625,0.03141827508807182,0.023336593061685562,-0.00403233990073204
1733512128760502000,0.309501953125,0.031426265835762024,0.01935356855392456,-0.00006263190880417824
1733512128770520000,0.31952001953125,0.0283936969935894,0.01769956760108471,-0.0011388841085135937
1733512128780539100,0.3295390625,0.023736095055937767,0.013233445584774017,-0.00387634732760489
1733512128790557000,0.339556884765625,0.019116360694169998,0.018012002110481262,-0.0038499971851706505
1733512128800576000,0.349575927734375,0.017662541940808296,0.016891080886125565,-0.005526989698410034
1733512128810594000,0.359593994140625,0.01406442653387785,0.014964975416660309,-0.002386281732469797
1733512128820612900,0.36961279296875,0.011003122664988041,0.010564101859927177,-0.006730429828166962
1733512128830632000,0.3796318359375,0.008506461046636105,0.008051270619034767,0.0008247267105616629
1733512128840650000,0.38964990234375,0.00024799874518066645,0.010024672374129295,0.0009043552563525736
1733512128850668800,0.399668701171875,-0.007630858104676008,0.011694768443703651,0.0022777081467211246
1733512128860687000,0.40968701171875,-0.011545171961188316,0.014171242713928223,0.0036095548421144485
1733512128870706200,0.4197060546875,-0.024638494476675987,0.015293076634407043,-0.0007020984776318073
1733512128880724000,0.429723876953125,-0.03580965846776962,0.012894900515675545,-0.002638216596096754
1733512128890743000,0.439742919921875,-0.04719917103648186,0.005208435468375683,-0.001673124497756362
1733512128900761000,0.449760986328125,-0.0604499951004982,-0.008651986718177795,0.002840400906279683
1733512128910780000,0.45977978515625,-0.06930271536111832,-0.019906800240278244,0.004440203309059143
1733512128920799000,0.469799072265625,-0.07634065300226212,-0.03801310062408447,0.01116734929382801
1733512128930816800,0.479816650390625,-0.08388988673686981,-0.05122486501932144,0.00802701897919178
1733512128940835800,0.4898359375,-0.08825907111167908,-0.06575320661067963,0.00410231901332736
1733512128950854000,0.49985400390625,-0.0907403901219368,-0.07474101334810257,-0.0004295067337807268
1733512128960873000,0.509873046875,-0.08841278403997421,-0.07503608614206314,-0.0027935949619859457
1733512128970890800,0.519890869140625,-0.08705827593803406,-0.06831005960702896,-0.007771613076329231
1733512128980909800,0.529909912109375,-0.080765500664711,-0.06245856359601021,-0.013426302932202816
1733512128990929000,0.539928955078125,-0.07914232462644577,-0.05674949288368225,-0.014003372751176357
1733512129000946700,0.54994677734375,-0.07996337860822678,-0.0513419434428215,-0.019855402410030365
1733512129010965800,0.5599658203125,-0.08331075310707092,-0.042291320860385895,-0.021638156846165657
1733512129020983800,0.56998388671875,-0.08915985375642776,-0.027445795014500618,-0.02189994603395462
1733512129031003000,0.5800029296875,-0.09221368283033371,-0.01089007779955864,-0.02117336355149746
1733512129041021000,0.59002099609375,-0.09959542751312256,-0.0026997923851013184,-0.021999210119247437
1733512129051039700,0.600039794921875,-0.10911545157432556,-0.004163150209933519,-0.03021875210106373
1733512129061057800,0.610057861328125,-0.12796904146671295,-0.011376854963600636,-0.03822634741663933
1733512129071076900,0.620076904296875,-0.15723828971385956,-0.011948229745030403,-0.05697156861424446
1733512129081095700,0.630095703125,-0.17730547487735748,0.00027914135716855526,-0.0756528452038765
1733512129091113700,0.64011376953125,-0.1859491616487503,0.018151063472032547,-0.09519360214471817
1733512129101132800,0.6501328125,-0.1798558533191681,0.037201449275016785,-0.09188276529312134
1733512129111150800,0.66015087890625,-0.1749831587076187,0.048020198941230774,-0.07781833410263062
1733512129121170000,0.670169921875,-0.16846080124378204,0.055000610649585724,-0.05446241796016693
1733512129131188000,0.68018798828125,-0.1798534244298935,0.047381334006786346,-0.0411306731402874
1733512129141206800,0.690206787109375,-0.19874057173728943,0.03259360045194626,-0.04376081004738808
1733512129151225900,0.700225830078125,-0.2248012274503708,0.033537741750478745,-0.05385708436369896
1733512129161244000,0.710243896484375,-0.2446841150522232,0.047605354338884354,-0.08658786118030548
1733512129171262700,0.7202626953125,-0.25230687856674194,0.06160128861665726,-0.1437692940235138
1733512129181280800,0.73028076171875,-0.24677923321723938,0.04292960464954376,-0.1575479507446289
1733512129191299800,0.7402998046875,-0.1956956684589386,0.02712993137538433,-0.09595545381307602
1733512129201318000,0.75031787109375,-0.13394121825695038,0.0357777439057827,-0.016608435660600662
1733512129211337000,0.7603369140625,-0.09202291816473007,0.04186885803937912,0.028896348550915718
1733512129221354800,0.770354736328125,-0.0543181486427784,0.05244480445981026,0.024725306779146194
1733512129231373800,0.780373779296875,-0.03327712416648865,0.08072616159915924,0.011901923455297947
1733512129241393000,0.790392822265625,-0.031750865280628204,0.1400832235813141,-0.02083977870643139
1733512129251410700,0.80041064453125,-0.045193277299404144,0.19286110997200012,-0.05471599102020264
1733512129261429800,0.8104296875,-0.03596675768494606,0.2437511831521988,-0.06004764139652252
1733512129271447800,0.82044775390625,-0.005696282256394625,0.2576831877231598,-0.047772329300642014
1733512129281466600,0.830466552734375,0.012510951608419418,0.2550290822982788,-0.03334731608629227
1733512129291485000,0.84048486328125,0.0062239463441073895,0.26399049162864685,-0.03267555683851242
1733512129301504000,0.85050390625,-0.00892384722828865,0.2822267711162567,-0.03873211890459061
1733512129311522800,0.860522705078125,-0.04603300243616104,0.3289202153682709,-0.10527564585208893
1733512129321540900,0.870540771484375,-0.05299636721611023,0.38225242495536804,-0.1996506303548813
1733512129331560000,0.880559814453125,-0.02318030782043934,0.39421698451042175,-0.3060956299304962
1733512129341577700,0.89057763671875,0.03349814936518669,0.3965725302696228,-0.4146314263343811
1733512129351596800,0.9005966796875,0.11108740419149399,0.3625425398349762,-0.5201271176338196
1733512129361614600,0.910614501953125,0.19352315366268158,0.3828502297401428,-0.5864261984825134
1733512129371633700,0.920633544921875,0.246493399143219,0.4180263876914978,-0.5775852799415588
1733512129381652000,0.93065185546875,0.20829568803310394,0.44040119647979736,-0.5744062662124634
1733512129391670800,0.9406708984375,0.12403667718172073,0.47623464465141296,-0.5931726694107056
1733512129401689900,0.95068994140625,0.03008567914366722,0.48805001378059387,-0.6666029691696167
1733512129411708000,0.9607080078125,-0.035665713250637054,0.5343884229660034,-0.8284916877746582
1733512129421726700,0.970726806640625,-0.05182364210486412,0.5877967476844788,-1.094112753868103
1733512129431744800,0.980744873046875,-0.11779800057411194,0.633423924446106,-1.3249578475952148
1733512129441763800,0.990763916015625,-0.18350110948085785,0.5766786336898804,-1.4644582271575928
1733512129451781600,1.00078173828125,-0.14392124116420746,0.5941514372825623,-1.4877920150756836
1733512129461800700,1.01080078125,-0.08038593828678131,0.629590630531311,-1.5761208534240723
1733512129471818800,1.02081884765625,-0.03186594322323799,0.6554448008537292,-1.7208728790283203
1733512129481837800,1.030837890625,-0.026297008618712425,0.5448487997055054,-1.8038502931594849
1733512129491857000,1.04085693359375,-0.04766298830509186,0.33973589539527893,-1.8159048557281494
1733512129501874700,1.050874755859375,-0.09560228139162064,0.2018917351961136,-1.812949538230896
1733512129511893800,1.060893798828125,-0.12824685871601105,0.03881290927529335,-1.8147562742233276
1733512129521911800,1.070911865234375,-0.12142916023731232,-0.13901861011981964,-1.842812418937683
1733512129531930600,1.0809306640625,-0.0965583324432373,-0.28950875997543335,-1.9181839227676392
1733512129541948700,1.09094873046875,-0.0670289397239685,-0.3655068576335907,-1.9762576818466187
1733512129551967700,1.1009677734375,-0.02427513338625431,-0.37689194083213806,-2.0322349071502686
1733512129561985800,1.11098583984375,0.00095778563991189,-0.39128124713897705,-2.0794599056243896
1733512129572004900,1.1210048828125,-0.0005593912210315466,-0.3829352557659149,-2.0930685997009277
1733512129582024000,1.13102392578125,-0.024483632296323776,-0.38460826873779297,-2.113233804702759
1733512129592041700,1.141041748046875,-0.051977016031742096,-0.3945581614971161,-2.1542599201202393
1733512129602060800,1.151060791015625,-0.06204722449183464,-0.4306938052177429,-2.2035815715789795
1733512129612078800,1.161078857421875,-0.06634107232093811,-0.5331990718841553,-2.2433605194091797
1733512129622097700,1.17109765625,-0.05991033837199211,-0.6100448966026306,-2.2887117862701416
1733512129632116000,1.181115966796875,-0.045890066772699356,-0.6548664569854736,-2.343876600265503
1733512129642134800,1.191134765625,0.002791984472423792,-0.7133982181549072,-2.414811134338379
1733512129652153900,1.20115380859375,0.0694546326994896,-0.8377899527549744,-2.4673118591308594
1733512129662172000,1.211171875,0.14683784544467926,-0.8718270063400269,-2.517775297164917
1733512129672191000,1.22119091796875,0.2191181629896164,-0.857535183429718,-2.5733156204223633
1733512129682208800,1.231208740234375,0.2924080789089203,-0.8238089084625244,-2.6545419692993164
1733512129692227800,1.241227783203125,0.37726470828056335,-0.769636332988739,-2.7086167335510254
1733512129702245600,1.25124560546875,0.4683549404144287,-0.7196687459945679,-2.7122230529785156
1733512129712264700,1.2612646484375,0.5454755425453186,-0.6920848488807678,-2.7268404960632324
1733512129722283000,1.271282958984375,0.6168927550315857,-0.6464893817901611,-2.7261464595794678
1733512129732301800,1.2813017578125,0.6560361981391907,-0.5898789167404175,-2.7009966373443604
1733512129742321000,1.29132080078125,0.6728564500808716,-0.54217529296875,-2.684340715408325
1733512129752339000,1.3013388671875,0.7034899592399597,-0.45536306500434875,-2.649569511413574
1733512129762357800,1.311357666015625,0.6958440542221069,-0.3208060562610626,-2.6048102378845215
1733512129772375800,1.321375732421875,0.5103567242622375,-0.4146350920200348,-2.514383554458618
1733512129782395000,1.331394775390625,0.4646443724632263,-0.41008320450782776,-2.5215632915496826
1733512129792412700,1.34141259765625,0.31605279445648193,-0.49668365716934204,-2.516475200653076
1733512129802431700,1.351431640625,0.10077188909053802,-0.5325673818588257,-2.527225971221924
1733512129812449800,1.36144970703125,-0.05789000540971756,-0.5132355690002441,-2.5575459003448486
1733512129822468900,1.37146875,-0.12760889530181885,-0.5516841411590576,-2.5908865928649902
1733512129832488000,1.381488037109375,-0.10590267181396484,-0.618960440158844,-2.604233980178833
1733512129842505700,1.391505615234375,-0.018313968554139137,-0.5683284401893616,-2.6034302711486816
1733512129852524800,1.40152490234375,0.09299252927303314,-0.47817176580429077,-2.5326051712036133
1733512129862542800,1.41154296875,0.2771357595920563,-0.2293425053358078,-2.438483953475952
1733512129872561700,1.421561767578125,0.41093483567237854,0.012646960094571114,-2.279453754425049
1733512129882579700,1.431579833984375,0.5143020749092102,0.31620150804519653,-2.1495420932769775
1733512129892598800,1.441598876953125,0.5576501488685608,0.5927754044532776,-2.028336763381958
1733512129902616800,1.451616943359375,0.5620605945587158,0.8103868365287781,-1.93405282497406
1733512129912636000,1.461635986328125,0.5272862911224365,0.9500113129615784,-1.8562283515930176
1733512129922655000,1.471655029296875,0.4928731918334961,1.0838375091552734,-1.8335726261138916
1733512129932673300,1.48167333984375,0.4488338828086853,1.117971658706665,-1.7824946641921997
1733512129942692400,1.4916923828125,0.3770393133163452,1.0896193981170654,-1.7111331224441528
1733512129952710100,1.501710205078125,0.31850501894950867,1.1360610723495483,-1.6487220525741577
1733512129962729200,1.511729248046875,0.233621284365654,1.2083879709243774,-1.57284677028656
1733512129972747300,1.521747314453125,0.1427794247865677,1.1269128322601318,-1.4897987842559814
1733512129982766000,1.53176611328125,0.11802347004413605,0.9488337635993958,-1.4054591655731201
1733512129992784400,1.541784423828125,0.1567651778459549,0.6707477569580078,-1.31342613697052
1733512130002803200,1.55180322265625,0.19079264998435974,0.35205206274986267,-1.2686498165130615
1733512130012822300,1.561822265625,0.22632934153079987,0.1027088388800621,-1.2472455501556396
1733512130022840300,1.57184033203125,0.2901937961578369,-0.046987973153591156,-1.1999629735946655
1733512130032859400,1.581859375,0.3929062783718109,-0.21499983966350555,-1.0659964084625244
1733512130042877200,1.591877197265625,0.5596274137496948,-0.425732284784317,-0.9101303219795227
1733512130052896300,1.601896240234375,0.7557230591773987,-0.6956861019134521,-0.7878912687301636
1733512130062914300,1.611914306640625,0.8857172727584839,-1.2585161924362183,-0.7144522070884705
1733512130072933000,1.62193310546875,0.8739959597587585,-1.994078516960144,-0.7128750681877136
1733512130082951400,1.631951416015625,0.8430122137069702,-2.6008546352386475,-0.7440921068191528
1733512130092970500,1.641970458984375,0.8731150031089783,-2.956397294998169,-0.7970420122146606
1733512130102989300,1.6519892578125,1.0025466680526733,-3.013800621032715,-0.8002175688743591
1733512130113007400,1.66200732421875,1.1803871393203735,-2.620548725128174,-0.7518425583839417
1733512130123026400,1.6720263671875,1.2653180360794067,-1.661104440689087,-0.7361096739768982
1733512130133044200,1.682044189453125,1.1531178951263428,-0.12680543959140778,-0.7569048404693604
1733512130143063300,1.692063232421875,0.8842676281929016,1.9028383493423462,-0.7642977833747864
1733512130153081000,1.7020810546875,0.5701729655265808,3.944033145904541,-0.7514046430587769
1733512130163100200,1.71210009765625,0.309772789478302,5.196040630340576,-0.6744294166564941
1733512130173118500,1.722118408203125,0.09330401569604874,5.326429843902588,-0.6266872882843018
1733512130183137300,1.73213720703125,-0.09013798087835312,4.5525712966918945,-0.6896057724952698
1733512130193156400,1.74215625,-0.22260597348213196,3.183262348175049,-0.9458200335502625
1733512130203174400,1.75217431640625,-0.31434521079063416,1.664229393005371,-1.4125405550003052
1733512130213193200,1.762193115234375,-0.3832850158214569,0.5057785511016846,-1.7535463571548462
1733512130223211300,1.772211181640625,-0.42377331852912903,-0.18087813258171082,-1.863244891166687
1733512130233230300,1.782230224609375,-0.45008721947669983,-0.4544830620288849,-1.8203657865524292
1733512130243248000,1.792248046875,-0.43576741218566895,-0.3791438341140747,-1.72550368309021
1733512130253267200,1.80226708984375,-0.36476930975914,0.0012978366576135159,-1.5706195831298828
1733512130263286300,1.812286376953125,-0.25699278712272644,0.5202401280403137,-1.3085334300994873
1733512130273304300,1.82230419921875,-0.1151483952999115,0.9721971154212952,-0.950078547000885
1733512130283323400,1.832323486328125,0.05055029317736626,1.1906527280807495,-0.6139788627624512
1733512130293341200,1.842341064453125,0.22506141662597656,1.0610618591308594,-0.38036835193634033
1733512130303360300,1.8523603515625,0.35530197620391846,0.6643744111061096,-0.25407832860946655
1733512130313378300,1.86237841796875,0.43084192276000977,0.16819536685943604,-0.1767839789390564
1733512130323397000,1.872397216796875,0.49059340357780457,-0.23870103061199188,-0.10031717270612717
1733512130333415200,1.882415283203125,0.5376920700073242,-0.4130342900753021,-0.022983325645327568
1733512130343434200,1.892434326171875,0.5482027530670166,-0.3129870295524597,0.03902598097920418
1733512130353453000,1.902453125,0.5205873250961304,-0.048586178570985794,0.09591768682003021
1733512130363471400,1.912471435546875,0.4380628764629364,0.2704402804374695,0.14464448392391205
1733512130373490400,1.922490478515625,0.33482304215431213,0.485653281211853,0.18304874002933502
1733512130383508200,1.93250830078125,0.23744936287403107,0.5774210691452026,0.2156042903661728
1733512130393527300,1.94252734375,0.13931672275066376,0.5616688132286072,0.2763853669166565
1733512130403545000,1.952545166015625,0.044644542038440704,0.5170717835426331,0.36360442638397217
1733512130413564200,1.962564208984375,-0.020673902705311775,0.5342468023300171,0.4578438401222229
1733512130423582200,1.972582275390625,-0.0632069781422615,0.6212046146392822,0.547271728515625
1733512130433601000,1.98260107421875,-0.09223399311304092,0.7260736227035522,0.6141653656959534
1733512130443620000,1.9926201171875,-0.11135682463645935,0.8029425740242004,0.6653363704681396
1733512130453638400,2.002638427734375,-0.11561298370361328,0.8574106097221375,0.7021981477737427
1733512130463657200,2.0126572265625,-0.11226858198642731,0.9071621894836426,0.724733293056488
1733512130473675300,2.02267529296875,-0.1120382696390152,0.9412358999252319,0.7514055967330933
1733512130483694300,2.0326943359375,-0.11416400969028473,0.9557144641876221,0.7919958829879761
1733512130493712100,2.042712158203125,-0.120453841984272,0.9481421709060669,0.8396010994911194
1733512130503731200,2.052731201171875,-0.13701683282852173,0.9625115394592285,0.8890077471733093
1733512130513749200,2.062749267578125,-0.1708756685256958,0.9882926940917969,0.9242433905601501
1733512130523768000,2.07276806640625,-0.21859686076641083,1.0490449666976929,0.9279784560203552
1733512130533787100,2.082787109375,-0.27490344643592834,1.1149500608444214,0.899955689907074
1733512130543805400,2.092805419921875,-0.32332131266593933,1.1537973880767822,0.8480562567710876
1733512130553824300,2.10282421875,-0.36062091588974,1.138350486755371,0.790329098701477
1733512130563842300,2.11284228515625,-0.3782726228237152,1.0706892013549805,0.7552483677864075
1733512130573861400,2.122861328125,-0.38993221521377563,0.9735426306724548,0.7372453808784485
1733512130583879200,2.132879150390625,-0.4002532958984375,0.8739526867866516,0.7422891855239868
1733512130593898200,2.142898193359375,-0.40780743956565857,0.7839958071708679,0.7727825045585632
1733512130603916300,2.152916259765625,-0.4132938086986542,0.7195563912391663,0.8040676712989807
1733512130613935400,2.162935302734375,-0.42473939061164856,0.6900475025177002,0.7883409261703491
1733512130623954200,2.1729541015625,-0.4508722126483917,0.6846604347229004,0.7246444821357727
1733512130633972200,2.18297216796875,-0.48931455612182617,0.7033225297927856,0.658705472946167
1733512130643991300,2.1929912109375,-0.5106555223464966,0.7318788170814514,0.631205141544342
1733512130654009300,2.20300927734375,-0.5158442854881287,0.7872387170791626,0.6484372019767761
1733512130664028200,2.213028076171875,-0.4963187873363495,0.9001455307006836,0.6979847550392151
1733512130674046200,2.223046142578125,-0.4701848030090332,0.9982282519340515,0.8239420652389526
1733512130684065300,2.233065185546875,-0.4449571967124939,1.106196403503418,0.9972440600395203
1733512130694083300,2.243083251953125,-0.4331846833229065,1.297025442123413,1.1073246002197266
1733512130704102400,2.253102294921875,-0.42554405331611633,1.4762260913848877,1.1032863855361938
1733512130714121200,2.263121337890625,-0.4021064043045044,1.4959675073623657,1.0229263305664062
1733512130724139300,2.27313916015625,-0.3728039264678955,1.388291835784912,0.8902282118797302
1733512130734158300,2.283158447265625,-0.3559998869895935,1.296877145767212,0.7513327598571777
1733512130744176000,2.293176025390625,-0.35438546538352966,1.265098214149475,0.6209849119186401
1733512130754195200,2.3031953125,-0.35616421699523926,1.1834838390350342,0.5212393403053284
1733512130764213200,2.313213134765625,-0.3483973741531372,1.0528451204299927,0.4361580014228821
1733512130774232000,2.323232177734375,-0.3290592432022095,0.8693714737892151,0.32427218556404114
1733512130784250400,2.33325048828125,-0.3163756728172302,0.6311681866645813,0.16325053572654724
1733512130794269400,2.34326953125,-0.3223765790462494,0.3511829376220703,0.04195553809404373
1733512130804288300,2.353288330078125,-0.3263265788555145,0.12751759588718414,0.045405663549900055
1733512130814306300,2.363306396484375,-0.31228411197662354,0.12195178866386414,0.16420090198516846
1733512130824325400,2.373325439453125,-0.25982728600502014,0.213287815451622,0.29741594195365906
1733512130834343200,2.38334326171875,-0.17795345187187195,0.176761195063591,0.36373332142829895
1733512130844362200,2.3933623046875,-0.12239699065685272,0.041384465992450714,0.2559943199157715
1733512130854380300,2.40338037109375,-0.09159725904464722,-0.05636894702911377,0.005351073108613491
1733512130864399000,2.413399169921875,-0.05421314015984535,-0.0648183599114418,-0.2830341160297394
1733512130874417400,2.42341748046875,0.0034212626051157713,-0.11803708225488663,-0.4379061758518219
1733512130884436500,2.4334365234375,0.10173238813877106,-0.2332417070865631,-0.2910400331020355
1733512130894454300,2.443454345703125,0.22239302098751068,-0.20049472153186798,0.09193649142980576
1733512130904473300,2.453473388671875,0.3126680552959442,-0.0040676831267774105,0.42502522468566895
1733512130914492400,2.463492431640625,0.39440134167671204,-0.057129133492708206,0.6781072020530701
1733512130924510200,2.47351025390625,0.46644115447998047,-0.44430455565452576,0.9358934760093689
1733512130934528300,2.4835283203125,0.6818900108337402,-1.2167989015579224,1.0938786268234253
1733512130944546600,2.493546630859375,0.9982237219810486,-2.1888504028320312,1.0959042310714722
1733512130954565600,2.503565673828125,1.3259438276290894,-2.826408624649048,0.9583216905593872
1733512130964583400,2.51358349609375,1.4568971395492554,-2.413417100906372,0.5691046714782715
1733512130974602500,2.5236025390625,1.2791469097137451,-1.0809366703033447,0.09306144714355469
1733512130984620300,2.533620361328125,1.179872989654541,0.7052105069160461,-0.28974878787994385
1733512130994639400,2.543639404296875,1.187978744506836,2.813673973083496,-0.5524057149887085
1733512131004658400,2.553658447265625,1.250917673110962,4.529330730438232,-0.6642563939094543
1733512131014676200,2.56367626953125,1.3001936674118042,5.405731678009033,-0.528146505355835
1733512131024695300,2.5736953125,1.1226239204406738,5.49028205871582,-0.36208805441856384
1733512131034713600,2.583713623046875,0.6913157105445862,5.10146951675415,-0.3650496304035187
1733512131044732400,2.593732421875,0.24248944222927094,4.441715240478516,-0.5217964053153992
1733512131054750500,2.60375048828125,-0.0969599187374115,3.673888921737671,-0.7111716866493225
1733512131064769500,2.61376953125,-0.2795211970806122,2.784877300262451,-0.7638530135154724
1733512131074787300,2.623787353515625,-0.2688688635826111,1.4976394176483154,-0.8142905831336975
1733512131084806400,2.633806396484375,-0.31785160303115845,0.2934444844722748,-0.8729629516601562
1733512131094825500,2.643825439453125,-0.5059365034103394,-0.4347964823246002,-0.8166532516479492
1733512131104843300,2.65384326171875,-0.7805600762367249,-0.7944097518920898,-0.6289992332458496
1733512131114862300,2.6638623046875,-1.0027318000793457,-1.1213417053222656,-0.35954931378364563
1733512131124880400,2.67388037109375,-1.0799806118011475,-1.611527919769287,-0.04767877981066704
1733512131134899500,2.6838994140625,-1.0582267045974731,-2.2968738079071045,0.26300734281539917
1733512131144917500,2.69391748046875,-1.018721103668213,-3.1078038215637207,0.5375808477401733
1733512131154936300,2.703936279296875,-0.9893212914466858,-3.8982887268066406,0.7597007751464844
1733512131164955400,2.713955322265625,-0.9652960896492004,-4.45374870300293,0.8669337630271912
1733512131174973400,2.723973388671875,-0.9297053813934326,-4.6401686668396,0.8084654808044434
1733512131184992300,2.7339921875,-0.8478496670722961,-4.0547990798950195,0.3851813077926636
1733512131195010300,2.74401025390625,-0.6578452587127686,-1.5016814470291138,-1.0544909238815308
1733512131205029400,2.754029296875,-0.22185036540031433,1.7415094375610352,-2.7365477085113525
1733512131215047400,2.76404736328125,0.17165237665176392,2.979823350906372,-3.2130801677703857
1733512131225066500,2.77406640625,0.39318689703941345,3.0185611248016357,-2.9891252517700195
1733512131235084500,2.78408447265625,0.4985686242580414,2.59812068939209,-2.593842029571533
1733512131245103400,2.794103271484375,0.5711624026298523,2.2037127017974854,-2.3284754753112793
1733512131255121400,2.804121337890625,0.6291812062263489,1.976816177368164,-2.25728440284729
1733512131265140500,2.814140380859375,0.6463636755943298,1.6763020753860474,-2.1373977661132812
1733512131275159300,2.8241591796875,0.5052125453948975,1.0285688638687134,-1.7278677225112915
1733512131285177300,2.83417724609375,0.24017292261123657,0.2317577451467514,-1.014190673828125
1733512131295196400,2.844196533203125,0.10776542872190475,-0.28714877367019653,-0.2502761483192444
1733512131305214500,2.85421435546875,0.10274244099855423,-0.5260159373283386,0.395926833152771
1733512131315233500,2.864233642578125,0.0932396948337555,-0.5856290459632874,0.8710781335830688
1733512131325251300,2.874251220703125,0.02318551205098629,-0.5427817106246948,1.1614618301391602
1733512131335270400,2.8842705078125,-0.06474785506725311,-0.46478214859962463,1.275355577468872
1733512131345288400,2.894288330078125,-0.11147301644086838,-0.31734102964401245,1.2127046585083008
1733512131355307300,2.904307373046875,-0.10513437539339066,0.00047888653352856636,1.0228757858276367
1733512131365326300,2.914326416015625,-0.0021984076593071222,0.4752107858657837,0.7436224818229675
1733512131375344600,2.9243447265625,0.12320646643638611,0.8859043717384338,0.40160679817199707
1733512131385363500,2.934363525390625,0.1695888638496399,1.0100587606430054,0.03622137010097504
1733512131395381500,2.944381591796875,0.10718126595020294,0.8176830410957336,-0.25621968507766724
1733512131405400600,2.954400634765625,0.031008731573820114,0.46498653292655945,-0.3913692533969879
1733512131415418400,2.96441845703125,0.028714075684547424,0.227277472615242,-0.32866325974464417
1733512131425437400,2.9744375,0.08354908972978592,0.22289630770683289,-0.11347879469394684
1733512131435455200,2.984455322265625,0.13996821641921997,0.44716766476631165,0.1489330381155014
1733512131445474300,2.994474365234375,0.2050526738166809,0.8046525716781616,0.36326688528060913
1733512131455493400,3.004493408203125,0.2809484004974365,1.1945140361785889,0.44558122754096985
1733512131465511400,3.014511474609375,0.35825595259666443,1.693324089050293,0.27600762248039246
1733512131475530500,3.024530517578125,0.4208395779132843,2.5840251445770264,-0.3451927900314331
1733512131485548500,3.034548583984375,0.47401729226112366,3.0433599948883057,-0.8128976821899414
1733512131495567400,3.0445673828125,0.5615832805633545,2.4500789642333984,-0.4764886498451233
1733512131505585400,3.05458544921875,0.614146888256073,1.1532220840454102,0.6797104477882385
1733512131515604500,3.0646044921875,0.6420109868049622,-0.023465517908334732,1.7170169353485107
1733512131525622300,3.074622314453125,0.6844857335090637,-0.6509156227111816,2.1502652168273926
1733512131535641300,3.084641357421875,0.6794872283935547,-0.8884359002113342,2.181103229522705
1733512131545660400,3.094660400390625,0.6545211672782898,-1.0341172218322754,2.0773720741271973
1733512131555678500,3.104678466796875,0.6245161294937134,-1.2132059335708618,2.0045697689056396
1733512131565697500,3.114697509765625,0.5479574799537659,-1.2734788656234741,1.953892469406128
1733512131575715600,3.124715576171875,0.4115227162837982,-0.8924033045768738,1.845100998878479
1733512131585734400,3.134734375,0.20349439978599548,-0.14715129137039185,1.7035667896270752
1733512131595752400,3.14475244140625,0.010397117584943771,0.8452916741371155,1.5270771980285645
1733512131605771500,3.154771484375,-0.11547745764255524,1.7772969007492065,1.2929565906524658
1733512131615789300,3.164789306640625,-0.17883779108524323,2.1647281646728516,0.9310867786407471
1733512131625808400,3.174808349609375,-0.20417137444019318,1.9613008499145508,0.4573782980442047
1733512131635827500,3.184827392578125,-0.30925023555755615,1.3184230327606201,0.0490431971848011
1733512131645845500,3.194845458984375,-0.549026608467102,0.7448249459266663,0.019597426056861877
1733512131655864600,3.204864501953125,-0.7767899036407471,0.7232070565223694,0.4452044665813446
1733512131665882400,3.21488232421875,-0.7620964050292969,1.2930333614349365,1.0616692304611206
1733512131675901400,3.2249013671875,-0.6241150498390198,2.0585594177246094,1.5746318101882935
1733512131685919500,3.23491943359375,-0.5315787196159363,2.481971263885498,1.8519912958145142
1733512131695938300,3.244938232421875,-0.5202580690383911,2.4691765308380127,1.9025434255599976
1733512131705956400,3.254956298828125,-0.5109785795211792,2.2983148097991943,1.8316398859024048
1733512131715975400,3.264975341796875,-0.4720022976398468,2.18525767326355,1.7097691297531128
1733512131725994200,3.274994140625,-0.4208757281303406,2.190413236618042,1.5767074823379517
1733512131736012500,3.285012451171875,-0.37358447909355164,2.251739025115967,1.4535293579101562
1733512131746031600,3.295031494140625,-0.33395692706108093,2.271474838256836,1.3409514427185059
1733512131756049400,3.30504931640625,-0.30924931168556213,2.1496849060058594,1.208142876625061
1733512131766068500,3.315068359375,-0.320616215467453,1.9226192235946655,1.0700196027755737
1733512131776086300,3.325086181640625,-0.3352030813694,1.6666351556777954,0.9501944184303284
1733512131786105300,3.335105224609375,-0.33257320523262024,1.4109413623809814,0.8613042235374451
1733512131796123400,3.345123291015625,-0.2993761897087097,1.2366478443145752,0.8127378821372986
1733512131806142200,3.35514208984375,-0.2490307241678238,1.1661382913589478,0.786859929561615
1733512131816161300,3.365161376953125,-0.20142269134521484,1.16775643825531,0.7648027539253235
1733512131826179600,3.3751796875,-0.16068032383918762,1.1780003309249878,0.7374172210693359
1733512131836198400,3.385198486328125,-0.12447593361139297,1.1626578569412231,0.6943026781082153
1733512131846216400,3.395216552734375,-0.10244865715503693,1.1310383081436157,0.6487171053886414
1733512131856235500,3.405235595703125,-0.10198753327131271,1.1105093955993652,0.6149854063987732
1733512131866253300,3.41525341796875,-0.11669909954071045,1.1285682916641235,0.5907405614852905
1733512131876272400,3.4252724609375,-0.11931752413511276,1.1870726346969604,0.5758657455444336
1733512131886290400,3.43529052734375,-0.12294048815965652,1.2278002500534058,0.5733924508094788
1733512131896309200,3.445309326171875,-0.1253231018781662,1.2388801574707031,0.5738512873649597
1733512131906328300,3.455328369140625,-0.11970996856689453,1.25600004196167,0.5711713433265686
1733512131916346400,3.465346435546875,-0.10591290146112442,1.1997429132461548,0.5503239631652832
1733512131926365400,3.475365478515625,-0.0905909389257431,1.0017701387405396,0.4751799404621124
1733512131936384000,3.485384033203125,-0.08446451276540756,0.6908847689628601,0.3312225341796875
1733512131946403000,3.495403076171875,-0.10268159955739975,0.3435111343860626,0.13001832365989685
1733512131956420900,3.5054208984375,-0.1456957906484604,0.014400539919734001,-0.10089341551065445
1733512131966440000,3.51543994140625,-0.19982613623142242,-0.24097342789173126,-0.2954602539539337
1733512131976458000,3.5254580078125,-0.231644406914711,-0.46909043192863464,-0.4221304655075073
1733512131986476800,3.535476806640625,-0.23694810271263123,-0.6241564750671387,-0.47938814759254456
1733512131996496000,3.545495849609375,-0.2485496997833252,-0.6694507598876953,-0.46575304865837097
1733512132006514200,3.55551416015625,-0.2666706442832947,-0.5906888246536255,-0.39222821593284607
1733512132016533000,3.565532958984375,-0.29654163122177124,-0.42507216334342957,-0.30184510350227356
1733512132026551000,3.575551025390625,-0.33274543285369873,-0.295967698097229,-0.2723662853240967
1733512132036570000,3.585570068359375,-0.3514373302459717,-0.21696515381336212,-0.31610414385795593
1733512132046588000,3.595587890625,-0.3430270552635193,-0.1012638658285141,-0.3260364234447479
1733512132056607000,3.60560693359375,-0.3174950182437897,0.057206735014915466,-0.14937736093997955
1733512132066625000,3.615625,-0.2853911519050598,0.13942570984363556,0.1428619623184204
1733512132076643800,3.625643798828125,-0.22461916506290436,0.14210356771945953,0.2625681757926941
1733512132086662100,3.635662109375,-0.07190579921007156,-0.2145080864429474,0.19708873331546783
1733512132096681200,3.64568115234375,0.19695816934108734,-1.2386448383331299,0.20425769686698914
1733512132106700000,3.655699951171875,0.4722539484500885,-2.591526508331299,0.3824750483036041
1733512132116718000,3.665718017578125,0.6258181929588318,-3.046963691711426,0.3651662766933441
1733512132126737200,3.675737060546875,0.6396820545196533,-2.3968935012817383,-0.05378890782594681
1733512132136755000,3.6857548828125,0.5836531519889832,-1.604626178741455,-0.6691316962242126
1733512132146774000,3.69577392578125,0.4804481863975525,-1.2335325479507446,-1.0991206169128418
1733512132156791800,3.705791748046875,0.3192073106765747,-1.075737714767456,-1.2453633546829224
1733512132166811000,3.715810791015625,0.15573367476463318,-0.7491124868392944,-1.2754162549972534
1733512132176829200,3.7258291015625,0.0910634994506836,0.19330056011676788,-1.3905367851257324
1733512132186848000,3.735847900390625,0.1778481900691986,1.5295541286468506,-1.6569631099700928
1733512132196867000,3.7458671875,0.3233807384967804,2.6234450340270996,-1.9098539352416992
1733512132206885000,3.755885009765625,0.5198256373405457,2.8950586318969727,-1.9955419301986694
1733512132216904000,3.765904052734375,0.6410382986068726,2.6016159057617188,-1.9814121723175049
1733512132226922000,3.775921875,0.633385956287384,2.0378997325897217,-1.9444983005523682
1733512132236941000,3.785941162109375,0.48776358366012573,1.5063531398773193,-1.9335029125213623
1733512132246958800,3.795958740234375,0.3995269238948822,1.2500134706497192,-1.9416232109069824
1733512132256978000,3.80597802734375,0.1248849481344223,1.1479908227920532,-1.9256742000579834
1733512132266996000,3.815995849609375,-0.22567839920520782,0.9635937809944153,-1.9171580076217651
1733512132277015000,3.82601513671875,-0.45866456627845764,0.34587690234184265,-2.002060651779175
1733512132287034000,3.8360341796875,-0.6434687376022339,-0.8365969657897949,-2.197322368621826
1733512132297052000,3.846052001953125,-0.7174995541572571,-2.523472309112549,-2.5761241912841797
1733512132307071000,3.856071044921875,-0.8596169948577881,-3.7351150512695312,-2.8805525302886963
1733512132317089000,3.866089111328125,-1.018674373626709,-4.156265735626221,-2.913677453994751
1733512132327107800,3.87610791015625,-1.071202039718628,-4.213553428649902,-2.7589571475982666
1733512132337126100,3.886126220703125,-0.9605768322944641,-4.164427280426025,-2.4973254203796387
1733512132347145000,3.89614501953125,-0.7777302861213684,-3.9975979328155518,-2.1969075202941895
1733512132357163000,3.9061630859375,-0.6283941864967346,-3.5008327960968018,-1.8840246200561523
1733512132367182000,3.91618212890625,-0.4746309518814087,-2.5779192447662354,-1.5190461874008179
1733512132377201200,3.926201171875,-0.2987745702266693,-1.4476944208145142,-1.047572135925293
1733512132387219000,3.936218994140625,-0.13971355557441711,-0.48268023133277893,-0.49417048692703247
1733512132397238000,3.946238037109375,-0.004543162416666746,0.19164878129959106,0.11124836653470993
1733512132407256000,3.956256103515625,0.11182419210672379,0.6704201698303223,0.65635085105896
1733512132417275000,3.96627490234375,0.19263195991516113,1.0514237880706787,0.995763897895813
1733512132427293200,3.976293212890625,0.1918732225894928,1.3799169063568115,1.0872853994369507
1733512132437312000,3.98631201171875,0.10348610579967499,1.5942859649658203,0.9486515522003174
1733512132447330000,3.996330078125,-0.024480625987052917,1.6342881917953491,0.6577343344688416
1733512132457349000,4.00634912109375,-0.19593344628810883,1.5101615190505981,0.2846434414386749
1733512132467368200,4.0163681640625,-0.3674505949020386,1.2874552011489868,-0.08162696659564972
1733512132477386000,4.026385986328125,-0.484791100025177,0.9836397171020508,-0.3834165334701538
1733512132487405000,4.036405029296875,-0.56400465965271,0.6004646420478821,-0.5903510451316833
1733512132497422800,4.0464228515625,-0.6160261631011963,0.2989974617958069,-0.6396188139915466
1733512132507442000,4.05644189453125,-0.6251248717308044,0.13818886876106262,-0.5426677465438843
1733512132517460200,4.066460205078125,-0.5876827836036682,0.13334359228610992,-0.32701927423477173
1733512132527479000,4.07647900390625,-0.5036938786506653,0.22821231186389923,-0.07431723922491074
1733512132537497000,4.0864970703125,-0.36694344878196716,0.27335432171821594,0.09663522243499756
1733512132547516200,4.09651611328125,-0.18874229490756989,0.023189496248960495,0.03790080174803734
1733512132557535000,4.106534912109375,-0.05366455763578415,-0.5559888482093811,-0.28304940462112427
1733512132567553000,4.116552978515625,-0.036143623292446136,-1.2504887580871582,-0.7061223983764648
1733512132577572000,4.126572021484375,-0.09402944147586823,-1.8383479118347168,-1.0684773921966553
1733512132587590000,4.13658984375,-0.16255071759223938,-2.151776075363159,-1.2222274541854858
1733512132597609000,4.14660888671875,-0.21377187967300415,-2.1206326484680176,-1.083271861076355
1733512132607627000,4.156626953125,-0.26015377044677734,-1.796278476715088,-0.6905890107154846
1733512132617646000,4.16664599609375,-0.27395007014274597,-1.3117402791976929,-0.17095474898815155
1733512132627664100,4.1766640625,-0.25093451142311096,-0.8269826769828796,0.3295283019542694
1733512132637683000,4.186682861328125,-0.20723408460617065,-0.414517343044281,0.7167888283729553
1733512132647701000,4.196700927734375,-0.14568977057933807,-0.0017731738043949008,0.9714639782905579
1733512132657720000,4.206719970703125,-0.06802868843078613,0.38359135389328003,1.0460429191589355
1733512132667739000,4.21673876953125,-0.003688847180455923,0.9450269937515259,0.7664089202880859
1733512132677757000,4.2267568359375,-0.02695651538670063,2.1648199558258057,-0.4812714159488678
1733512132687776000,4.23677587890625,0.11747176945209503,2.5062899589538574,-1.3675426244735718
1733512132697794000,4.2467939453125,0.408071905374527,1.4123197793960571,-1.2924892902374268
1733512132707813000,4.256813232421875,0.6084526181221008,-0.5439355969429016,-0.4930828809738159
1733512132717831000,4.266830810546875,0.6265648603439331,-2.1448440551757812,0.7186726927757263
1733512132727850000,4.27685009765625,0.63673335313797,-2.3467259407043457,1.5453802347183228
1733512132737868000,4.286867919921875,0.7216252088546753,-1.6773278713226318,1.9198319911956787
1733512132747886800,4.296886962890625,0.827741801738739,-0.8997263312339783,2.0995032787323
1733512132757906000,4.306906005859375,0.8670726418495178,-0.4139525592327118,2.2758240699768066
1733512132767924000,4.316924072265625,0.853696882724762,-0.25302013754844666,2.455141067504883
1733512132777942800,4.32694287109375,0.7890608310699463,-0.36183759570121765,2.5613818168640137
1733512132787961000,4.336961181640625,0.669833242893219,-0.6192592978477478,2.5416176319122314
1733512132797980200,4.346980224609375,0.5080346465110779,-0.9282151460647583,2.352449893951416
1733512132807998000,4.356998046875,0.37931203842163086,-0.9470505714416504,1.9478033781051636
1733512132818017000,4.36701708984375,0.3369232416152954,-0.6990018486976624,1.387965202331543
1733512132828035000,4.37703515625,0.29477766156196594,-0.19124221801757812,0.8477686047554016
1733512132838054000,4.387053955078125,0.16855685412883759,0.41418489813804626,0.44474637508392334
1733512132848073000,4.397072998046875,0.01613454893231392,0.8302494883537292,0.2058514952659607
1733512132858091000,4.407091064453125,-0.10457415878772736,0.905872106552124,0.10101490467786789
1733512132868109800,4.41710986328125,-0.2176373302936554,0.66640704870224,0.16997797787189484
1733512132878128000,4.427128173828125,-0.32800889015197754,0.36494213342666626,0.4852336347103119
1733512132888147200,4.437147216796875,-0.36208376288414,0.39933180809020996,0.9578899145126343
1733512132898165000,4.4471650390625,-0.35542866587638855,0.8306692242622375,1.3549062013626099
1733512132908184000,4.45718408203125,-0.36134353280067444,1.322287678718567,1.566637635231018
1733512132918201900,4.467201904296875,-0.36997729539871216,1.6191691160202026,1.6340218782424927
1733512132928221000,4.477220947265625,-0.36898741126060486,1.6723418235778809,1.6083567142486572
1733512132938239200,4.4872392578125,-0.3730238080024719,1.5623387098312378,1.5191624164581299
1733512132948257500,4.497257568359375,-0.38923633098602295,1.4153668880462646,1.385487675666809
1733512132958276400,4.5072763671875,-0.40218788385391235,1.3262896537780762,1.2254002094268799
1733512132968294400,4.51729443359375,-0.4238297939300537,1.3519625663757324,1.07362699508667
1733512132978313500,4.5273134765625,-0.4334355890750885,1.455003023147583,0.9303039908409119
1733512132988331300,4.537331298828125,-0.41180968284606934,1.538009762763977,0.7958641648292542
1733512132998350300,4.547350341796875,-0.36578094959259033,1.5524890422821045,0.6431926488876343
1733512133008368400,4.557368408203125,-0.3521610200405121,1.5373517274856567,0.49715471267700195
1733512133018387200,4.56738720703125,-0.3610415458679199,1.510616660118103,0.37977781891822815
1733512133028405500,4.577405517578125,-0.35270023345947266,1.4505943059921265,0.32136592268943787
1733512133038424600,4.587424560546875,-0.3033784329891205,1.344857096672058,0.34919795393943787
1733512133048443400,4.597443359375,-0.22057251632213593,1.2411211729049683,0.42768770456314087
1733512133058461400,4.60746142578125,-0.1378127485513687,1.178715467453003,0.499289870262146
1733512133068480500,4.61748046875,-0.10571101307868958,1.1249529123306274,0.5456744432449341
1733512133078498300,4.627498291015625,-0.10004398971796036,1.082283616065979,0.56977379322052
1733512133088517400,4.637517333984375,-0.11147560924291611,1.087304949760437,0.6022973656654358
1733512133098535400,4.647535400390625,-0.12969355285167694,1.0821231603622437,0.6342574954032898
1733512133108554200,4.65755419921875,-0.1675887256860733,1.1018248796463013,0.6606976389884949
1733512133118572500,4.667572509765625,-0.2301417589187622,1.1438480615615845,0.6792109608650208
1733512133128591400,4.67759130859375,-0.30128544569015503,1.2201206684112549,0.6983098387718201
1733512133138610400,4.6876103515625,-0.3413374125957489,1.330135464668274,0.6831891536712646
1733512133148628500,4.69762841796875,-0.34790825843811035,1.3981223106384277,0.6394866704940796
1733512133158647300,4.707647216796875,-0.33392176032066345,1.4563394784927368,0.5962496399879456
1733512133168665300,4.717665283203125,-0.2891090214252472,1.548520803451538,0.6126006245613098
1733512133178684400,4.727684326171875,-0.2157418429851532,1.631838321685791,0.6978241801261902
1733512133188702500,4.737702392578125,-0.13363605737686157,1.6123727560043335,0.7688741087913513
1733512133198721500,4.747721435546875,-0.03631424903869629,1.4103946685791016,0.7820484638214111
1733512133208739300,4.7577392578125,0.04929705709218979,1.027592658996582,0.7010952830314636
1733512133218758400,4.76775830078125,0.09971490502357483,0.4269558787345886,0.5194395184516907
1733512133228777500,4.777777587890625,0.11783159524202347,-0.5627017021179199,0.23969657719135284
1733512133238795300,4.787795166015625,0.09761375188827515,-1.3999602794647217,0.24495860934257507
1733512133248814300,4.797814453125,0.06347895413637161,-1.5240696668624878,0.5185706615447998
1733512133258832400,4.807832275390625,0.09809357672929764,-1.0626353025436401,0.7006028294563293
1733512133268851200,4.817851318359375,0.2788870334625244,-0.13983987271785736,0.25441282987594604
1733512133278869500,4.827869384765625,0.5105825066566467,0.08493075519800186,-0.22307057678699493
1733512133288888600,4.837888671875,0.4215216636657715,-0.6360977292060852,-0.07977253198623657
1733512133298906400,4.84790625,0.02237902209162712,-1.2750880718231201,0.28358665108680725
1733512133308925400,4.857925537109375,-0.3109392821788788,-1.4407355785369873,0.3846091628074646
1733512133318943500,4.867943603515625,-0.2825288474559784,-1.1046597957611084,0.08017878234386444
1733512133328962300,4.87796240234375,0.031528156250715256,-0.4202575087547302,-0.4786573350429535
1733512133338981400,4.8879814453125,0.3501174747943878,0.018225273117423058,-1.0348154306411743
1733512133348999400,4.89799951171875,0.5473365783691406,0.01271066628396511,-1.408872127532959
1733512133359018200,4.908018310546875,0.679131031036377,-0.12888139486312866,-1.5834373235702515
1733512133369036500,4.91803662109375,0.7566543221473694,-0.2615129351615906,-1.6198749542236328
1733512133379055600,4.9280556640625,0.7643887400627136,-0.296523779630661,-1.6163264513015747
1733512133389073400,4.938073486328125,0.7383076548576355,-0.30895939469337463,-1.5942941904067993
1733512133399092500,4.948092529296875,0.5015771985054016,-0.4263277053833008,-1.5366345643997192
1733512133409110300,4.9581103515625,0.09114091098308563,-0.5170847773551941,-1.467962384223938
1733512133419129300,4.96812939453125,-0.24471214413642883,-0.6113453507423401,-1.5925941467285156
1733512133429148400,4.9781484375,-0.34192603826522827,-0.9180927872657776,-1.9242674112319946
1733512133439166200,4.988166259765625,-0.24939566850662231,-1.640396237373352,-2.50795841217041
1733512133449185300,4.998185302734375,-0.2040175348520279,-2.2041068077087402,-2.948772430419922
1733512133459203600,5.00820361328125,-0.27369216084480286,-2.2270255088806152,-3.002140760421753
1733512133469222400,5.018222412109375,-0.4604431390762329,-1.8942253589630127,-2.678950071334839
1733512133479240400,5.028240478515625,-0.611310601234436,-1.3418941497802734,-2.165794849395752
1733512133489259500,5.038259521484375,-0.6317903399467468,-0.6273531317710876,-1.6879379749298096
1733512133499277300,5.04827734375,-0.5092889666557312,0.05883792042732239,-1.3405117988586426
1733512133509296400,5.05829638671875,-0.3605346381664276,0.6194660663604736,-1.1085408926010132
1733512133519315500,5.0683154296875,-0.3164706230163574,0.9670245051383972,-0.9438568353652954
1733512133529333200,5.078333251953125,-0.3276101052761078,1.0893453359603882,-0.8219663500785828
1733512133539352300,5.088352294921875,-0.31714338064193726,1.0341964960098267,-0.7248668670654297
1733512133549370400,5.098370361328125,-0.29109498858451843,0.9193748235702515,-0.6589714884757996
1733512133559389400,5.108389404296875,-0.26792916655540466,0.8263280987739563,-0.6138576865196228
1733512133569407500,5.118407470703125,-0.22316890954971313,0.792279064655304,-0.5933479070663452
1733512133579426300,5.12842626953125,-0.17273671925067902,0.7982170581817627,-0.5855509042739868
1733512133589444400,5.1384443359375,-0.12235424667596817,0.8270628452301025,-0.6362990736961365
1733512133599463400,5.14846337890625,-0.02193232625722885,0.8030132055282593,-0.7707633376121521
1733512133609481200,5.158481201171875,0.12621691823005676,0.6457018852233887,-0.9828593730926514
1733512133619500300,5.168500244140625,0.2156585454940796,0.3921462297439575,-1.2425130605697632
1733512133629519400,5.178519287109375,0.24412135779857635,0.021387854591012,-1.5208187103271484
1733512133639537400,5.188537353515625,0.259046345949173,-0.4822746813297272,-1.7841278314590454
1733512133649556500,5.198556396484375,0.22393842041492462,-1.0306037664413452,-1.995969295501709
1733512133659574300,5.20857421875,0.05915632098913193,-1.4805039167404175,-2.1045947074890137
1733512133669593300,5.21859326171875,-0.1607518047094345,-1.660955786705017,-2.08717942237854
1733512133679611400,5.228611328125,-0.2853148281574249,-1.5433892011642456,-1.9364612102508545
1733512133689630200,5.238630126953125,-0.3076150715351105,-1.2109817266464233,-1.6512987613677979
1733512133699648300,5.248648193359375,-0.3200330138206482,-0.7692931294441223,-1.2259920835494995
1733512133709667300,5.258667236328125,-0.4100888967514038,-0.3513970375061035,-0.6696745157241821
1733512133719686100,5.26868603515625,-0.5186761021614075,-0.06003910303115845,-0.011931016109883785
1733512133729704400,5.278704345703125,-0.5097095370292664,0.1081315279006958,0.6522355079650879
1733512133739723500,5.2887236328125,-0.3978601396083832,0.17292845249176025,1.2402992248535156
1733512133749741300,5.2987412109375,-0.31667768955230713,0.30503135919570923,1.5414936542510986
1733512133759760400,5.308760498046875,-0.4191704988479614,0.890671968460083,1.153365135192871
1733512133769778400,5.3187783203125,-0.3540008068084717,1.6344507932662964,0.5733867883682251
1733512133779797200,5.32879736328125,0.057619012892246246,1.9233906269073486,0.40622633695602417
1733512133789815600,5.338815673828125,0.45854780077934265,1.5202176570892334,0.598035991191864
1733512133799834400,5.34883447265625,0.7158598899841309,0.5124707221984863,1.009826421737671
1733512133809853400,5.358853515625,0.8392897248268127,-0.6505149602890015,1.417104721069336
1733512133819871500,5.36887158203125,0.8438701629638672,-1.4887144565582275,1.6794803142547607
1733512133829890600,5.378890625,0.8129047751426697,-1.810605764389038,1.811173439025879
1733512133839908400,5.388908447265625,0.8017690181732178,-1.7048454284667969,1.8521208763122559
1733512133849927400,5.398927490234375,0.7851905822753906,-1.3289178609848022,1.8000656366348267
1733512133859945200,5.4089453125,0.7164268493652344,-0.9176336526870728,1.675053358078003
1733512133869964300,5.41896435546875,0.6489266157150269,-0.6684321165084839,1.5682907104492188
1733512133879982600,5.428982666015625,0.6110938787460327,-0.6694852709770203,1.5479422807693481
1733512133890001400,5.43900146484375,0.5646387338638306,-0.7451275587081909,1.582589030265808
1733512133900019500,5.44901953125,0.4541454017162323,-0.8414104580879211,1.6402554512023926
1733512133910038500,5.45903857421875,0.30227625370025635,-0.7041807174682617,1.642252802848816
1733512133920057300,5.469057373046875,0.2231590747833252,-0.3585624396800995,1.5761396884918213
1733512133930075400,5.479075439453125,0.1854867935180664,-0.011385582387447357,1.406268835067749
1733512133940094700,5.4890947265625,0.1428903043270111,0.24136555194854736,1.1486926078796387
1733512133950112800,5.49911279296875,0.07118576020002365,0.40673983097076416,0.8866940140724182
1733512133960131600,5.509131591796875,-0.05265742912888527,0.5146334767341614,0.7539831399917603
1733512133970149600,5.519149658203125,-0.20117180049419403,0.7969698309898376,0.8276930451393127
1733512133980168700,5.529168701171875,-0.34420254826545715,1.0104901790618896,1.1087104082107544
1733512133990186800,5.539186767578125,-0.40071481466293335,0.9978969097137451,1.5033373832702637
1733512134000205800,5.549205810546875,-0.47202983498573303,0.9761289954185486,1.773148536682129
1733512134010223900,5.559223876953125,-0.5838426351547241,1.0976263284683228,1.83232843875885
1733512134020242700,5.56924267578125,-0.6606090068817139,1.2060046195983887,1.8279101848602295
1733512134030261800,5.57926171875,-0.652836799621582,1.234826683998108,1.8215560913085938
1733512134040279800,5.58927978515625,-0.5918022990226746,1.3437674045562744,1.7432252168655396
1733512134050298600,5.599298583984375,-0.5042242407798767,1.5805439949035645,1.6115318536758423
1733512134060317000,5.60931689453125,-0.3957746922969818,1.8239641189575195,1.4655319452285767
1733512134070335700,5.619335693359375,-0.3187531530857086,1.8408492803573608,1.343566656112671
1733512134080353800,5.629353759765625,-0.28174787759780884,1.8079681396484375,1.2333645820617676
1733512134090372900,5.639372802734375,-0.2862355709075928,1.8423455953598022,1.1229674816131592
1733512134100390700,5.649390625,-0.3058389127254486,1.8721293210983276,0.9741239547729492
1733512134110409700,5.65940966796875,-0.32309114933013916,1.8127390146255493,0.7967092394828796
1733512134120428800,5.6694287109375,-0.31779393553733826,1.6378092765808105,0.6228083372116089
1733512134130446600,5.679446533203125,-0.3043992817401886,1.4180012941360474,0.4568675458431244
1733512134140465700,5.689465576171875,-0.29844897985458374,1.1633719205856323,0.2929554581642151
1733512134150484000,5.69948388671875,-0.28915536403656006,0.9114086031913757,0.1322704404592514
1733512134160502800,5.709502685546875,-0.26940667629241943,0.6936613321304321,-0.015798307955265045
1733512134170520800,5.719520751953125,-0.2611602246761322,0.5169142484664917,-0.13285169005393982
1733512134180540000,5.729539794921875,-0.2509462535381317,0.40927502512931824,-0.22531333565711975
1733512134190557700,5.7395576171875,-0.24983306229114532,0.37773680686950684,-0.2978559732437134
1733512134200576800,5.74957666015625,-0.25879013538360596,0.4293985366821289,-0.34743350744247437
1733512134210595800,5.759595947265625,-0.26911789178848267,0.5070328712463379,-0.3520181477069855
1733512134220613600,5.769613525390625,-0.26007089018821716,0.5279629826545715,-0.2501526176929474
1733512134230632700,5.7796328125,-0.21421977877616882,0.5419816374778748,-0.017694858834147453
1733512134240650800,5.789650634765625,-0.16199369728565216,0.6879891157150269,0.29844409227371216
1733512134250669800,5.799669921875,-0.11698627471923828,0.964271605014801,0.5470957159996033
1733512134260688000,5.80968798828125,-0.0793353021144867,1.185606837272644,0.6556968688964844
1733512134270706700,5.819706787109375,-0.1015884131193161,1.2248831987380981,0.6238515377044678
1733512134280724700,5.829724853515625,-0.1719459593296051,1.1770967245101929,0.5407073497772217
1733512134290743800,5.839743896484375,-0.2515054941177368,1.1514548063278198,0.44951510429382324
1733512134300761600,5.84976171875,-0.3211994767189026,1.1424388885498047,0.39250704646110535
1733512134310780700,5.85978076171875,-0.37243685126304626,1.0917656421661377,0.357492595911026
1733512134320799700,5.8697998046875,-0.40082067251205444,0.945548415184021,0.31721097230911255
1733512134330817800,5.87981787109375,-0.4060114324092865,0.7328497767448425,0.2989579141139984
1733512134340836900,5.8898369140625,-0.3800801932811737,0.4106674790382385,0.48115649819374084
1733512134350855000,5.89985498046875,-0.3045353889465332,-0.04299881309270859,1.4329394102096558
1733512134360873700,5.909873779296875,-0.08868251740932465,0.13168974220752716,2.344547748565674
1733512134370891800,5.919891845703125,0.2601093053817749,0.9676554799079895,1.0182089805603027
1733512134380910800,5.929910888671875,0.7161511182785034,1.4974509477615356,0.8239219188690186
1733512134390928600,5.9399287109375,0.9644656181335449,1.7444274425506592,0.9011943936347961
1733512134400947700,5.94994775390625,0.9029178023338318,1.4874584674835205,0.34685805439949036
1733512134410966800,5.959966796875,0.6558107733726501,0.7642591595649719,-0.28052571415901184
1733512134420984800,5.96998486328125,0.26201245188713074,0.11108098924160004,-0.4636005759239197
1733512134431004000,5.98000390625,-0.2173517346382141,-0.33727309107780457,-0.2945590913295746
1733512134441021700,5.990021728515625,-0.5671279430389404,-0.12047295272350311,-0.30408334732055664
1733512134451040800,6.000040771484375,-0.7721617817878723,0.2581595778465271,-0.6836652755737305
1733512134461058800,6.010058837890625,-0.7200783491134644,0.11826866120100021,-1.3010687828063965
1733512134471077600,6.02007763671875,-0.34644195437431335,-0.5919867753982544,-2.0068626403808594
1733512134481095700,6.030095703125,0.16645283997058868,-1.5503427982330322,-2.6967015266418457
1733512134491114800,6.04011474609375,0.6744148135185242,-2.5188684463500977,-3.0830533504486084
1733512134501133600,6.050133544921875,0.9342041015625,-3.192572593688965,-3.126800060272217
1733512134511151900,6.06015185546875,0.9333159327507019,-3.5475571155548096,-2.972248077392578
1733512134521171000,6.0701708984375,0.7717061042785645,-3.4347870349884033,-2.7587575912475586
1733512134531188700,6.080188720703125,0.5400696396827698,-2.8932511806488037,-2.4154787063598633
1733512134541207800,6.090207763671875,0.1560458540916443,-2.266171932220459,-2.18088960647583
1733512134551225600,6.1002255859375,0.013926790095865726,-1.4235483407974243,-2.543509006500244
1733512134561244700,6.11024462890625,-0.06713642925024033,-0.6377481818199158,-2.7602922916412354
1733512134571262700,6.1202626953125,-0.16723239421844482,-0.2120695859193802,-2.4396426677703857
1733512134581281500,6.130281494140625,-0.206565260887146,0.13101637363433838,-1.7754372358322144
1733512134591299800,6.1402998046875,-0.28098249435424805,0.5054107308387756,-1.0819116830825806
1733512134601319000,6.15031884765625,-0.30205145478248596,0.9397848844528198,-0.5848200917243958
1733512134611337700,6.160337646484375,-0.3341792821884155,1.394607424736023,-0.2796758711338043
1733512134621355800,6.170355712890625,-0.36497363448143005,1.744662880897522,-0.12239886075258255
1733512134631374800,6.180374755859375,-0.3724805414676666,1.8652756214141846,-0.08795513212680817
1733512134641392600,6.190392578125,-0.4384690523147583,1.7017790079116821,-0.14049001038074493
1733512134651411700,6.20041162109375,-0.5372744202613831,1.329402208328247,-0.24544759094715118
1733512134661429800,6.2104296875,-0.614938497543335,0.8353084921836853,-0.3548983335494995
1733512134671448800,6.22044873046875,-0.6295813322067261,0.301777720451355,-0.45854058861732483
1733512134681467000,6.230466796875,-0.6183707118034363,-0.16533105075359344,-0.5641151070594788
1733512134691485700,6.240485595703125,-0.5859736204147339,-0.5013119578361511,-0.6186236143112183
1733512134701504800,6.2505048828125,-0.5200888514518738,-0.7062358856201172,-0.6025453805923462
1733512134711522800,6.260522705078125,-0.41862615942955017,-0.7810211777687073,-0.5074465870857239
1733512134721541600,6.270541748046875,-0.31050166487693787,-0.7142480611801147,-0.37868648767471313
1733512134731559700,6.2805595703125,-0.19511033594608307,-0.49351194500923157,-0.2817319929599762
1733512134741578800,6.290578857421875,-0.05267075076699257,-0.16046057641506195,-0.2579263746738434
1733512134751596800,6.3005966796875,0.12054604291915894,0.2561795115470886,-0.35245180130004883
1733512134761616000,6.310615966796875,0.26276013255119324,0.7540588974952698,-0.6147850751876831
1733512134771634000,6.320634033203125,0.2780514657497406,1.163027286529541,-1.0177255868911743
1733512134781652700,6.33065283203125,0.25023356080055237,1.4175801277160645,-1.512800931930542
1733512134791670800,6.3406708984375,0.2734065353870392,1.456760048866272,-2.0678329467773438
1733512134801689900,6.35068994140625,0.35845568776130676,1.1045712232589722,-2.644044876098633
1733512134811708700,6.360708740234375,0.43716275691986084,0.27848032116889954,-3.1357414722442627
1733512134821726700,6.370726806640625,0.42845016717910767,-0.8420861959457397,-3.335719108581543
1733512134831745800,6.380745849609375,0.2998402714729309,-1.9768133163452148,-3.1583757400512695
1733512134841763800,6.390763916015625,0.04792001470923424,-2.7977871894836426,-2.6404058933258057
1733512134851783000,6.400782958984375,-0.28330639004707336,-3.071223258972168,-1.836094617843628
1733512134861800700,6.41080078125,-0.5528771281242371,-2.812088966369629,-0.808036744594574
1733512134871819800,6.42081982421875,-0.5702545046806335,-2.1804676055908203,0.17871159315109253
1733512134881837800,6.430837890625,-0.5181494951248169,-1.0517420768737793,0.8220722079277039
1733512134891856600,6.440856689453125,-0.4079371988773346,0.6519733667373657,1.2065560817718506
1733512134901875700,6.450875732421875,-0.1640138328075409,1.9658571481704712,1.7756215333938599
1733512134911893800,6.460893798828125,0.07111532241106033,2.620032548904419,2.37184739112854
1733512134921912600,6.47091259765625,0.229824036359787,2.681091070175171,2.824040651321411
1733512134931931000,6.480930908203125,0.3486359119415283,2.2214207649230957,3.068504810333252
1733512134941949400,6.490949462890625,0.5112327337265015,1.3715389966964722,3.086343288421631
1733512134951967500,6.500967529296875,0.7395106554031372,0.2804235816001892,2.8960485458374023
1733512134961986600,6.510986572265625,0.9464254379272461,-0.8562869429588318,2.575498104095459
1733512134972004400,6.52100439453125,1.039318323135376,-1.832496166229248,2.1858184337615967
1733512134982023400,6.5310234375,1.0694583654403687,-2.4750547409057617,1.8333590030670166
1733512134992041500,6.54104150390625,1.0755380392074585,-2.6257359981536865,1.5341347455978394
1733512135002060300,6.551060302734375,0.9554721117019653,-2.2824504375457764,1.2488985061645508
1733512135012079400,6.561079345703125,0.6949427723884583,-1.7246932983398438,1.0251426696777344
1733512135022097400,6.571097412109375,0.43632885813713074,-0.9895778298377991,0.8838233947753906
1733512135032116500,6.581116455078125,0.23456643521785736,-0.3234962522983551,0.831558346748352
1733512135042134500,6.591134521484375,0.08604319393634796,-0.003080541267991066,0.8149893283843994
1733512135052153300,6.6011533203125,-0.017735933884978294,-0.0889618918299675,0.737315833568573
1733512135062171400,6.61117138671875,-0.09361836314201355,-0.4640485346317291,0.551853597164154
1733512135072190500,6.6211904296875,-0.18517623841762543,-0.7590740919113159,0.36763447523117065
1733512135082208500,6.63120849609375,-0.3332216143608093,-0.8089995384216309,0.32603776454925537
1733512135092227600,6.6412275390625,-0.5224900841712952,-0.5846484899520874,0.5218818783760071
1733512135102245400,6.651245361328125,-0.6681176424026489,-0.045334622263908386,0.9861037731170654
1733512135112264400,6.661264404296875,-0.7011690735816956,0.7421221137046814,1.5231037139892578
1733512135122283500,6.671283447265625,-0.7126122117042542,1.5652521848678589,1.8963513374328613
1733512135132301300,6.68130126953125,-0.7052978873252869,2.1109519004821777,2.0813775062561035
1733512135142320400,6.6913203125,-0.6914357542991638,2.2998900413513184,2.1111958026885986
1733512135152338400,6.70133837890625,-0.6483803987503052,2.251803398132324,2.0455853939056396
1733512135162357200,6.711357177734375,-0.6037135720252991,2.1227328777313232,1.9188587665557861
1733512135172375600,6.72137548828125,-0.5526648163795471,2.0228230953216553,1.7362171411514282
1733512135182394600,6.73139453125,-0.4621266722679138,1.9853495359420776,1.5366219282150269
1733512135192412400,6.741412353515625,-0.3627324402332306,1.9195103645324707,1.353650450706482
1733512135202431500,6.751431396484375,-0.3112304210662842,1.9364360570907593,1.2102675437927246
1733512135212450600,6.761450439453125,-0.3139524459838867,1.9331278800964355,1.1347336769104004
1733512135222468400,6.77146826171875,-0.30956822633743286,1.866180658340454,1.0748401880264282
1733512135232487400,6.7814873046875,-0.2984103858470917,1.7457035779953003,0.9912570714950562
1733512135242505200,6.791505126953125,-0.3069688379764557,1.6100730895996094,0.8691006898880005
1733512135252524300,6.801524169921875,-0.3332284092903137,1.4748897552490234,0.6944739818572998
1733512135262542600,6.81154248046875,-0.3481518030166626,1.3542237281799316,0.4862155318260193
1733512135272561400,6.8215615234375,-0.34206196665763855,1.2419565916061401,0.27638211846351624
1733512135282579500,6.831579345703125,-0.29824793338775635,1.1150360107421875,0.12463473528623581
1733512135292598500,6.8415986328125,-0.2307056486606598,1.0506125688552856,0.07155687361955643
1733512135302616300,6.8516162109375,-0.1692938655614853,1.1545002460479736,0.10374574363231659
1733512135312635400,6.861635498046875,-0.10718229413032532,1.29232919216156,0.14799922704696655
1733512135322654500,6.871654541015625,-0.0517292395234108,1.3660669326782227,0.19148939847946167
1733512135332672300,6.88167236328125,-0.03122636117041111,1.3740910291671753,0.24072539806365967
1733512135342691300,6.89169140625,-0.030487414449453354,1.3341021537780762,0.2817501723766327
1733512135352709600,6.901709716796875,-0.03371623158454895,1.2259283065795898,0.312356561422348
1733512135362728400,6.911728515625,-0.03428737446665764,1.0504980087280273,0.3278679847717285
1733512135372746500,6.92174658203125,-0.040395334362983704,0.953913152217865,0.33704283833503723
1733512135382765600,6.931765625,-0.04570658504962921,1.0060538053512573,0.34818992018699646
1733512135392783400,6.941783447265625,-0.06507069617509842,1.0949162244796753,0.32707077264785767
1733512135402802400,6.951802490234375,-0.08444350957870483,1.1322510242462158,0.2914521098136902
1733512135412820200,6.9618203125,-0.12906956672668457,1.1061917543411255,0.2672729790210724
1733512135422839300,6.97183935546875,-0.2235141098499298,1.084385633468628,0.2429308295249939
1733512135432858400,6.9818583984375,-0.33792588114738464,1.049872636795044,0.17103053629398346
1733512135442876400,6.99187646484375,-0.46171948313713074,0.9635365605354309,0.07435391843318939
1733512135452895500,7.0018955078125,-0.5885487794876099,0.7672469615936279,-0.007181152235716581
1733512135462913500,7.01191357421875,-0.6538690328598022,0.49976950883865356,-0.05981963872909546
1733512135472932400,7.021932373046875,-0.6833116412162781,0.1796192079782486,-0.13554847240447998
1733512135482950400,7.031950439453125,-0.6808091402053833,-0.19008147716522217,-0.24324782192707062
1733512135492969500,7.041969482421875,-0.6263808012008667,-0.5166406631469727,-0.37301406264305115
1733512135502987300,7.0519873046875,-0.49197468161582947,-0.9194155335426331,-0.475419282913208
1733512135513006300,7.06200634765625,-0.28705376386642456,-1.5947250127792358,-0.6395571231842041
1733512135523025400,7.072025390625,-0.07697407901287079,-2.389646053314209,-0.6113049983978271
1733512135533043500,7.08204345703125,0.13808096945285797,-2.7144875526428223,-0.4929453134536743
1733512135543062500,7.0920625,0.4968201816082001,-2.6268744468688965,-0.13897985219955444
1733512135553080300,7.102080322265625,0.8874518275260925,-1.525154709815979,-0.13530176877975464
1733512135563099400,7.112099365234375,1.022436499595642,0.2684578597545624,-0.358084499835968
1733512135573117400,7.122117431640625,0.7791320085525513,0.7497145533561707,-0.10455930233001709
1733512135583136300,7.13213623046875,0.4549800157546997,0.7337116003036499,0.17068243026733398
1733512135593154300,7.142154296875,0.24055905640125275,0.9445191621780396,0.2798704206943512
1733512135603173400,7.15217333984375,0.2950502336025238,2.0043327808380127,0.10276269912719727
1733512135613191400,7.16219140625,0.5064740777015686,3.6121394634246826,-0.354785680770874
1733512135623210500,7.17221044921875,0.6784113049507141,4.482641696929932,-0.8021773099899292
1733512135633229600,7.1822294921875,0.6655381321907043,4.850669860839844,-1.1979914903640747
1733512135643247400,7.192247314453125,0.536664605140686,4.27891731262207,-1.4025802612304688
1733512135653266400,7.202266357421875,0.3807671368122101,2.9487409591674805,-1.4335325956344604
1733512135663284500,7.212284423828125,0.3505103588104248,1.4811310768127441,-1.36444091796875
1733512135673303300,7.22230322265625,0.22748884558677673,0.04065022990107536,-1.3867791891098022
1733512135683321600,7.232321533203125,0.13027964532375336,-1.1052457094192505,-1.490745186805725
1733512135693340400,7.24234033203125,-0.1404477208852768,-1.7758413553237915,-1.507125735282898
1733512135703358500,7.2523583984375,-0.33113518357276917,-2.2646243572235107,-1.6092280149459839
1733512135713377500,7.26237744140625,-0.31252527236938477,-2.555752754211426,-1.750299334526062
1733512135723396600,7.272396728515625,-0.23234792053699493,-2.74391508102417,-1.9284508228302002
1733512135733414400,7.282414306640625,-0.2832963168621063,-2.8310341835021973,-2.0818915367126465
1733512135743433500,7.29243359375,-0.5271713137626648,-2.8129522800445557,-2.2224011421203613
1733512135753451300,7.302451171875,-0.7744223475456238,-2.6752841472625732,-2.5054287910461426
1733512135763470300,7.31247021484375,-0.9073766469955444,-2.4195244312286377,-2.8890204429626465
1733512135773488600,7.322488525390625,-0.8303199410438538,-2.1532628536224365,-3.166621208190918
1733512135783507500,7.332507568359375,-0.5931396484375,-1.9822900295257568,-3.1540443897247314
1733512135793525500,7.342525390625,-0.4112744927406311,-1.9264646768569946,-2.8677451610565186
1733512135803544600,7.352544677734375,-0.34477517008781433,-1.947911262512207,-2.337916612625122
1733512135813562400,7.362562255859375,-0.2656156122684479,-1.9843802452087402,-1.585824966430664
1733512135823581400,7.37258154296875,-0.13863584399223328,-1.641601800918579,-0.8651139736175537
1733512135833600500,7.3826005859375,-0.03783174604177475,-0.7230016589164734,-0.41973328590393066
1733512135843618300,7.392618408203125,0.008886306546628475,0.269222229719162,-0.10405801236629486
1733512135853637400,7.402637451171875,0.02591482363641262,1.007694125175476,0.2506611943244934
1733512135863655400,7.412655517578125,0.04642941802740097,1.4462224245071411,0.6374841332435608
1733512135873674500,7.422674560546875,0.07251587510108948,1.6840806007385254,0.9932781457901001
1733512135883692500,7.432692626953125,0.11826790124177933,1.8093514442443848,1.2413702011108398
1733512135893711400,7.44271142578125,0.15263065695762634,1.883311152458191,1.3646900653839111
1733512135903729400,7.4527294921875,0.17376331984996796,1.9229058027267456,1.3522937297821045
1733512135913748500,7.46274853515625,0.19471174478530884,1.9434033632278442,1.2258785963058472
1733512135923766300,7.472766357421875,0.23558005690574646,1.9407371282577515,0.9886348247528076
1733512135933785300,7.482785400390625,0.27140915393829346,1.908574104309082,0.6454119682312012
1733512135943804700,7.4928046875,0.2621808648109436,1.8682663440704346,0.20263177156448364
1733512135953822700,7.50282275390625,0.18917375802993774,1.7967005968093872,-0.2769619822502136
1733512135963841800,7.512841796875,0.12687519192695618,1.5763534307479858,-0.7522885203361511
1733512135973859600,7.522859619140625,0.09486240893602371,1.2097855806350708,-1.1248337030410767
1733512135983878700,7.532878662109375,0.021492429077625275,0.7830039262771606,-1.3117696046829224
1733512135993896700,7.542896728515625,-0.10815238207578659,0.35037392377853394,-1.3006415367126465
1733512136003915500,7.55291552734375,-0.26046526432037354,-0.050313159823417664,-1.1505855321884155
1733512136013933600,7.56293359375,-0.40759027004241943,-0.4033955931663513,-0.9227930903434753
1733512136023952600,7.57295263671875,-0.5047390460968018,-0.6711382269859314,-0.6489166617393494
1733512136033971500,7.582971435546875,-0.5596368908882141,-0.7516705989837646,-0.3057246804237366
1733512136043989800,7.59298974609375,-0.6188516616821289,-0.6440408825874329,0.08890565484762192
1733512136054008800,7.6030087890625,-0.6747048497200012,-0.5169883966445923,0.4966595768928528
1733512136064026600,7.613026611328125,-0.6780763864517212,-0.5041354298591614,0.8191109895706177
1733512136074045700,7.623045654296875,-0.6430944204330444,-0.6395766139030457,0.7862547636032104
1733512136084063500,7.6330634765625,-0.6075050234794617,-0.7471715807914734,0.04507797956466675
1733512136094082600,7.64308251953125,-0.2984829843044281,-0.7144051194190979,-0.6642951965332031
1733512136104100600,7.6531005859375,0.1635192632675171,-0.7169049978256226,-0.721419632434845
1733512136114119400,7.663119384765625,0.4007107615470886,-0.8035032749176025,-0.34136253595352173
1733512136124137700,7.6731376953125,0.40347620844841003,-0.8637711405754089,0.14686453342437744
1733512136134156800,7.68315673828125,0.4125426709651947,-0.8690455555915833,0.5901058316230774
1733512136144175600,7.693175537109375,0.5037511587142944,-0.8984138369560242,1.0402294397354126
1733512136154193700,7.703193603515625,0.6192553639411926,-0.8414373397827148,1.5598902702331543
1733512136164212700,7.713212646484375,0.6883910298347473,-0.5883398652076721,1.9965466260910034
1733512136174230500,7.72323046875,0.6668596863746643,-0.26028451323509216,2.2414703369140625
1733512136184249600,7.73324951171875,0.6243056058883667,0.04844926297664642,2.2791998386383057
1733512136194267600,7.743267578125,0.6077790856361389,0.28763577342033386,2.115518808364868
1733512136204286500,7.753286376953125,0.6042258739471436,0.44430801272392273,1.8283624649047852
1733512136214304800,7.7633046875,0.6091548204421997,0.44581031799316406,1.5062440633773804
1733512136224323800,7.77332373046875,0.6579910516738892,0.1301954686641693,1.220119833946228
1733512136234341600,7.783341552734375,0.6949319839477539,-0.5386236310005188,1.030855655670166
1733512136244360700,7.793360595703125,0.6717672348022461,-0.9599447250366211,0.8737057447433472
1733512136254379800,7.8033798828125,0.5853103995323181,-0.7597993612289429,0.7358839511871338
1733512136264397600,7.8133974609375,0.43750903010368347,-0.35851606726646423,0.6345687508583069
1733512136274416600,7.823416748046875,0.25195008516311646,-0.04715495929121971,0.611016571521759
1733512136284434400,7.833434326171875,0.09223485738039017,0.11396311223506927,0.6417471170425415
1733512136294453500,7.84345361328125,-0.052437908947467804,0.18851111829280853,0.6611799597740173
1733512136304471800,7.853471923828125,-0.18801471590995789,0.26301297545433044,0.6528064608573914
1733512136314490600,7.86349072265625,-0.2976280152797699,0.4198678433895111,0.6356884241104126
1733512136324508700,7.8735087890625,-0.3873973786830902,0.6259909868240356,0.6604453325271606
1733512136334527700,7.88352783203125,-0.4575413167476654,0.8210209012031555,0.7550626397132874
1733512136344546600,7.893546630859375,-0.49890485405921936,0.9946297407150269,0.8944312930107117
1733512136354564600,7.903564697265625,-0.5290811657905579,1.1820635795593262,1.0023937225341797
1733512136364583700,7.913583740234375,-0.5609952807426453,1.3555495738983154,1.0501258373260498
1733512136374601700,7.923601806640625,-0.5956946611404419,1.4702003002166748,1.0653820037841797
1733512136384620500,7.93362060546875,-0.5779464840888977,1.5823434591293335,1.0483336448669434
1733512136394638600,7.943638671875,-0.533169686794281,1.7296175956726074,1.0424329042434692
1733512136404657700,7.95365771484375,-0.4869900643825531,1.8725613355636597,1.0743893384933472
1733512136414675700,7.96367578125,-0.4309382438659668,1.999403953552246,1.1298956871032715
1733512136424694500,7.973694580078125,-0.37641072273254395,2.0826492309570312,1.2045825719833374
1733512136434712600,7.983712646484375,-0.32087209820747375,2.1160900592803955,1.2558281421661377
1733512136444731600,7.993731689453125,-0.293523371219635,2.0886647701263428,1.2315864562988281
1733512136454750500,8.00375048828125,-0.2923734188079834,1.9726077318191528,1.1551105976104736
1733512136464768800,8.013768798828124,-0.3142324686050415,1.791012167930603,1.0581554174423218
1733512136474787800,8.023787841796874,-0.33377689123153687,1.603014349937439,0.9616134166717529
1733512136484805600,8.0338056640625,-0.34317654371261597,1.4657589197158813,0.8953078389167786
1733512136494824700,8.04382470703125,-0.34298667311668396,1.446768879890442,0.8783901333808899
1733512136504842500,8.053842529296874,-0.32213127613067627,1.5210760831832886,0.8909701704978943
1733512136514861600,8.063861572265624,-0.276054322719574,1.6198875904083252,0.9169162511825562
1733512136524879600,8.073879638671874,-0.2304753214120865,1.6654784679412842,0.9221522212028503
1733512136534898400,8.0838984375,-0.19253724813461304,1.653412938117981,0.8983345031738281
1733512136544916700,8.093916748046874,-0.18080660700798035,1.6246933937072754,0.8483927249908447
1733512136554935800,8.103935791015624,-0.18361970782279968,1.5942459106445312,0.7873144745826721
1733512136564954600,8.11395458984375,-0.19873909652233124,1.542155385017395,0.7193683981895447
1733512136574972700,8.12397265625,-0.22400157153606415,1.490064024925232,0.6613487601280212
1733512136584991700,8.13399169921875,-0.24818697571754456,1.429551601409912,0.609283983707428
1733512136595009500,8.144009521484374,-0.25156253576278687,1.3422083854675293,0.5798566341400146
1733512136605028600,8.154028564453125,-0.2292405068874359,1.2461777925491333,0.6029807329177856
1733512136615046700,8.164046630859374,-0.18492524325847626,1.1771883964538574,0.6722631454467773
1733512136625065500,8.1740654296875,-0.14451080560684204,1.0897390842437744,0.7354674339294434
1733512136635083800,8.184083740234374,-0.11557316780090332,0.955102801322937,0.7415711283683777
1733512136645102800,8.194102783203125,-0.11690028011798859,0.8068004846572876,0.6517295241355896
1733512136655120600,8.20412060546875,-0.1825741082429886,0.7121080160140991,0.46972477436065674
1733512136665139700,8.2141396484375,-0.2576788067817688,0.6941788196563721,0.35101988911628723
1733512136675158800,8.22415869140625,-0.28217750787734985,0.5866443514823914,0.562532901763916
1733512136685176600,8.234176513671875,-0.23434528708457947,0.7589772939682007,0.7670895457267761
1733512136695195600,8.244195556640625,-0.18501076102256775,1.4057978391647339,0.40191930532455444
1733512136705213400,8.25421337890625,-0.08487119525671005,1.9017812013626099,0.04666119068861008
1733512136715232500,8.264232421875,0.10810784995555878,1.894446849822998,-0.034045640379190445
1733512136725250800,8.274250732421875,0.3614812195301056,1.5696028470993042,-0.12254822254180908
1733512136735269600,8.28426953125,0.5187594890594482,1.2083029747009277,-0.3966716527938843
1733512136745287700,8.29428759765625,0.4756506383419037,0.6805829405784607,-0.7613858580589294
1733512136755306800,8.304306640625,0.20923492312431335,-0.13745278120040894,-0.9515224695205688
1733512136765325600,8.31432568359375,-0.056992609053850174,-1.2899483442306519,-0.9586651921272278
1733512136775343600,8.324343505859375,-0.0968707799911499,-2.5463602542877197,-0.9816426634788513
1733512136785362700,8.33436279296875,0.023741092532873154,-3.5621581077575684,-1.1217294931411743
1733512136795380500,8.34438037109375,0.28750428557395935,-4.003223896026611,-1.3680648803710938
1733512136805399600,8.354399658203125,0.5201647281646729,-3.7480599880218506,-1.7217490673065186
1733512136815417600,8.36441748046875,0.45556411147117615,-2.843517541885376,-2.2656331062316895
1733512136825436700,8.374436767578125,0.3190959692001343,-1.5236018896102905,-2.7441322803497314
1733512136835454700,8.384454833984375,0.4472065567970276,-0.6373852491378784,-2.7663354873657227
1733512136845473500,8.3944736328125,0.7232818603515625,-0.08619441092014313,-2.4378225803375244
1733512136855491600,8.40449169921875,0.9527512788772583,0.5081160664558411,-1.960227370262146
1733512136865510700,8.4145107421875,1.1134628057479858,1.2163337469100952,-1.4100297689437866
1733512136875529500,8.424529541015625,1.07318913936615,1.9898810386657715,-0.994792640209198
1733512136885547500,8.434547607421875,0.9023175835609436,2.729022741317749,-0.7219194173812866
1733512136895566600,8.444566650390625,0.7421934008598328,3.112420082092285,-0.5641856789588928
1733512136905584600,8.454584716796875,0.5212121605873108,3.196289300918579,-0.5388089418411255
1733512136915603700,8.464603759765625,0.2622770071029663,3.105452299118042,-0.6545643210411072
1733512136925621800,8.474621826171875,-0.061022739857435226,2.471367120742798,-1.0369354486465454
1733512136935640600,8.484640625,-0.4871543347835541,1.5304124355316162,-1.5243887901306152
1733512136945659000,8.494658935546875,-0.8196945786476135,0.7323355078697205,-1.8954216241836548
1733512136955678000,8.504677978515625,-0.9483934640884399,0.23306947946548462,-2.04997181892395
1733512136965695700,8.51469580078125,-1.0227688550949097,-0.013994904235005379,-2.010033130645752
1733512136975714800,8.52471484375,-1.1264604330062866,-0.131709024310112,-1.7861849069595337
1733512136985734000,8.53473388671875,-1.2211765050888062,-0.24855449795722961,-1.388088345527649
1733512136995752000,8.544751953125,-1.2204062938690186,-0.41785672307014465,-0.89366215467453
1733512137005771000,8.55477099609375,-1.161516547203064,-0.622356653213501,-0.40920567512512207
1733512137015788800,8.564788818359375,-1.1198886632919312,-0.8252969980239868,0.012156742624938488
1733512137025808000,8.574807861328125,-1.1136423349380493,-0.8593384027481079,0.2457900494337082
1733512137035826000,8.584825927734375,-1.0925439596176147,-0.06554703414440155,-0.15930524468421936
1733512137045844700,8.5948447265625,-0.7512596249580383,1.65336275100708,-1.1691569089889526
1733512137055862800,8.60486279296875,-0.16096492111682892,2.784090518951416,-1.8946465253829956
1733512137065881900,8.6148818359375,0.1977037936449051,2.915961265563965,-2.183694362640381
1733512137075900700,8.624900634765625,0.47439396381378174,2.195369005203247,-2.3258631229400635
1733512137085919000,8.6349189453125,0.6551413536071777,0.805505096912384,-2.46952486038208
1733512137095938000,8.64493798828125,0.6099402904510498,-0.9154767394065857,-2.5194811820983887
1733512137105955800,8.654955810546875,0.39706146717071533,-2.4649813175201416,-2.147777557373047
1733512137115975000,8.664974853515625,0.20922605693340302,-3.378220796585083,-1.1882219314575195
1733512137125992700,8.67499267578125,0.20386521518230438,-3.154141426086426,-0.0780661329627037
1733512137136011800,8.68501171875,0.27381476759910583,-2.345266342163086,0.8547667860984802
1733512137146029800,8.69502978515625,0.35271477699279785,-1.324093222618103,1.5923150777816772
1733512137156049000,8.705048828125,0.39316126704216003,-0.2769703269004822,2.211491107940674
1733512137166067000,8.71506689453125,0.4308903217315674,0.6238792538642883,2.686643362045288
1733512137176086000,8.7250859375,0.434690922498703,1.3059285879135132,2.9960381984710693
1733512137186104800,8.735104736328125,0.36053749918937683,1.7023998498916626,3.170948028564453
1733512137196123000,8.745122802734375,0.22942927479743958,1.7820770740509033,3.1961183547973633
1733512137206142000,8.755141845703125,0.14661677181720734,1.5293306112289429,3.047801971435547
1733512137216159700,8.76515966796875,0.14767137169837952,0.9526462554931641,2.7058908939361572
1733512137226178800,8.7751787109375,0.22515079379081726,0.1054510697722435,2.189152956008911
1733512137236197000,8.785197021484375,0.3174234628677368,-0.8724707365036011,1.6321866512298584
1733512137246216000,8.7952158203125,0.3685470521450043,-1.6251894235610962,1.1838654279708862
1733512137256234000,8.80523388671875,0.3634662926197052,-1.9216207265853882,0.8874998092651367
1733512137266253000,8.815253173828125,0.30628862977027893,-1.8061209917068481,0.7156829833984375
1733512137276270800,8.825270751953125,0.2091120183467865,-1.4618666172027588,0.6003862619400024
1733512137286290000,8.8352900390625,0.11016801744699478,-1.0025442838668823,0.49079450964927673
1733512137296309000,8.84530908203125,0.07412532716989517,-0.6279477477073669,0.43023794889450073
1733512137306326800,8.855326904296875,0.12003721296787262,-0.3879123628139496,0.44678622484207153
1733512137316345900,8.865345947265626,0.13917416334152222,-0.1711914986371994,0.4894372820854187
1733512137326364000,8.875364013671875,0.15465153753757477,0.09168501943349838,0.5315471887588501
1733512137336383000,8.885383056640626,0.1483805924654007,0.16352513432502747,0.6143099665641785
1733512137346401000,8.895401123046875,0.11165747046470642,0.30353212356567383,0.7609758973121643
1733512137356419800,8.905419921875,0.06686363369226456,0.4976049065589905,0.9536145925521851
1733512137366438000,8.91543798828125,0.042933594435453415,0.6377517580986023,1.1364144086837769
1733512137376457000,8.92545703125,0.03001593053340912,0.7954050898551941,1.240193247795105
1733512137386474800,8.935474853515625,-0.002183497417718172,0.9325809478759766,1.2257343530654907
1733512137396493800,8.945493896484376,-0.08250550180673599,1.0082954168319702,1.109076738357544
1733512137406513000,8.955512939453126,-0.2194240689277649,0.9808041453361511,0.936494767665863
1733512137416531000,8.965531005859376,-0.3617761433124542,0.8727279901504517,0.7677038908004761
1733512137426550000,8.975550048828126,-0.4797261655330658,0.7928699851036072,0.6435966491699219
1733512137436567800,8.98556787109375,-0.5525633692741394,0.8299041986465454,0.5919036269187927
1733512137446587000,8.9955869140625,-0.57230544090271,0.9723374843597412,0.6098636388778687
1733512137456605000,9.00560498046875,-0.5419672727584839,1.1854238510131836,0.6953660249710083
1733512137466623700,9.015623779296876,-0.493169903755188,1.444462776184082,0.8226000666618347
1733512137476641800,9.025641845703126,-0.4485909640789032,1.701124906539917,0.9561251401901245
1733512137486660900,9.035660888671876,-0.4078749120235443,1.8661072254180908,1.0646377801895142
1733512137496679000,9.045678955078126,-0.37522509694099426,1.8979551792144775,1.1371263265609741
1733512137506698000,9.055697998046876,-0.35514378547668457,1.8277344703674316,1.1374329328536987
1733512137516717000,9.065717041015626,-0.35961684584617615,1.699188470840454,1.0664006471633911
1733512137526734800,9.07573486328125,-0.37738850712776184,1.5169817209243774,0.9505667686462402
1733512137536754000,9.08575390625,-0.38741636276245117,1.3155373334884644,0.8059845566749573
1733512137546772000,9.09577197265625,-0.39729225635528564,1.1333223581314087,0.6636807322502136
1733512137556790800,9.105790771484376,-0.38514450192451477,1.0113900899887085,0.5545015335083008
1733512137566808800,9.115808837890626,-0.35264861583709717,0.9881568551063538,0.4871147871017456
1733512137576828000,9.125827880859376,-0.30320703983306885,1.116357684135437,0.48552459478378296
1733512137586846000,9.135845947265626,-0.2500618100166321,1.1636009216308594,0.5210698246955872
1733512137596865000,9.145864990234376,-0.2028077393770218,1.1164658069610596,0.5473661422729492
1733512137606884000,9.155884033203124,-0.1710641235113144,1.0403093099594116,0.535885751247406
1733512137616902000,9.16590185546875,-0.15334931015968323,0.9609537124633789,0.5107950568199158
1733512137626921000,9.1759208984375,-0.13976392149925232,0.9136478304862976,0.5120492577552795
1733512137636938800,9.185938720703126,-0.11351846903562546,0.9186689853668213,0.5399045944213867
1733512137646957800,9.195957763671874,-0.07588837295770645,0.9264786839485168,0.5921396017074585
1733512137656976000,9.205975830078126,-0.038184668868780136,0.9269074201583862,0.6572749614715576
1733512137666994700,9.21599462890625,-0.029982317239046097,0.9335800409317017,0.710782527923584
1733512137677013000,9.226012939453126,-0.07086743414402008,0.9669758677482605,0.7479956746101379
1733512137687032000,9.236031982421874,-0.15311086177825928,0.9958428144454956,0.7412847876548767
1733512137697049900,9.2460498046875,-0.2454168200492859,0.971169650554657,0.661532461643219
1733512137707069000,9.25606884765625,-0.3073398470878601,0.8917661905288696,0.4923631548881531
1733512137717088000,9.266087890625,-0.3380306363105774,0.7178388833999634,0.24797603487968445
1733512137727105800,9.276105712890624,-0.36381226778030396,0.5114765167236328,-0.034191615879535675
1733512137737124900,9.286124755859374,-0.41579023003578186,0.3177506923675537,-0.32216084003448486
1733512137747143000,9.296142822265624,-0.48564034700393677,0.02788705937564373,-0.5478787422180176
1733512137757161700,9.30616162109375,-0.5294197797775269,-0.3709109425544739,-0.7154315710067749
1733512137767180000,9.316179931640624,-0.5439386963844299,-0.7934420704841614,-0.8257574439048767
1733512137777198800,9.32619873046875,-0.5258233547210693,-1.0970572233200073,-0.6872139573097229
1733512137787217000,9.336216796875,-0.3642219305038452,-0.9628106355667114,-0.019741002470254898
1733512137797236000,9.346236083984374,-0.24491339921951294,0.04233509302139282,0.18185842037200928
1733512137807253800,9.356253662109374,-0.054135411977767944,0.9786901473999023,0.011169015429913998
1733512137817272800,9.36627294921875,0.2291189432144165,0.8904039859771729,0.15992067754268646
1733512137827292000,9.3762919921875,0.5814728736877441,0.1672588437795639,0.25418177247047424
1733512137837310000,9.38631005859375,0.7929273247718811,-0.5102388858795166,0.03915815055370331
1733512137847329000,9.3963291015625,0.6802970767021179,-0.8279688358306885,-0.2988030016422272
1733512137857346800,9.406346923828124,0.3887600004673004,-0.9611050486564636,-0.6422674059867859
1733512137867366000,9.416365966796874,0.18553407490253448,-1.0494335889816284,-0.9994279742240906
1733512137877384000,9.426384033203124,0.10150948166847229,-0.9811865091323853,-1.2948510646820068
1733512137887402800,9.43640283203125,0.029677381739020348,-0.638430118560791,-1.4997735023498535
1733512137897420800,9.4464208984375,-0.0048984382301568985,-0.05479118227958679,-1.6442917585372925
1733512137907439900,9.45643994140625,0.0749870166182518,0.3575219213962555,-1.6626038551330566
1733512137917458000,9.4664580078125,0.22649718821048737,0.4341117739677429,-1.5561439990997314
1733512137927477000,9.47647705078125,0.34670114517211914,0.4362265169620514,-1.4839833974838257
1733512137937495000,9.4864951171875,0.35693007707595825,0.22338828444480896,-1.497101068496704
1733512137947514000,9.49651416015625,0.4297654628753662,-0.3323148190975189,-1.484181523323059
1733512137957533200,9.506533203125,0.4239230155944824,-1.038041353225708,-1.4592194557189941
1733512137967551000,9.516551025390624,0.3963318169116974,-1.4741591215133667,-1.3629471063613892
1733512137977570000,9.526570068359375,0.28246089816093445,-1.5650975704193115,-1.2546586990356445
1733512137987587800,9.536587890625,-0.0886477455496788,-1.635625958442688,-1.2625248432159424
1733512137997607000,9.54660693359375,-0.37694051861763,-2.0595381259918213,-1.6503026485443115
1733512138007625200,9.556625244140625,-0.45729485154151917,-2.389673948287964,-2.266955852508545
1733512138017644000,9.56664404296875,-0.5017848610877991,-2.2378907203674316,-2.8068509101867676
1733512138027662000,9.576662109375,-0.5206928253173828,-1.9383728504180908,-2.963188648223877
1733512138037681200,9.58668115234375,-0.4783210754394531,-1.7205091714859009,-2.693690538406372
1733512138047699000,9.596698974609374,-0.3946271240711212,-1.5944052934646606,-2.185586452484131
1733512138057718000,9.606718017578125,-0.3366067111492157,-1.3909735679626465,-1.6863574981689453
1733512138067737000,9.616737060546875,-0.3461487889289856,-1.0180236101150513,-1.344458818435669
1733512138077755000,9.6267548828125,-0.36126914620399475,-0.5016970634460449,-1.1176512241363525
1733512138087774000,9.63677392578125,-0.3804612457752228,0.04514310881495476,-0.9528027176856995
1733512138097792000,9.6467919921875,-0.3767136335372925,0.4888499975204468,-0.8467077016830444
1733512138107811000,9.65681103515625,-0.33186075091362,0.7148354053497314,-0.816772997379303
1733512138117829000,9.6668291015625,-0.23322579264640808,0.6793884634971619,-0.8799397349357605
1733512138127848000,9.676847900390625,-0.12767194211483002,0.4102024734020233,-1.0162386894226074
1733512138137866000,9.686865966796875,-0.05913975089788437,0.0705631747841835,-1.1572812795639038
1733512138147885000,9.696885009765625,-0.08894838392734528,-0.16401073336601257,-1.280392050743103
1733512138157904000,9.70690380859375,-0.20241715013980865,-0.24200060963630676,-1.4519587755203247
1733512138167922000,9.716921875,-0.30304959416389465,-0.13809682428836823,-1.665785789489746
1733512138177941000,9.72694091796875,-0.32701805233955383,0.13569077849388123,-1.8300882577896118
1733512138187959000,9.736958984375,-0.23260940611362457,0.36780041456222534,-1.851973056793213
1733512138197978000,9.74697802734375,-0.1356101632118225,0.19425180554389954,-1.7047092914581299
1733512138207996000,9.756995849609375,-0.16537770628929138,-0.7185942530632019,-1.5294504165649414
1733512138218015000,9.767014892578125,-0.20310430228710175,-2.1011078357696533,-1.3759822845458984
1733512138228033000,9.777032958984375,-0.20001257956027985,-3.29402756690979,-1.0838907957077026
1733512138238051800,9.7870517578125,-0.23873521387577057,-3.696882963180542,-0.6101088523864746
1733512138248070000,9.79706982421875,-0.32572391629219055,-2.9243266582489014,0.02505481243133545
1733512138258089000,9.8070888671875,-0.42911607027053833,-1.2262767553329468,0.8098958134651184
1733512138268107800,9.817107666015625,-0.41437724232673645,0.4774317145347595,1.7091485261917114
1733512138278126000,9.8271259765625,-0.2962607443332672,1.611664056777954,2.510113000869751
1733512138288145200,9.837145263671875,-0.17918427288532257,2.1363472938537598,3.1026434898376465
1733512138298163000,9.847162841796875,-0.061114352196455,2.13382625579834,3.4745395183563232
1733512138308182000,9.85718212890625,0.08182569593191147,1.6870319843292236,3.6719307899475098
1733512138318200000,9.867199951171875,0.23232518136501312,0.9108419418334961,3.6898794174194336
1733512138328219000,9.877218994140625,0.3557393252849579,-0.005160639062523842,3.4433109760284424
1733512138338237000,9.88723681640625,0.4978884756565094,-0.9047082662582397,2.92234468460083
1733512138348256000,9.897256103515625,0.6558617949485779,-1.66801917552948,2.174935817718506
1733512138358274000,9.907274169921875,0.7835984230041504,-2.102419376373291,1.3102033138275146
1733512138368293000,9.917293212890625,0.8493878841400146,-2.1246178150177,0.5327740907669067
1733512138378312200,9.927312255859375,0.8887677788734436,-2.0404160022735596,0.1628119945526123
1733512138388330000,9.937330078125,0.9387193918228149,-1.8229883909225464,0.06745097041130066
1733512138398349000,9.94734912109375,0.9643121361732483,-1.266143798828125,0.027480915188789368
1733512138408366800,9.957366943359375,0.9554382562637329,-0.5805407762527466,0.009073945693671703
1733512138418386000,9.967385986328125,0.872489869594574,-0.011094668880105019,0.042386628687381744
1733512138428404000,9.977404052734375,0.7366539239883423,0.30660921335220337,0.10704022645950317
1733512138438423000,9.987423095703125,0.6040471196174622,0.20920118689537048,0.2207327038049698
1733512138448441000,9.997441162109375,0.4604109525680542,-0.15742617845535278,0.3925432562828064
1733512138458460200,10.007460205078125,0.2642291784286499,-0.3782286047935486,0.6007319092750549
1733512138468478000,10.01747802734375,0.043512724339962006,-0.26604336500167847,0.8089959621429443
1733512138478497000,10.0274970703125,-0.1068408265709877,0.04779632017016411,1.0106042623519897
1733512138488516000,10.03751611328125,-0.15908245742321014,0.3945891559123993,1.1708825826644897
1733512138498534000,10.047533935546875,-0.1821289211511612,0.69440758228302,1.243867039680481
1733512138508553000,10.057552978515625,-0.22590221464633942,0.8918020725250244,1.2265113592147827
1733512138518571000,10.067571044921875,-0.27007153630256653,0.9377304315567017,1.121199369430542
1733512138528590000,10.077590087890625,-0.28807419538497925,0.8313697576522827,0.9664862751960754
1733512138538608000,10.087608154296875,-0.3068905174732208,0.6010963916778564,0.7971742153167725
1733512138548627000,10.097626953125,-0.3272770047187805,0.2865943908691406,0.6631903052330017
1733512138558645000,10.10764501953125,-0.3716583251953125,0.03332669287919998,0.5644802451133728
1733512138568664000,10.1176640625,-0.4129624366760254,-0.1020604595541954,0.5075819492340088
1733512138578681900,10.127681884765625,-0.4321768879890442,-0.0321602039039135,0.4425012469291687
1733512138588701000,10.137700927734375,-0.4132588803768158,0.1868281215429306,0.39072808623313904
1733512138598720000,10.147719970703125,-0.39744821190834045,0.5330672860145569,0.452895849943161
1733512138608738000,10.157738037109375,-0.3407253921031952,0.916084885597229,0.6224748492240906
1733512138618757000,10.167757080078125,-0.27515730261802673,1.3640811443328857,0.8152043223381042
1733512138628775200,10.177775146484375,-0.21883122622966766,1.8217382431030273,0.9298951625823975
1733512138638794000,10.1877939453125,-0.20499981939792633,2.2115728855133057,0.963629424571991
1733512138648812000,10.19781201171875,-0.2069726139307022,2.44919490814209,0.9346737265586853
1733512138658831000,10.2078310546875,-0.19804278016090393,2.4950034618377686,0.8727205991744995
1733512138668849000,10.217848876953125,-0.17610715329647064,2.3664681911468506,0.8136765956878662
1733512138678868000,10.227867919921875,-0.15755796432495117,2.147550106048584,0.7678156495094299
1733512138688886000,10.237885986328125,-0.1396634727716446,1.8996943235397339,0.7212728261947632
1733512138698905000,10.247905029296875,-0.12447892129421234,1.6480591297149658,0.6609868407249451
1733512138708924200,10.257924072265626,-0.10917695611715317,1.3879892826080322,0.6014970541000366
1733512138718942000,10.26794189453125,-0.10914047062397003,1.0773253440856934,0.5520650744438171
1733512138728961000,10.2779609375,-0.12633375823497772,0.8183144330978394,0.49448370933532715
1733512138738979000,10.28797900390625,-0.152426615357399,0.7190248370170593,0.43772563338279724
1733512138748998000,10.297997802734375,-0.18531206250190735,0.7418885231018066,0.38148874044418335
1733512138759016000,10.308015869140625,-0.2096581608057022,0.8109421730041504,0.3408084511756897
1733512138769035000,10.318034912109376,-0.22091160714626312,0.8554425239562988,0.3025321662425995
1733512138779053000,10.328052978515625,-0.2262304723262787,0.8429653644561768,0.25879666209220886
1733512138789072100,10.338072021484376,-0.22739864885807037,0.7730306386947632,0.20003841817378998
1733512138799090000,10.34808984375,-0.21746373176574707,0.6355164647102356,0.11536241322755814
1733512138809109000,10.35810888671875,-0.21478579938411713,0.441721647977829,-0.007781691383570433
1733512138819128000,10.368128173828126,-0.24476154148578644,0.2482755035161972,-0.16185808181762695
1733512138829145900,10.378145751953125,-0.26171380281448364,0.08060886710882187,-0.2881860136985779
1733512138839165000,10.3881650390625,-0.20551630854606628,-0.14138132333755493,-0.26598989963531494
1733512138849183000,10.398182861328126,-0.04507507011294365,-0.5849023461341858,0.26889535784721375
1733512138859201800,10.408201904296876,-0.018045583739876747,-0.8514173626899719,0.814287543296814
1733512138869220000,10.41822021484375,-0.08645012229681015,-0.2102779597043991,0.539972186088562
1733512138879239200,10.4282392578125,-0.04950115829706192,0.5290070176124573,0.18303242325782776
1733512138889257000,10.438257080078126,0.22570496797561646,-0.16017889976501465,0.4189690947532654
1733512138899276000,10.448276123046876,0.44855937361717224,-1.3262826204299927,0.7704331278800964
1733512138909294000,10.458294189453126,0.42873573303222656,-1.7347075939178467,0.7806185483932495
1733512138919313000,10.46831298828125,0.4235316514968872,-1.4525105953216553,0.2524508833885193
1733512138929332000,10.47833203125,0.524330735206604,-0.948247492313385,-0.44420719146728516
1733512138939350000,10.48835009765625,0.5735622048377991,-0.6426894068717957,-0.7064303159713745
1733512138949368800,10.498368896484376,0.4389784038066864,-0.14362123608589172,-0.731904923915863
1733512138959387000,10.508386962890626,0.22524240612983704,0.7259740829467773,-0.7370301485061646
1733512138969406000,10.518406005859376,0.20428737998008728,1.2662564516067505,-0.7443146705627441
1733512138979424000,10.528424072265626,0.32957711815834045,1.6845974922180176,-0.8206624388694763
1733512138989442800,10.53844287109375,0.4739886224269867,1.9279377460479736,-0.9831757545471191
1733512138999460900,10.5484609375,0.4847736358642578,1.7559523582458496,-1.2009930610656738
1733512139009480000,10.55847998046875,0.35130250453948975,1.14784574508667,-1.39188814163208
1733512139019498000,10.568498046875,0.13021592795848846,0.40991783142089844,-1.5478540658950806
1733512139029517000,10.57851708984375,-0.08645028620958328,-0.4185214638710022,-1.7414169311523438
1733512139039535900,10.588535888671874,-0.18366286158561707,-1.2779598236083984,-1.9626481533050537
1733512139049554000,10.598553955078126,-0.2482122778892517,-1.8496109247207642,-2.074537992477417
1733512139059573000,10.608572998046874,-0.30918774008750916,-2.2236521244049072,-2.137561321258545
1733512139069591000,10.618591064453126,-0.42612332105636597,-2.5732815265655518,-2.324876070022583
1733512139079609900,10.62860986328125,-0.6992393136024475,-2.7218637466430664,-2.7615842819213867
1733512139089628000,10.6386279296875,-1.021626591682434,-2.4204013347625732,-3.7304694652557373
1733512139099647000,10.64864697265625,-1.1193383932113647,-1.9562925100326538,-4.583456039428711
1733512139109665000,10.6586650390625,-0.9504786729812622,-1.9783707857131958,-4.745759010314941
1733512139119684000,10.66868408203125,-0.5811605453491211,-2.8173604011535645,-3.84244441986084
1733512139129702000,10.678701904296876,-0.22225619852542877,-3.3509578704833984,-2.1437370777130127
1733512139139721000,10.688720947265624,-0.1160903349518776,-2.1318533420562744,-1.0703532695770264
1733512139149740000,10.698739990234374,-0.0038240551948547363,-0.2996816635131836,-0.7237651348114014
1733512139159757800,10.7087578125,0.09228037297725677,0.8565851449966431,-0.5808311104774475
1733512139169777000,10.71877685546875,0.1616450995206833,1.1823092699050903,-0.46118777990341187
1733512139179795000,10.728794921875,0.21262945234775543,0.9721724987030029,-0.4424292743206024
1733512139189813800,10.738813720703124,0.2673036456108093,0.508614718914032,-0.5429777503013611
1733512139199832000,10.74883203125,0.29772892594337463,-0.07408545166254044,-0.7270426154136658
1733512139209851100,10.75885107421875,0.18419113755226135,-0.6059937477111816,-0.9855310320854187
1733512139219869000,10.768868896484374,-0.07496239244937897,-0.8303749561309814,-1.2675541639328003
1733512139229888000,10.778887939453124,-0.2912912666797638,-0.7375005483627319,-1.514505386352539
1733512139239905800,10.78890576171875,-0.2876826822757721,-0.44282546639442444,-1.586319923400879
1733512139249924900,10.7989248046875,-0.11778469383716583,-0.10572801530361176,-1.3841495513916016
1733512139259944000,10.80894384765625,-0.006498649716377258,-0.001210128073580563,-0.9258596897125244
1733512139269961700,10.818961669921874,-0.07490699738264084,-0.40789929032325745,-0.31164059042930603
1733512139279980800,10.828980712890624,-0.1616717129945755,-1.063313364982605,0.32266953587532043
1733512139289999000,10.8389990234375,-0.28576239943504333,-1.4176052808761597,0.8307919502258301
1733512139300018000,10.849017822265624,-0.5525254011154175,-0.7760815024375916,1.0883724689483643
1733512139310036000,10.859035888671874,-0.6702591180801392,0.6764739751815796,1.3535223007202148
1733512139320055000,10.869054931640624,-0.4810124933719635,1.8574050664901733,1.927263617515564
1733512139330072800,10.87907275390625,-0.24211284518241882,2.491896390914917,2.6563189029693604
1733512139340092000,10.889091796875,-0.07744826376438141,2.5643155574798584,3.310586929321289
1733512139350109700,10.899109619140624,0.02864602580666542,2.1999306678771973,3.647519588470459
1733512139360128800,10.909128662109374,0.14480219781398773,1.485815405845642,3.5577585697174072
1733512139370147800,10.91914794921875,0.3305254578590393,0.5327738523483276,3.1110925674438477
1733512139380166000,10.929165771484374,0.5652738213539124,-0.5405325293540955,2.4317023754119873
1733512139390185000,10.93918505859375,0.7134039998054504,-1.4689444303512573,1.6488392353057861
1733512139400203000,10.949203125,0.6608278751373291,-1.953883171081543,0.9641104340553284
1733512139410221800,10.959221923828125,0.573439359664917,-1.9093097448349,0.5140054225921631
1733512139420240000,10.969239990234374,0.5671103596687317,-1.5785057544708252,0.28572937846183777
1733512139430259000,10.979259033203125,0.6184081435203552,-1.1778932809829712,0.21682696044445038
1733512139440276700,10.98927685546875,0.6988313794136047,-0.8888113498687744,0.3032768964767456
1733512139450295800,10.9992958984375,0.7248433232307434,-0.7176476120948792,0.5099266767501831
1733512139460314000,11.009314208984375,0.6769301295280457,-0.3630983233451843,0.7340782880783081
1733512139470333000,11.0193330078125,0.6425718069076538,0.16824813187122345,0.9128578305244446
1733512139480352000,11.02935205078125,0.6463981866836548,0.6662834882736206,1.0458574295043945
1733512139490370000,11.0393701171875,0.678588330745697,1.0729857683181763,1.1133849620819092
1733512139500388900,11.049388916015625,0.6400017738342285,1.2607719898223877,1.0883499383926392
1733512139510407000,11.059406982421875,0.5411630272865295,1.121888518333435,0.9404281377792358
1733512139520426000,11.069426025390625,0.3588193356990814,0.7582759857177734,0.6390022039413452
1733512139530444000,11.079444091796875,0.12200082093477249,0.3601023852825165,0.26203253865242004
1733512139540462800,11.089462890625,-0.11627139896154404,0.05338479205965996,0.025823477655649185
1733512139550481000,11.09948095703125,-0.30735501646995544,-0.08841243386268616,0.0017168506747111678
1733512139560500000,11.1095,-0.44361138343811035,-0.020342035219073296,0.11802562326192856
1733512139570518000,11.11951806640625,-0.5348988771438599,0.2843536138534546,0.2637738287448883
1733512139580536800,11.129536865234375,-0.5628983378410339,0.6798122525215149,0.39680832624435425
1733512139590556000,11.139555908203125,-0.5283460021018982,0.9764577150344849,0.4975503981113434
1733512139600574000,11.149573974609375,-0.4679715633392334,1.116984248161316,0.5383875966072083
1733512139610592800,11.1595927734375,-0.4332846701145172,1.1218149662017822,0.5175207257270813
1733512139620611000,11.169611083984375,-0.4271087944507599,1.0332578420639038,0.4404725730419159
1733512139630630100,11.179630126953125,-0.43068599700927734,0.8976098895072937,0.3355584740638733
1733512139640648000,11.18964794921875,-0.4766359329223633,0.7524122595787048,0.22795771062374115
1733512139650667000,11.1996669921875,-0.5363967418670654,0.5749258995056152,0.10972564667463303
1733512139660684800,11.209684814453125,-0.5530146360397339,0.31164127588272095,-0.0151707474142313
1733512139670703900,11.219703857421875,-0.4712255001068115,-0.10300295054912567,0.03686121478676796
1733512139680722000,11.229721923828125,-0.2920898497104645,-0.5902248024940491,0.39409735798835754
1733512139690740700,11.23974072265625,-0.20408062636852264,-0.3623809814453125,0.751227855682373
1733512139700759800,11.249759765625,-0.25264763832092285,0.7460732460021973,0.9673899412155151
1733512139710778000,11.259778076171875,-0.2689237892627716,2.057391405105591,1.1416844129562378
1733512139720797000,11.269796875,-0.2642877697944641,2.829205274581909,1.1949751377105713
1733512139730815000,11.27981494140625,-0.25265154242515564,2.9612576961517334,1.1251412630081177
1733512139740834000,11.289833984375,-0.23832400143146515,2.628535509109497,0.9960018396377563
1733512139750851800,11.299851806640625,-0.24026213586330414,2.0152482986450195,0.9098270535469055
1733512139760871000,11.309870849609375,-0.2675930857658386,1.4062167406082153,0.904564380645752
1733512139770889000,11.319888916015625,-0.31060072779655457,1.0153677463531494,0.955069363117218
1733512139780907800,11.32990771484375,-0.3887365460395813,0.8488315343856812,0.9898619651794434
1733512139790926000,11.339926025390625,-0.47338658571243286,0.8127127885818481,0.9802016019821167
1733512139800945200,11.349945068359375,-0.4545905292034149,0.7663535475730896,0.9448696970939636
1733512139810964000,11.3599638671875,-0.30279842019081116,0.7006772756576538,0.9177257418632507
1733512139820982000,11.36998193359375,-0.16840438544750214,0.6768361330032349,0.9170322418212891
1733512139831001000,11.3800009765625,-0.07720983773469925,0.7059898972511292,0.9258995652198792
1733512139841019000,11.390018798828125,-0.029726475477218628,0.7796958088874817,0.909995436668396
1733512139851038000,11.400037841796875,-0.03131997212767601,0.8593054413795471,0.8439704179763794
1733512139861055700,11.4100556640625,-0.06288935244083405,0.9068183898925781,0.7362932562828064
1733512139871074800,11.42007470703125,-0.11547772586345673,0.9178720712661743,0.593393087387085
1733512139881093000,11.430093017578125,-0.18267886340618134,0.8594955801963806,0.42961376905441284
1733512139891112000,11.44011181640625,-0.2590200901031494,0.756891667842865,0.257490873336792
1733512139901130000,11.4501298828125,-0.32262730598449707,0.6541876196861267,0.08601099997758865
1733512139911149000,11.460149169921875,-0.35918736457824707,0.5847919583320618,-0.10419874638319016
1733512139921166800,11.470166748046875,-0.38663041591644287,0.5023878812789917,-0.3128131926059723
1733512139931186000,11.48018603515625,-0.435401976108551,0.35593342781066895,-0.46764084696769714
1733512139941204700,11.490204833984375,-0.45206668972969055,0.15279175341129303,-0.3675158619880676
1733512139951222800,11.500222900390625,-0.44524601101875305,-0.05787662789225578,0.03165515512228012
1733512139961241900,11.510241943359375,-0.4356338679790497,-0.2185448706150055,0.33610638976097107
1733512139971260000,11.520260009765625,-0.42228013277053833,0.07622890174388885,0.293952614068985
1733512139981279000,11.530279052734375,-0.36566558480262756,0.5878003239631653,0.31289219856262207
1733512139991296800,11.540296875,-0.24381552636623383,0.7541287541389465,0.43909239768981934
1733512140001315800,11.55031591796875,-0.12915845215320587,0.366129606962204,0.33384135365486145
1733512140011334000,11.560333984375,-0.03781454637646675,-0.2355722039937973,-0.07044214755296707
1733512140021352700,11.570352783203125,0.10790403187274933,-0.688926637172699,-0.5270179510116577
1733512140031370800,11.580370849609375,0.3738497793674469,-1.0256552696228027,-0.8137264847755432
1733512140041389800,11.590389892578125,0.6067253351211548,-1.4418030977249146,-0.907206118106842
1733512140051408600,11.60040869140625,0.6145501136779785,-1.968209147453308,-0.7502357363700867
1733512140061427000,11.610427001953125,0.42593011260032654,-2.3062617778778076,-0.5341156721115112
1733512140071446000,11.620446044921875,0.1936049610376358,-2.2709765434265137,-0.4620121121406555
1733512140081463800,11.6304638671875,0.22637435793876648,-1.8913052082061768,-0.6372219920158386
1733512140091483000,11.64048291015625,0.456219881772995,-1.177148699760437,-0.9983197450637817
1733512140101501000,11.6505009765625,0.6618127226829529,-0.16934944689273834,-1.3838958740234375
1733512140111519700,11.660519775390625,0.7560710906982422,0.9978956580162048,-1.6511117219924927
1733512140121538000,11.6705380859375,0.7539997100830078,1.6602222919464111,-1.7866982221603394
1733512140131556900,11.680556884765625,0.6365654468536377,1.7891693115234375,-1.8935885429382324
1733512140141575000,11.690574951171875,0.4170715808868408,1.7030004262924194,-1.9687939882278442
1733512140151594000,11.700593994140625,0.1543750762939453,1.557649850845337,-2.007176399230957
1733512140161613000,11.710613037109376,-0.04665603116154671,0.9567887783050537,-2.1951663494110107
1733512140171630800,11.720630859375,-0.023374618962407112,-1.4419814348220825,-3.1112375259399414
1733512140181650000,11.73064990234375,-0.12268175929784775,-4.223727226257324,-3.8370022773742676
1733512140191667700,11.740667724609375,-0.31034794449806213,-5.29933500289917,-3.8757641315460205
1733512140201686800,11.750686767578125,-0.45330697298049927,-4.923094272613525,-3.555295705795288
1733512140211705000,11.760705078125,-0.5896376967430115,-3.8874855041503906,-3.0760767459869385
1733512140221724000,11.770723876953125,-0.6763060092926025,-2.6036503314971924,-2.670957326889038
1733512140231742000,11.780741943359375,-0.7342004179954529,-1.114827036857605,-2.4685356616973877
1733512140241761000,11.790760986328126,-0.7146509885787964,0.2791776657104492,-2.2451608180999756
1733512140251778800,11.80077880859375,-0.5994086861610413,1.1565271615982056,-1.7760483026504517
1733512140261798000,11.8107978515625,-0.47247523069381714,1.47015380859375,-1.2036409378051758
1733512140271817000,11.82081689453125,-0.4233444035053253,1.3754926919937134,-0.7964733839035034
1733512140281834800,11.830834716796875,-0.441486656665802,0.982941210269928,-0.6850182414054871
1733512140291853800,11.840853759765626,-0.33184972405433655,0.2994290590286255,-0.7713809609413147
1733512140301871900,11.850871826171876,0.005027906969189644,-0.61618572473526,-0.8635889291763306
1733512140311891000,11.860890869140626,0.3422927260398865,-1.491072416305542,-0.8761807084083557
1733512140321909000,11.870908935546876,0.4352663457393646,-2.063845157623291,-0.8638017773628235
1733512140331927800,11.880927734375,0.2723599970340729,-2.248412847518921,-0.964957058429718
1733512140341945900,11.89094580078125,-0.024418948218226433,-2.067762613296509,-1.1059935092926025
1733512140351965000,11.90096484375,-0.18579043447971344,-1.7487751245498657,-1.0474750995635986
1733512140361982700,11.910982666015625,-0.1557323932647705,-1.4336284399032593,-0.7363012433052063
1733512140372001800,11.921001708984376,-0.10138966888189316,-1.0551632642745972,-0.20636969804763794
1733512140382020000,11.93102001953125,-0.1858435571193695,-0.6847808957099915,0.45151737332344055
1733512140392039000,11.941038818359376,-0.28708386421203613,-0.39414849877357483,1.1278876066207886
1733512140402058000,11.95105810546875,-0.3697686195373535,-0.05648818239569664,1.7178595066070557
1733512140412076000,11.961075927734376,-0.42053940892219543,0.5020286440849304,2.1210479736328125
1733512140422094800,11.9710947265625,-0.4856707453727722,1.3118371963500977,2.3155951499938965
1733512140432113000,11.98111279296875,-0.5037419199943542,2.091754198074341,2.3993027210235596
1733512140442132000,11.991132080078126,-0.4029204845428467,2.4623863697052,2.452927350997925
1733512140452149800,12.001149658203126,-0.22000190615653992,2.292539596557617,2.452179431915283
1733512140462168800,12.0111689453125,0.019735315814614296,1.604644536972046,2.3514564037323
1733512140472187000,12.021186767578126,0.2645159363746643,0.6019737124443054,2.09736967086792
1733512140482206000,12.0312060546875,0.4377380609512329,-0.46425768733024597,1.6538413763046265
1733512140492224000,12.04122412109375,0.49400457739830017,-1.390438437461853,1.0443557500839233
1733512140502242800,12.051242919921876,0.560031533241272,-1.9837960004806519,0.3860101103782654
1733512140512262000,12.061261962890624,0.6711371541023254,-2.03385591506958,-0.0959576964378357
1733512140522280000,12.071280029296876,0.7526969909667969,-1.7640053033828735,-0.3345383107662201
1733512140532298800,12.081298828125,0.8086309432983398,-1.5481948852539062,-0.4208654761314392
1733512140542316800,12.09131689453125,0.8826764225959778,-1.4320472478866577,-0.43287715315818787
1733512140552336000,12.1013359375,0.8972532153129578,-1.3432167768478394,-0.41339972615242004
1733512140562354000,12.11135400390625,0.8328428268432617,-1.3330624103546143,-0.34161075949668884
1733512140572373000,12.121373046875,0.7497098445892334,-1.4215667247772217,-0.1940579116344452
1733512140582390800,12.131390869140626,0.6156569719314575,-1.457938551902771,0.04504628852009773
1733512140592409900,12.141409912109374,0.456427663564682,-1.225027084350586,0.3375847637653351
1733512140602428000,12.151427978515626,0.3178551495075226,-0.814439058303833,0.624544620513916
1733512140612446700,12.16144677734375,0.20705032348632812,-0.408847838640213,0.8876497745513916
1733512140622464800,12.17146484375,0.11887066811323166,0.029360929504036903,1.123342752456665
1733512140632483800,12.18148388671875,0.039378903806209564,0.5522931218147278,1.315941333770752
1733512140642503000,12.1915029296875,-0.05662991851568222,0.895613968372345,1.4456974267959595
1733512140652521000,12.20152099609375,-0.13499949872493744,1.0208985805511475,1.5063265562057495
1733512140662540000,12.2115400390625,-0.21568235754966736,1.0248408317565918,1.4915764331817627
1733512140672557800,12.221557861328124,-0.29641029238700867,0.9971626996994019,1.3998243808746338
1733512140682577000,12.231576904296874,-0.3465520143508911,0.9798604249954224,1.257767915725708
1733512140692594700,12.2415947265625,-0.3795890510082245,0.9790156483650208,1.1385643482208252
1733512140702613800,12.25161376953125,-0.40726837515830994,1.0047104358673096,1.0928422212600708
1733512140712632000,12.261632080078124,-0.42303502559661865,1.0370389223098755,1.0987160205841064
1733512140722651000,12.27165087890625,-0.429137647151947,1.077837586402893,1.1286184787750244
1733512140732669000,12.2816689453125,-0.43405798077583313,1.0979835987091064,1.1401739120483398
1733512140742688000,12.29168798828125,-0.4264216423034668,1.1086844205856323,1.1223467588424683
1733512140752706800,12.301706787109374,-0.43232467770576477,1.172102451324463,1.0798238515853882
1733512140762724900,12.311724853515624,-0.4413578510284424,1.2443816661834717,1.014998197555542
1733512140772744000,12.321743896484374,-0.4471427798271179,1.3250718116760254,0.9242796897888184
1733512140782761700,12.33176171875,-0.46234411001205444,1.3523625135421753,0.8172475099563599
1733512140792780800,12.34178076171875,-0.4770420789718628,1.3289469480514526,0.7015856504440308
1733512140802799000,12.351799072265624,-0.476499080657959,1.2618545293807983,0.5796874165534973
1733512140812818000,12.36181787109375,-0.4508953392505646,1.1569141149520874,0.4598507881164551
1733512140822836000,12.3718359375,-0.41374796628952026,1.0734364986419678,0.35084787011146545
1733512140832855000,12.38185498046875,-0.3610328733921051,1.0302858352661133,0.25485706329345703
1733512140842872800,12.391872802734374,-0.29515159130096436,1.0352600812911987,0.18674565851688385
1733512140852892000,12.401891845703124,-0.2201676070690155,1.0722182989120483,0.15422242879867554
1733512140862911000,12.411910888671875,-0.15275821089744568,1.0501066446304321,0.1461288183927536
1733512140872928800,12.4219287109375,-0.11746537685394287,0.9556788206100464,0.1495484709739685
1733512140882947800,12.43194775390625,-0.12619788944721222,0.7881731986999512,0.14741820096969604
1733512140892966000,12.4419658203125,-0.16973185539245605,0.5571630597114563,0.13640843331813812
1733512140902985000,12.45198486328125,-0.2152644544839859,0.3553236722946167,0.13931579887866974
1733512140913003000,12.4620029296875,-0.25592315196990967,0.24816454946994781,0.16574980318546295
1733512140923021800,12.472021728515625,-0.29745328426361084,0.2255295366048813,0.2253076732158661
1733512140933039900,12.482039794921874,-0.3358542323112488,0.23707391321659088,0.32672998309135437
