time,seconds_elapsed,z,y,x
1733512128479981800,0.02898193359375,-0.04652268172204494,0.0024912322938442227,-0.08111673298031091
1733512128490001000,0.0390009765625,-0.033790625920891756,-0.030105069275945424,-0.09678027565609663
1733512128500019200,0.049019287109375,-0.018365093252062797,0.011208426430448889,-0.04530786257218569
1733512128510038000,0.0590380859375,-0.009158288967609405,0.0498364093799144,0.015170096603035926
1733512128520056000,0.06905615234375,0.010168342792987823,0.07127323822751641,0.041035044091194864
1733512128530075100,0.0790751953125,0.02115384718775749,0.041820933771878475,0.05391881985533982
1733512128540093000,0.089093017578125,0.036928339424729346,-0.003422010337933898,0.06515300178155303
1733512128550112000,0.099112060546875,0.059252399435639376,-0.05861958142481744,0.08126220586560666
1733512128560130000,0.109130126953125,0.03037643356323242,-0.07092997774779797,0.08681593100260943
1733512128570148900,0.11914892578125,-0.0040641806989908215,-0.0600181231111288,0.07240991410724819
1733512128580168000,0.12916796875,-0.025073650979995726,-0.058379562123864887,0.0591668400440365
1733512128590186200,0.139186279296875,-0.010793781214952468,-0.06285049699284136,0.030765944337472317
1733512128600205000,0.149205078125,-0.00801788676083088,-0.0619913959454745,0.027317301720939574
1733512128610223000,0.15922314453125,0.022119477349519728,-0.0032731033865362404,0.018733415107801556
1733512128620242200,0.1692421875,0.0240945768147707,0.020433716219663618,0.0026647622298449276
1733512128630260000,0.179260009765625,0.018220131823420523,0.0717477238714695,0.019455884163454173
1733512128640279000,0.189279052734375,-0.0058329439371824264,0.08587978266365826,0.01478654064554721
1733512128650298000,0.199298095703125,-0.03664835343956947,0.07396101600676774,0.018529197772592303
1733512128660316000,0.20931591796875,-0.048286184263229365,0.10081658196747302,0.004984035490266978
1733512128670335000,0.2193349609375,-0.019748656564950944,0.1121194086831063,-0.018357311804406345
1733512128680353000,0.22935302734375,0.017083236747980117,0.09575469546802341,0.009395714452676474
1733512128690372000,0.2393720703125,0.05022153623998165,0.05134096872396767,0.02203994583990425
1733512128700390100,0.24939013671875,0.06989186687171459,0.034943156956881286,0.03959200567603111
1733512128710409000,0.259408935546875,0.06245090321600437,0.010785159517079592,0.049346689634211356
1733512128720427000,0.269427001953125,0.04748831188380718,0.009896320918574928,0.05458762249499559
1733512128730446000,0.279446044921875,0.01695639549791813,0.05311294683255255,0.004834653614833951
1733512128740465000,0.28946484375,-0.004441197317838669,0.09974624932222068,-0.05440963557958602
1733512128750483000,0.29948291015625,-0.028990532162785528,0.15674546300359068,-0.060004971368610854
1733512128760502000,0.309501953125,-0.010276479342579841,0.15761384333595632,-0.06531283198576421
1733512128770520000,0.31952001953125,-0.008449848437309265,0.13015044767521322,-0.07289700350444764
1733512128780539100,0.3295390625,0.018827450066804884,0.08376943944618105,-0.044859899608977134
1733512128790557000,0.339556884765625,0.04025836063027382,0.022414733969047664,-0.03994750458281487
1733512128800576000,0.349575927734375,0.048204351198673244,-0.07947503018788993,-0.04262987553458661
1733512128810594000,0.359593994140625,0.013216039925813675,-0.15897957873120902,-0.02069127117730677
1733512128820612900,0.36961279296875,0.018650924456119537,-0.23547552004307507,-0.03371266531385481
1733512128830632000,0.3796318359375,0.009290390914678573,-0.29556773130372166,-0.07502557649835943
1733512128840650000,0.38964990234375,0.008045359289646148,-0.3265194074716419,-0.08490403296668082
1733512128850668800,0.399668701171875,0.008003858235478402,-0.33704460087828336,-0.0819044492918998
1733512128860687000,0.40968701171875,0.008562076640129089,-0.259393425116688,-0.05356996988505125
1733512128870706200,0.4197060546875,-0.0006172551155090331,-0.17801519165597854,-0.006114902683719992
1733512128880724000,0.429723876953125,-0.0050385786890983575,-0.07527180634438992,0.044654915088787675
1733512128890743000,0.439742919921875,0.01047170965373516,0.018457082384452223,0.12069416214171796
1733512128900761000,0.449760986328125,0.015445990934967993,0.09315057738423346,0.2122896921036765
1733512128910780000,0.45977978515625,0.012459668600559234,0.1097464690066874,0.23702870430182665
1733512128920799000,0.469799072265625,0.02035948193967342,0.08718618908710778,0.26910971329323946
1733512128930816800,0.479816650390625,0.03417465680241585,0.09411335800178348,0.3059545391529798
1733512128940835800,0.4898359375,0.049829906573891636,0.07402852828502654,0.32371779405437406
1733512128950854000,0.49985400390625,0.06221534089446067,0.022280513130128382,0.3352517626447603
1733512128960873000,0.509873046875,0.0637871202558279,-0.015827683728933332,0.32294713847544043
1733512128970890800,0.519890869140625,0.044504327636957164,0.02293378940708935,0.2676998464953154
1733512128980909800,0.529909912109375,0.04236439299881458,0.05865531032532453,0.15707732530646026
1733512128990929000,0.539928955078125,0.03462064700424671,0.09948452964611351,0.06560023409239947
1733512129000946700,0.54994677734375,0.010659341180324553,0.12028452189490198,0.003164674575999379
1733512129010965800,0.5599658203125,0.030180034208297728,0.10227525634318589,-0.09084569797534495
1733512129020983800,0.56998388671875,0.028826281511783597,0.07053272205851972,-0.15325363883245735
1733512129031003000,0.5800029296875,-0.011371288841962814,0.0013571867626160383,-0.17995083589367566
1733512129041021000,0.59002099609375,-0.04130407029092312,-0.09559629003591835,-0.20574293734133242
1733512129051039700,0.600039794921875,-0.040456513550877565,-0.15281353038214146,-0.21954576417915522
1733512129061057800,0.610057861328125,-0.035757542079687114,-0.15979652113728224,-0.25280896869245917
1733512129071076900,0.620076904296875,-0.03114624889194965,-0.09903737040050327,-0.2717683745758608
1733512129081095700,0.630095703125,0.00034720600247383117,-0.03211852799020708,-0.2871325324462727
1733512129091113700,0.64011376953125,0.03398585623204708,0.00246522106975317,-0.19930413646548986
1733512129101132800,0.6501328125,0.02526303607225418,0.029835093228146432,-0.049693201516941184
1733512129111150800,0.66015087890625,0.016241525226831435,0.041262496171519156,0.08087616569008678
1733512129121170000,0.670169921875,-0.035901918986439706,0.08080196794271469,0.12758067025244235
1733512129131188000,0.68018798828125,-0.020117489877343176,0.09623604924418032,0.1518827158054337
1733512129141206800,0.690206787109375,-0.014847440519928931,0.02074789673537016,0.11111929172985255
1733512129151225900,0.700225830078125,-0.10236088880002497,-0.033824893516674635,0.006049326634220778
1733512129161244000,0.710243896484375,-0.28735797523260115,-0.1010777171216905,-0.06111337100192904
1733512129171262700,0.7202626953125,-0.5135784679353237,-0.09245791894495486,-0.06234342425353825
1733512129181280800,0.73028076171875,-0.4032178125530481,-0.013654869734495877,0.09648903762456029
1733512129191299800,0.7402998046875,-0.14705635509490966,-0.11365874707959592,0.32222302545197307
1733512129201318000,0.75031787109375,0.14533902978301047,-0.25077136191762983,0.6251578514575958
1733512129211337000,0.7603369140625,0.404896559420228,-0.4120738306384533,0.6355933207541704
1733512129221354800,0.770354736328125,0.5611211403548717,-0.7018265920531004,0.38848281943164764
1733512129231373800,0.780373779296875,0.45310441775023935,-0.7809612113054841,0.21271726986598222
1733512129241393000,0.790392822265625,0.1769914746314287,-0.7715894257176668,0.051646089150384066
1733512129251410700,0.80041064453125,0.03374444869160652,-0.6122076959263533,-0.1513987316807732
1733512129261429800,0.8104296875,0.05697393310964107,-0.45278570718988775,-0.2136974034771323
1733512129271447800,0.82044775390625,-0.05154021762311458,-0.37099458207935093,-0.06855809751730411
1733512129281466600,0.830466552734375,-0.17808569960892198,-0.4105783313836902,-0.09495426580533385
1733512129291485000,0.84048486328125,-0.1439256558537483,-0.5479504739407449,-0.19118351998254657
1733512129301504000,0.85050390625,-0.08825696012377739,-0.6938779711361974,-0.34612821717448533
1733512129311522800,0.860522705078125,0.000025134441256523132,-0.9265609378512948,-0.5516742437042296
1733512129321540900,0.870540771484375,0.3319540728062391,-1.2610096770174801,-0.6410413570269942
1733512129331560000,0.880559814453125,0.7886562227874994,-1.6609712642535566,-0.4851297875642776
1733512129341577700,0.89057763671875,1.3010855206876992,-2.1297193874679503,-0.18381664447635412
1733512129351596800,0.9005966796875,1.7159809115529059,-2.488768534079194,0.10941351072527468
1733512129361614600,0.910614501953125,1.908885994631052,-2.560396430963278,0.23521336197555065
1733512129371633700,0.920633544921875,1.7040023044675587,-2.127935426660627,0.4119643058493733
1733512129381652000,0.93065185546875,0.7365928580731153,-1.6524362217508255,0.2733238969221711
1733512129391670800,0.9406708984375,-0.2991092033028602,-1.1992632688090203,-0.41326216364018614
1733512129401689900,0.95068994140625,-1.256422787618637,-1.0609218428283929,-1.0856370357595384
1733512129411708000,0.9607080078125,-1.9576608391940593,-0.8188498471297323,-1.5383743737630544
1733512129421726700,0.970726806640625,-2.4209487973064183,-0.8389809271410107,-1.4976871201962232
1733512129431744800,0.980744873046875,-2.7740812672197817,-1.1331199408158659,-1.4544078043095767
1733512129441763800,0.990763916015625,-2.7101076844811436,-1.2867112506374716,-2.1912923388056456
1733512129451781600,1.00078173828125,-1.0936690971761942,-1.6455148980550467,-2.7588430738165974
1733512129461800700,1.01080078125,0.1494476341456175,-2.8574007709413767,-2.040210527586937
1733512129471818800,1.02081884765625,-0.35440672763288017,-3.3493019523367282,-0.48685135065987706
1733512129481837800,1.030837890625,-0.7674158663600683,-2.233093837224692,0.6878593684338032
1733512129491857000,1.04085693359375,-1.0437556039720772,-1.1128703489914535,0.5405797259770333
1733512129501874700,1.050874755859375,-1.2711410488009451,-1.0069120202213526,0.18586144817695022
1733512129511893800,1.060893798828125,-1.123569145399332,-1.3511694020226597,0.6597618395879864
1733512129521911800,1.070911865234375,-1.0524684872597456,-1.8374737863242625,1.2245784734599292
1733512129531930600,1.0809306640625,-0.46317397634387014,-2.030902016493678,1.4599230605997144
1733512129541948700,1.09094873046875,-0.11191782169640063,-1.9598244469687343,1.3688278083100913
1733512129551967700,1.1009677734375,-0.09210019154846667,-2.040085147641599,0.8913046963572502
1733512129561985800,1.11098583984375,-0.08943360268771648,-2.1433812714651226,0.568726062400639
1733512129572004900,1.1210048828125,-0.12206804431080817,-2.0007272429823875,0.3135866414666176
1733512129582024000,1.13102392578125,-0.23684183996021746,-1.612851376467943,0.02447729252204299
1733512129592041700,1.141041748046875,-0.1502478446125984,-1.1492407622724772,0.026446839029341935
1733512129602060800,1.151060791015625,0.11258008499741554,-0.851856483066082,0.27151363262981176
1733512129612078800,1.161078857421875,0.3185661834448576,-0.7208014147013425,0.5590114547245204
1733512129622097700,1.17109765625,0.5235889898180961,-0.723749158591032,0.7550024480540305
1733512129632116000,1.181115966796875,0.38031039969623087,-0.7040870112657547,0.9142128398664295
1733512129642134800,1.191134765625,0.14214286409020424,-0.6651648676753044,0.9690298872031271
1733512129652153900,1.20115380859375,0.19171382746696472,-0.7083879233300685,0.8415170214898884
1733512129662172000,1.211171875,0.47449382725954053,-0.5335059881985187,0.6770902102034538
1733512129672191000,1.22119091796875,0.849107476618886,-0.018842647635936734,0.7663894459217786
1733512129682208800,1.231208740234375,0.7166840425103902,0.39728608441650864,0.8205144924063235
1733512129692227800,1.241227783203125,0.711572398585081,0.6882195800483226,0.7605471496343612
1733512129702245600,1.25124560546875,0.6873375365167855,0.9920552273511886,0.7799784838784486
1733512129712264700,1.2612646484375,0.6690338180631399,1.1999556349873541,0.8346481586337089
1733512129722283000,1.271282958984375,1.0034896445572377,1.176145720332861,0.8862712322346865
1733512129732301800,1.2813017578125,1.0966279469817877,0.9083066845625638,0.9608138475216924
1733512129742321000,1.29132080078125,0.8620973065733909,0.6375935546606779,0.7610592638749629
1733512129752339000,1.3013388671875,0.9585609540283679,0.5540431647926569,0.39435704522728915
1733512129762357800,1.311357666015625,1.0201309827566147,0.8631979612916707,0.23701149743869898
1733512129772375800,1.321375732421875,0.8917126926362514,1.0625427220284938,-0.03107318365573883
1733512129782395000,1.331394775390625,0.9375643432289361,1.1148510014146567,-0.4668288455896079
1733512129792412700,1.34141259765625,1.2718331227183342,1.3743144230276345,-0.41198417959362266
1733512129802431700,1.351431640625,1.1191232719063757,1.4712468570381403,-1.1088082141190767
1733512129812449800,1.36144970703125,1.0410124427437781,1.4581038823485373,-1.8267162454664707
1733512129822468900,1.37146875,1.2266063260257243,1.2375830625921487,-2.0615176656402645
1733512129832488000,1.381488037109375,1.4654790872916579,1.0629729301393032,-2.1037547789976
1733512129842505700,1.391505615234375,1.4888444730490444,1.0890618956416844,-2.011684982587397
1733512129852524800,1.40152490234375,1.283749185961485,1.228171675646305,-1.992223618531227
1733512129862542800,1.41154296875,0.9685282212913036,1.2789660433381795,-2.1425969892196357
1733512129872561700,1.421561767578125,0.5734247416108846,1.3529448872625827,-2.151567354399711
1733512129882579700,1.431579833984375,0.11425327890664339,1.3336129948049782,-2.1257900851950047
1733512129892598800,1.441598876953125,-0.10260843382030725,1.0554705916851759,-1.9843835725553332
1733512129902616800,1.451616943359375,-0.4206450404331088,0.8183411669552326,-2.0819202560693024
1733512129912636000,1.461635986328125,-0.6266258781835436,0.4002431806564331,-1.865473846144974
1733512129922655000,1.471655029296875,-0.7818368981614708,-0.12355857512950896,-1.3923438545845448
1733512129932673300,1.48167333984375,-1.3362439278304576,-0.3854664672851562,-0.8041388924710452
1733512129942692400,1.4916923828125,-2.010293528228998,-1.1619020909249782,-0.1442746154218912
1733512129952710100,1.501710205078125,-2.2883000300094483,-1.7749404655218124,0.18681465724855661
1733512129962729200,1.511729248046875,-2.641896902564168,-2.4022575408399103,0.6626365182414651
1733512129972747300,1.521747314453125,-3.4136481677800417,-3.1257261289238927,1.08519119168818
1733512129982766000,1.53176611328125,-4.231850218525529,-3.6366111199915405,1.2327220324270427
1733512129992784400,1.541784423828125,-5.1958121548146,-3.992677305269241,1.2564580050624907
1733512130002803200,1.55180322265625,-5.928286471652984,-4.247946197801828,1.3699788780413567
1733512130012822300,1.561822265625,-5.876664420965313,-4.395534467816352,1.4040889451749623
1733512130022840300,1.57184033203125,-5.482568072500825,-4.432608937713503,1.7289366931073367
1733512130032859400,1.581859375,-5.516011492419243,-4.032558649280667,2.2404146816320716
1733512130042877200,1.591877197265625,-6.008357202711701,-3.294149097174406,2.6912308423146603
1733512130052896300,1.601896240234375,-6.048602703860402,-2.4657120681405065,2.9453771605581043
1733512130062914300,1.611914306640625,-5.567312640589475,-1.3183844460129737,3.0683214031815527
1733512130072933000,1.62193310546875,-4.2701808259636165,0.40061844370961186,2.4544199820145964
1733512130082951400,1.631951416015625,-2.3898212531149388,2.3776035765767096,1.2955707027889787
1733512130092970500,1.641970458984375,-0.7103789510168135,3.8587592486888167,1.1852620698548852
1733512130102989300,1.6519892578125,0.9627999798376112,4.904992640951275,1.6198758682772516
1733512130113007400,1.66200732421875,2.1169886468410493,5.8417146881371735,1.8565803455933927
1733512130123026400,1.6720263671875,2.6711101375669237,6.461508382213116,1.214432927020639
1733512130133044200,1.682044189453125,3.0317227341026065,6.645529317089915,-0.26386969374790786
1733512130143063300,1.692063232421875,3.348406757062673,5.983369476449489,-2.016569539758563
1733512130153081000,1.7020810546875,3.82930519066751,4.610753674033284,-3.4237957600459454
1733512130163100200,1.71210009765625,4.480296571561694,3.402782490372658,-4.0991248788610095
1733512130173118500,1.722118408203125,4.577095734581351,2.217524073779583,-4.297584381195903
1733512130183137300,1.73213720703125,4.443783242678642,1.393599553734064,-4.333820354442298
1733512130193156400,1.74215625,4.2565819242000575,0.9703864163786172,-4.300468412199616
1733512130203174400,1.75217431640625,3.7190170159995555,0.36127602888047694,-4.12435868883878
1733512130213193200,1.762193115234375,2.657434078913927,-0.5415776509732008,-3.2944384355098006
1733512130223211300,1.772211181640625,0.8159587287981063,-1.1602291892766952,-1.8546227817848324
1733512130233230300,1.782230224609375,-0.7868377021234482,-1.2194377495706081,-0.5552576551489532
1733512130243248000,1.792248046875,-1.9526865579128265,-1.2300468218684195,0.5493994306400418
1733512130253267200,1.80226708984375,-2.882377975809574,-1.3900439070791006,1.740497074780613
1733512130263286300,1.812286376953125,-3.841661691154539,-1.5537059445381163,2.99975903134793
1733512130273304300,1.82230419921875,-4.801537527173758,-1.594641766038537,4.095827590881288
1733512130283323400,1.832323486328125,-5.517067138952017,-1.7320768908292055,4.679772557462751
1733512130293341200,1.842341064453125,-5.534193630319834,-1.8205933786720037,4.556403659686446
1733512130303360300,1.8523603515625,-4.928792618733644,-1.6791022564887998,3.924288244175911
1733512130313378300,1.86237841796875,-4.034524396395683,-1.3798632893264293,2.726144627046585
1733512130323397000,1.872397216796875,-3.0325100850880142,-0.9754431152462959,1.2939322879321873
1733512130333415200,1.882415283203125,-2.0849080397084356,-0.6357943962842225,0.18601313160732388
1733512130343434200,1.892434326171875,-1.1452712741196154,-0.4083452385693788,-0.6914139921754598
1733512130353453000,1.902453125,-0.31849092625156045,-0.14102584275901317,-1.5740750710889697
1733512130363471400,1.912471435546875,0.20536592072248458,0.1465840614080429,-2.2881147365704178
1733512130373490400,1.922490478515625,0.4031307187914848,0.3839958102107048,-2.8659330369651315
1733512130383508200,1.93250830078125,0.24639701929092406,0.6116700088530779,-3.1798098935499786
1733512130393527300,1.94252734375,-0.10364259917363523,0.7506558702170848,-3.2115216673702
1733512130403545000,1.952545166015625,-0.5449642246715725,0.7851081749171018,-3.0359222316190597
1733512130413564200,1.962564208984375,-0.931553704637289,0.8369330547004937,-2.668312615802884
1733512130423582200,1.972582275390625,-1.1236848807334898,0.8487322135657072,-2.092599763254821
1733512130433601000,1.98260107421875,-1.0939011523663997,0.7741185788691043,-1.5994678710207342
1733512130443620000,1.9926201171875,-0.9457258762441575,0.7544120078802108,-1.3786775866732
1733512130453638400,2.002638427734375,-0.775568193155527,0.8529740889191627,-1.3363374513328075
1733512130463657200,2.0126572265625,-0.6386020010508596,0.9829933844953774,-1.3381655435428021
1733512130473675300,2.02267529296875,-0.4648281732916832,1.0797130525380372,-1.4008242442905903
1733512130483694300,2.0326943359375,-0.3053798080049455,1.1777817971020936,-1.4677983240194619
1733512130493712100,2.042712158203125,-0.14429273560047148,1.1662257993429899,-1.4896601733461021
1733512130503731200,2.052731201171875,0.021719810507446525,0.9821008195698261,-1.4060596607260405
1733512130513749200,2.062749267578125,0.22295433051362631,0.7627192329764366,-1.1618487533025443
1733512130523768000,2.07276806640625,0.47645299850329753,0.6417214482456445,-0.8810019135296344
1733512130533787100,2.082787109375,0.6997579690854996,0.5894283664286136,-0.6162506146416068
1733512130543805400,2.092805419921875,0.8621568547409028,0.5626911661505699,-0.3632977439664304
1733512130553824300,2.10282421875,0.9570598287504166,0.4130699290037155,-0.1651179353557527
1733512130563842300,2.11284228515625,0.9418762881439179,0.15394436104297637,-0.029789135194569823
1733512130573861400,2.122861328125,0.8362427343487739,-0.18882395124435425,0.12775061999186874
1733512130583879200,2.132879150390625,0.716215767411515,-0.440258964702487,0.2659764567688107
1733512130593898200,2.142898193359375,0.6699683954995125,-0.5455126523345708,0.35414880734905596
1733512130603916300,2.152916259765625,0.7237257777154446,-0.4762690202385187,0.4103599393926561
1733512130613935400,2.162935302734375,0.7889337976198643,-0.2636532745182514,0.4206673983953893
1733512130623954200,2.1729541015625,0.81599606513381,0.10388239927887916,0.35128830335140226
1733512130633972200,2.18297216796875,0.672099635374546,0.5649579420387745,0.2248619177006185
1733512130643991300,2.1929912109375,0.3836754922151565,0.9913274975985288,0.1350629888318479
1733512130654009300,2.20300927734375,0.08793779290569946,1.1320651710659264,0.0581372778005898
1733512130664028200,2.213028076171875,-0.10933949564099311,0.8646499136656522,-0.06047594988122582
1733512130674046200,2.223046142578125,-0.2740460919831879,0.4487275178402662,-0.13625292926877736
1733512130684065300,2.233065185546875,-0.8485656248271465,0.14526947167813778,-0.18352175318300723
1733512130694083300,2.243083251953125,-1.519800752326846,0.03107669078707695,-0.07013225149884819
1733512130704102400,2.253102294921875,-1.348011522513628,-0.13871347416341304,0.0615140607573092
1733512130714121200,2.263121337890625,-0.4576350469172001,-0.4352805917680263,0.0915029563076794
1733512130724139300,2.27313916015625,0.12248599572824313,-0.6196838039606809,0.0793492849163711
1733512130734158300,2.283158447265625,0.543313717518188,-0.574101033437252,-0.04942804777473211
1733512130744176000,2.293176025390625,0.9652098905235529,-0.35005963833928105,-0.0727887573570013
1733512130754195200,2.3031953125,1.1776736605525016,-0.0873234786659479,0.08070566796138882
1733512130764213200,2.313213134765625,1.0891326227903366,-0.17728958079516888,0.4484788037762046
1733512130774232000,2.323232177734375,0.9078127635657787,-0.8480091599881648,0.9016773295506835
1733512130784250400,2.33325048828125,0.6942740577816963,-1.8233242649406194,1.168434269172698
1733512130794269400,2.34326953125,0.0662795581260696,-2.78271991622746,1.1153289941899478
1733512130804288300,2.353288330078125,-1.3026461941331624,-3.3790637611329553,0.8811199869513511
1733512130814306300,2.363306396484375,-3.1488889778465032,-3.5149645159631966,0.5879766332503408
1733512130824325400,2.373325439453125,-4.047511888262629,-3.279099996602535,0.09240063579976558
1733512130834343200,2.38334326171875,-2.945688710725307,-3.031576019108295,-0.41618996072039005
1733512130844362200,2.3933623046875,-1.215054273789376,-3.128888976868987,-0.5517617027919739
1733512130854380300,2.40338037109375,0.2557494425911456,-3.481231173187494,-0.4082634785700589
1733512130864399000,2.413399169921875,0.8051707197368144,-3.8459938751399516,0.2318498038265854
1733512130874417400,2.42341748046875,-0.09649528470225632,-4.089539012131095,1.2241696734633296
1733512130884436500,2.4334365234375,-2.414164251732826,-4.03363475407958,2.211820309180021
1733512130894454300,2.443454345703125,-5.243902524244785,-3.659152622145414,2.903398259745538
1733512130904473300,2.453473388671875,-6.361265216219425,-2.880264929178357,3.226589472642541
1733512130914492400,2.463492431640625,-4.119923629000783,-1.7157576241910457,3.1725720512509343
1733512130924510200,2.47351025390625,-0.020038067965582013,-0.6214806242495775,3.080266107997298
1733512130934528300,2.4835283203125,2.829929995691776,0.8028630273163319,3.530653960265219
1733512130944546600,2.493546630859375,4.230217648887634,3.285157396945357,4.485342749035358
1733512130954565600,2.503565673828125,5.388091799470782,7.847316843679547,5.629171423131227
1733512130964583400,2.51358349609375,6.069031743904948,12.068645668190717,6.4035460225880145
1733512130974602500,2.5236025390625,6.315203722268342,12.216261995255946,5.31174213476181
1733512130984620300,2.533620361328125,6.094349725034832,5.929906181809306,2.0699128612808884
1733512130994639400,2.543639404296875,5.600868873232603,0.06811725841462611,0.3890491480775177
1733512131004658400,2.553658447265625,4.9901066268742085,-2.3034493760854002,-0.845901374053955
1733512131014676200,2.56367626953125,4.328674515986442,-2.166364964428544,-1.964470519208908
1733512131024695300,2.5736953125,3.2233354392826556,-0.3335714448750019,-3.021225890007615
1733512131034713600,2.583713623046875,2.662840906393528,1.6494143897116182,-4.975044666820764
1733512131044732400,2.593732421875,3.0898949370861053,2.914586885496974,-7.450812849551439
1733512131054750500,2.60375048828125,3.3059383191674945,3.6309359969645736,-9.748677703502773
1733512131064769500,2.61376953125,2.838303856283426,3.597150047218799,-11.08898931916356
1733512131074787300,2.623787353515625,1.560963368320465,2.826739090695977,-11.095821211010216
1733512131084806400,2.633806396484375,0.3721744395136833,1.431723824945092,-9.31285175281167
1733512131094825500,2.643825439453125,-0.48075873287320137,0.22428046455085277,-7.296784317356348
1733512131104843300,2.65384326171875,-1.2299486221909521,-0.6227835235416889,-6.038223933187127
1733512131114862300,2.6638623046875,-1.5332523545742034,-1.4018103327184914,-5.103674553865194
1733512131124880400,2.67388037109375,-1.360219846701622,-2.0022621974647046,-4.083539479455352
1733512131134899500,2.6838994140625,-0.9027110565125942,-2.441757776579261,-2.5019401503413916
1733512131144917500,2.69391748046875,-0.3627273967325687,-2.5849866823405026,-0.9363023604691028
1733512131154936300,2.703936279296875,0.22403321179151534,-2.397606500163674,0.18768062642812727
1733512131164955400,2.713955322265625,0.7799901012510061,-1.8855185630470512,1.3383433843277395
1733512131174973400,2.723973388671875,1.167473169055581,-1.0453425809025765,2.5952275058478116
1733512131184992300,2.7339921875,1.4624451264232396,-0.19383564192652702,3.906286139017343
1733512131195010300,2.74401025390625,1.7139695717304944,0.6411193906992674,5.353806668031216
1733512131205029400,2.754029296875,1.787539250332117,1.4171703989356756,6.785456258696318
1733512131215047400,2.76404736328125,0.569805966591835,1.8445207822263239,7.778104191243648
1733512131225066500,2.77406640625,-1.562116045486927,0.981110639488697,6.110470254230499
1733512131235084500,2.78408447265625,-2.700035203278065,0.6961860288828611,3.9372804122179743
1733512131245103400,2.794103271484375,-3.166421711927652,0.6769377230554818,2.368423368038237
1733512131255121400,2.804121337890625,-3.6595302232861515,0.6900245836436748,0.9196272661305963
1733512131265140500,2.814140380859375,-4.592721758258342,1.1148457407176493,-0.3279150265485048
1733512131275159300,2.8241591796875,-6.212230839049815,1.6706383795261381,-1.6050152760148046
1733512131285177300,2.83417724609375,-7.738574144887924,1.8035773619413376,-2.879921814829111
1733512131295196400,2.844196533203125,-8.354320024877786,1.0073901591271162,-3.2112147933781143
1733512131305214500,2.85421435546875,-7.396523625481128,0.16613105792105196,-1.781137420465797
1733512131315233500,2.864233642578125,-5.743724854028224,-0.1893394995510578,-0.6588556845284999
1733512131325251300,2.874251220703125,-4.326173931342363,-0.10957213535308838,-0.6054686699949204
1733512131335270400,2.8842705078125,-2.9780723924577233,0.3270271377980709,-0.7957277686089277
1733512131345288400,2.894288330078125,-1.8553858751118182,0.6526900015056133,-0.5992784370526671
1733512131355307300,2.904307373046875,-1.0278992786705494,0.4887573304116726,-0.0772949827350676
1733512131365326300,2.914326416015625,-0.26814693267568945,0.26146424004137514,0.49786096658259626
1733512131375344600,2.9243447265625,0.5063736511230469,0.8068488820821046,1.1114628202810883
1733512131385363500,2.934363525390625,1.226065204886347,1.9498212316095829,1.4026926685109733
1733512131395381500,2.944381591796875,1.8075835288427768,3.042937955600023,1.1271453964509068
1733512131405400600,2.954400634765625,2.1088963796697557,3.6443045971035954,0.7350405140645802
1733512131415418400,2.96441845703125,1.961820296961069,3.3049592450022693,0.7264576868973672
1733512131425437400,2.9744375,1.3129133211255073,1.9790432344406843,1.0457409325703977
1733512131435455200,2.984455322265625,0.5511700935743749,0.6288993760734796,1.342027625798434
1733512131445474300,2.994474365234375,0.04829539048299193,-0.23379648091495037,1.4145689842656255
1733512131455493400,3.004493408203125,-0.24939912371635437,-0.7541735229492187,1.483022927288711
1733512131465511400,3.014511474609375,-0.35145649952515956,-0.924528336045146,1.5204840584158896
1733512131475530500,3.024530517578125,-0.43301045487895606,-0.8917840043067932,1.3474419059321283
1733512131485548500,3.034548583984375,-0.9850048704482615,-0.5992541793942451,1.158001430224627
1733512131495567400,3.0445673828125,-3.4409482626378534,-0.03879705590605736,1.0752682019583881
1733512131505585400,3.05458544921875,-8.048251503956317,0.346173152294755,0.9641016370207071
1733512131515604500,3.0646044921875,-12.803672592121362,0.20202830073237418,0.2823930463016033
1733512131525622300,3.074622314453125,-11.205444784289599,0.1598947938799858,-0.477259638711065
1733512131535641300,3.084641357421875,-6.389850674712657,0.7051134317040443,-0.6858367765650153
1733512131545660400,3.094660400390625,-2.9136007970690727,1.3310048581331968,-1.0577414592266081
1733512131555678500,3.104678466796875,-0.8137525970559567,1.6663590947717428,-1.5832579099759458
1733512131565697500,3.114697509765625,0.6947510276436806,1.5182956084609032,-2.0806113654278215
1733512131575715600,3.124715576171875,2.250681662493944,1.1268173335403204,-2.5704496229439973
1733512131585734400,3.134734375,3.9236733271479602,0.8311486260801553,-2.9547148977458475
1733512131595752400,3.14475244140625,5.305246343001723,0.7747276506781577,-2.8094474718943236
1733512131605771500,3.154771484375,6.257680923104286,1.32697048805058,-2.3692587959490714
1733512131615789300,3.164789306640625,6.780071643048524,2.2508394834041594,-2.431802199754119
1733512131625808400,3.174808349609375,6.49685968157947,2.964585134375095,-3.2353844812557098
1733512131635827500,3.184827392578125,5.111841493707895,3.0893051544994115,-4.62743300615549
1733512131645845500,3.194845458984375,2.681666018372774,2.223558677768707,-6.635979982978105
1733512131655864600,3.204864501953125,-0.5031014975845813,0.7633511011391878,-7.620408368712663
1733512131665882400,3.21488232421875,-3.7866754247307775,0.035278818652033805,-6.02790419922471
1733512131675901400,3.2249013671875,-5.425382542467117,0.36520986119806764,-2.9613322700589895
1733512131685919500,3.23491943359375,-4.416764302849769,0.7100953117698431,-1.265136986080557
1733512131695938300,3.244938232421875,-2.151012496995926,0.7233318099617958,-1.1590328190989792
1733512131705956400,3.254956298828125,-0.020668620954081413,0.5951771392136812,-1.2256570624768732
1733512131715975400,3.264975341796875,1.5171686502575874,0.34259587832987304,-0.6488977696157991
1733512131725994200,3.274994140625,2.502429979684949,0.031577626046538354,0.22942586461529135
1733512131736012500,3.285012451171875,2.990706833103299,-0.3590209434300661,0.8834070749752223
1733512131746031600,3.295031494140625,3.0395079811513424,-0.7676029133647679,1.2650959234178065
1733512131756049400,3.30504931640625,2.8149861090600488,-1.0523264484405517,1.4398780514366925
1733512131766068500,3.315068359375,2.508931616663933,-1.1040285786271096,1.4214596205621957
1733512131776086300,3.325086181640625,2.10644489486441,-1.0097025277227163,1.3133463057152925
1733512131786105300,3.335105224609375,1.6464017638921737,-0.9219155231982469,1.3570835945025086
1733512131796123400,3.345123291015625,1.240281215634942,-0.9071107527762651,1.5591143794529139
1733512131806142200,3.35514208984375,0.9185691353797912,-1.0554659155100583,1.7841786878578363
1733512131816161300,3.365161376953125,0.7015824810989201,-1.2548755581766367,1.956040544515848
1733512131826179600,3.3751796875,0.6288882701575755,-1.3412696470379828,2.0208672369524834
1733512131836198400,3.385198486328125,0.7170972994863987,-1.3891677087664602,1.9856129682198165
1733512131846216400,3.395216552734375,0.8947657965965569,-1.4361054010301828,1.8401247392244635
1733512131856235500,3.405235595703125,1.038258175599575,-1.4851029484331606,1.6076486932583152
1733512131866253300,3.41525341796875,1.0627535883001982,-1.4342846153438091,1.3919899265803395
1733512131876272400,3.4252724609375,1.0167521539732813,-1.3475748846620321,1.2853003609262406
1733512131886290400,3.43529052734375,0.9787849730201065,-1.2564315554469823,1.2917539209797977
1733512131896309200,3.445309326171875,0.8867631074048579,-1.1535218005925416,1.2498429708369077
1733512131906328300,3.455328369140625,0.6526369561441242,-1.0650742863327265,1.139949494574964
1733512131916346400,3.465346435546875,0.5112310280263423,-1.084262386405468,0.9155905579604208
1733512131926365400,3.475365478515625,0.4480260915726423,-1.173198560965061,0.7960073162026703
1733512131936384000,3.485384033203125,0.5229097753822803,-1.2911182534247636,0.7258129592530429
1733512131946403000,3.495403076171875,0.7292150227814912,-1.4411761284232139,0.7017084455661475
1733512131956420900,3.5054208984375,0.7782349281467497,-1.4315923075199126,0.7247389002807438
1733512131966440000,3.51543994140625,0.6377583898335695,-1.2387877622067927,0.9434823351010679
1733512131976458000,3.5254580078125,0.35213542170003054,-0.871058611664176,1.4553789874292908
1733512131986476800,3.535476806640625,-0.3298980170592665,-0.5066109670102596,2.27938738636598
1733512131996496000,3.545495849609375,-1.338011960416287,-0.3757996442735195,3.172603030911088
1733512132006514200,3.55551416015625,-2.229030971699953,-0.5043810160011053,3.673250705602765
1733512132016533000,3.565532958984375,-2.8858868607133625,-0.748822225049138,3.5681790965393185
1733512132026551000,3.575551025390625,-3.077136870060861,-1.1506593968987464,2.9361823389723893
1733512132036570000,3.585570068359375,-2.756868851134181,-1.7216034276098011,1.9209287529937922
1733512132046588000,3.595587890625,-2.4693992322206495,-2.0505612412095067,1.180991552928835
1733512132056607000,3.60560693359375,-2.811157490682602,-1.7699264367520808,0.8353481235966086
1733512132066625000,3.615625,-4.417125537377595,-0.8947884468197822,0.7722562921285628
1733512132076643800,3.625643798828125,-6.256207927942276,0.0710807843953371,0.8517068454623222
1733512132086662100,3.635662109375,-4.5606630706965925,0.7454536253988743,1.4252294944897292
1733512132096681200,3.64568115234375,-1.2254054258033633,2.011537975332141,2.7465070315957067
1733512132106700000,3.655699951171875,2.3776991459056736,4.654186573046446,4.047113828855752
1733512132116718000,3.665718017578125,7.048942359954118,6.351142466133832,4.084439643165469
1733512132126737200,3.675737060546875,9.59603331914246,6.1602417086154215,3.200530902278423
1733512132136755000,3.6857548828125,10.047872831523417,4.226332331886887,1.8528902589038014
1733512132146774000,3.69577392578125,9.646942253124713,1.6115706890076398,0.9111053753703832
1733512132156791800,3.705791748046875,8.465098613411188,-1.1938590716779232,0.3531665183134377
1733512132166811000,3.715810791015625,7.4757497224092475,-3.529858133712411,-0.06668854078575968
1733512132176829200,3.7258291015625,7.315116677382588,-4.812735797536373,-0.46614247076064347
1733512132186848000,3.735847900390625,7.986526576927304,-4.695085569667816,-0.8623625333808362
1733512132196867000,3.7458671875,8.974118395128846,-3.3242262555301187,-0.8589860426850616
1733512132206885000,3.755885009765625,9.247722570297121,-1.3853864366620778,-0.9032475014768541
1733512132216904000,3.765904052734375,8.403421617177129,0.34470015713274477,-0.8331431608982384
1733512132226922000,3.775921875,7.226510757690668,1.8041273970395326,-1.6226732439108191
1733512132236941000,3.785941162109375,5.904295355212688,2.77779590382874,-2.7905332203269
1733512132246958800,3.795958740234375,4.37500430548489,3.3045337130665775,-3.659210489812493
1733512132256978000,3.80597802734375,2.808034974747896,3.9711370891124007,-4.264859338679909
1733512132266996000,3.815995849609375,1.4124527227640151,4.516630452224612,-5.773339655569195
1733512132277015000,3.82601513671875,-0.17929858253002165,3.8532267490029333,-6.304807415938377
1733512132287034000,3.8360341796875,-1.4162182127773761,3.0524744302302596,-5.685037687259912
1733512132297052000,3.846052001953125,-2.62251591026783,1.5168214442551136,-4.844593994089961
1733512132307071000,3.856071044921875,-3.494642443424463,0.1803080518335104,-3.573416704931855
1733512132317089000,3.866089111328125,-4.286698830044269,-0.5651999341011047,-2.836427541017532
1733512132327107800,3.87610791015625,-5.173460622274876,-0.5572030901283025,-2.4920368882253765
1733512132337126100,3.886126220703125,-5.8118847825407975,0.12685644763112067,-1.8060516431003808
1733512132347145000,3.89614501953125,-6.4099196492731565,0.8783271413624286,-0.3783759245023131
1733512132357163000,3.9061630859375,-7.34855191399455,1.2685188836038113,1.2138760237902402
1733512132367182000,3.91618212890625,-8.594839092046023,1.184004617139697,2.673452901300788
1733512132377201200,3.926201171875,-9.09660437259078,0.7251677932173013,3.7011391217425462
1733512132387219000,3.936218994140625,-8.146285761728882,0.2086988645374775,3.7033845625817774
1733512132397238000,3.946238037109375,-6.514052223920822,-0.16942600781321523,2.7698312085598706
1733512132407256000,3.956256103515625,-5.274574725884198,-0.10152619154155254,1.7792421082384884
1733512132417275000,3.96627490234375,-4.414738349980116,0.5245154570132494,0.9810719149135052
1733512132427293200,3.976293212890625,-3.5619667978957295,1.0711311021536587,0.031030221296846863
1733512132437312000,3.98631201171875,-2.7438372278645633,1.2568623480796812,-1.167977026924491
1733512132447330000,3.996330078125,-1.99019445079118,1.3921481858819722,-2.311925674138218
1733512132457349000,4.00634912109375,-1.3717258678391575,1.5645464875042439,-3.0863883902698754
1733512132467368200,4.0163681640625,-1.0009610028624534,1.6613789682716131,-3.4278619865715503
1733512132477386000,4.026385986328125,-0.9462008002795278,1.642095006608963,-3.3076609051764008
1733512132487405000,4.036405029296875,-1.1492588824510575,1.2373784799307583,-2.818531818842888
1733512132497422800,4.0464228515625,-1.3604104008376599,0.09069500092566013,-2.175781027549505
1733512132507442000,4.05644189453125,-1.6516136533215642,-1.528114991685748,-1.2254837517365813
1733512132517460200,4.066460205078125,-1.9571828464187682,-2.4694155988335607,-0.18023308690115808
1733512132527479000,4.07647900390625,-2.225512296054512,-2.3631436740696428,0.941724166322127
1733512132537497000,4.0864970703125,-2.163882499963045,-1.436509890177846,1.84007081708014
1733512132547516200,4.09651611328125,-1.7213037140108645,-0.06276829860210419,2.291449141690135
1733512132557535000,4.106534912109375,-0.816516289615631,1.5857289762645959,2.0185230119138953
1733512132567553000,4.116552978515625,0.13397826233506202,3.0104601658433676,0.8682389511335641
1733512132577572000,4.126572021484375,0.4831785073660314,3.69498732111454,-0.6139613346606493
1733512132587590000,4.13658984375,0.2692097396016121,4.298723614358901,-1.540992155046016
1733512132597609000,4.14660888671875,-0.3021285511240363,4.782877250367402,-1.663812625159323
1733512132607627000,4.156626953125,-1.178828968067467,4.561150561952591,-1.238046150059253
1733512132617646000,4.16664599609375,-1.937243197326362,3.3527351416558027,-0.2663224937275052
1733512132627664100,4.1766640625,-2.3279177546486256,1.6390777046144007,1.1021771055415273
1733512132637683000,4.186682861328125,-2.28484667468518,0.6827841109961271,2.374346620607376
1733512132647701000,4.196700927734375,-2.000562115548551,0.6576900017499924,3.3303421080619096
1733512132657720000,4.206719970703125,-1.5682558634161947,1.0530717138499022,4.026665207327902
1733512132667739000,4.21673876953125,-1.028323349301517,1.3235317457735538,4.38577616712898
1733512132677757000,4.2267568359375,-0.5933249354757368,1.1335592090159654,4.424519154760241
1733512132687776000,4.23677587890625,-0.17696663245111702,0.6163777481526136,4.410910608385503
1733512132697794000,4.2467939453125,-1.9580495462507008,0.2424859833270311,4.704833056700229
1733512132707813000,4.256813232421875,-5.180429292243719,0.0044137247890233995,4.056469101700187
1733512132717831000,4.266830810546875,-8.45336375195384,-0.7882844668656587,2.374507802518457
1733512132727850000,4.27685009765625,-10.798197862350941,-1.891084380480647,0.5635924989044666
1733512132737868000,4.286867919921875,-8.558803317546843,-1.830254940986633,-0.009738719204068184
1733512132747886800,4.296886962890625,-5.129529126089811,-0.605168371874094,0.12702025989070534
1733512132757906000,4.306906005859375,-2.7591899875581265,0.4203934037595987,-0.16159414514377712
1733512132767924000,4.316924072265625,-0.7445255507685243,0.8686568112194537,-0.7847061699874699
1733512132777942800,4.32694287109375,1.0959833654679358,0.7955635179579258,-1.2383531701818107
1733512132787961000,4.336961181640625,2.7196622792899605,0.6110398942559957,-1.5542057107537983
1733512132797980200,4.346980224609375,4.0551451596200465,0.5339928949326277,-1.6238256288163364
1733512132807998000,4.356998046875,5.155038830399513,1.0304787737697363,-1.3942783297784627
1733512132818017000,4.36701708984375,6.322366453504562,2.0165759694993497,-1.00439916061759
1733512132828035000,4.37703515625,6.93551004204154,2.901943677023053,-0.6651753890693187
1733512132838054000,4.387053955078125,6.470186194187402,3.323966143289208,-1.0451761382944882
1733512132848073000,4.397072998046875,5.288236171489953,2.9466806443721056,-2.2028366461269555
1733512132858091000,4.407091064453125,3.742317227566242,2.0093156231075526,-3.291189662846923
1733512132868109800,4.41710986328125,1.9666589691638945,1.1368857230901717,-4.030267323473096
1733512132878128000,4.427128173828125,-0.06386603071093559,0.5746352864444255,-4.5597003631442785
1733512132888147200,4.437147216796875,-2.149917102974653,0.4582435342043638,-4.212001024195551
1733512132898165000,4.4471650390625,-3.369118705701828,0.6103764619112014,-2.9746175758287308
1733512132908184000,4.45718408203125,-2.8313205732673405,0.7052712526142597,-1.8774791951067744
1733512132918201900,4.467201904296875,-1.1394231326133013,0.5819149220585823,-1.4858917607232927
1733512132928221000,4.477220947265625,0.5089034618616104,0.21226853971779344,-1.4005742150522769
1733512132938239200,4.4872392578125,1.8393577003747223,-0.24558628742992877,-1.1973857844993472
1733512132948257500,4.497257568359375,2.927151183515787,-0.6874661313325167,-0.9207200298033654
1733512132958276400,4.5072763671875,3.740308810353279,-1.0497177272468805,-0.6074455230258405
1733512132968294400,4.51729443359375,4.124319818133116,-1.2577969985812902,-0.30046149469465017
1733512132978313500,4.5273134765625,4.082710627415776,-1.3193956688821316,-0.03812719382047653
1733512132988331300,4.537331298828125,3.8069215094238515,-1.4261036469757555,0.20290099191367625
1733512132998350300,4.547350341796875,3.385759459379315,-1.5656068102121352,0.4883160163849592
1733512133008368400,4.557368408203125,2.9281834491729732,-1.7083663448959587,0.648037499524653
1733512133018387200,4.56738720703125,2.4585084203720093,-1.7286486699461936,0.49834407392442226
1733512133028405500,4.577405517578125,1.7857734097033737,-1.7346125467866658,0.27601620474606753
1733512133038424600,4.587424560546875,0.9475396476678549,-1.6936369777977465,0.24114728206917643
1733512133048443400,4.597443359375,-0.013306640818715096,-1.5450953525811433,0.45619215463250873
1733512133058461400,4.60746142578125,-0.7819314445771276,-1.4571061034828423,0.7583763814665376
1733512133068480500,4.61748046875,-1.1408686552464962,-1.372336400952935,0.9088716249689459
1733512133078498300,4.627498291015625,-1.1985942835062742,-1.1070371127933263,0.8052512376271188
1733512133088517400,4.637517333984375,-1.2180068399846553,-0.8760930987000465,0.7687357167869806
1733512133098535400,4.647535400390625,-1.3350976804047823,-0.8165957845926284,0.8317142971388995
1733512133108554200,4.65755419921875,-1.4434088559113443,-0.8399363281697034,0.9827150059454143
1733512133118572500,4.667572509765625,-1.4675800050936638,-0.8244710480123758,1.1207479504987596
1733512133128591400,4.67759130859375,-1.4340844165965914,-0.6578133358687162,1.15310532874614
1733512133138610400,4.6876103515625,-1.4394674248091877,-0.4056143523007631,1.2436622363753616
1733512133148628500,4.69762841796875,-1.374370390998572,-0.21611177114248276,1.3602290529213845
1733512133158647300,4.707647216796875,-1.3595244117833674,-0.18926935692429542,1.462755069155246
1733512133168665300,4.717665283203125,-1.4686230844058095,-0.4664718488454818,1.6233026278555391
1733512133178684400,4.727684326171875,-1.8932669852167368,-1.1946686344951392,1.9346482123970985
1733512133188702500,4.737702392578125,-2.7842718218445777,-2.1303215911448,2.2716277121499178
1733512133198721500,4.747721435546875,-3.542660916662216,-3.1541800699919462,2.319158986392617
1733512133208739300,4.7577392578125,-3.5772464923530816,-4.026629843753576,1.8142722128264606
1733512133218758400,4.76775830078125,-1.9832909550130366,-4.314790952062607,1.0096559121020137
1733512133228777500,4.777777587890625,0.6396462494067847,-4.166026039484143,0.44523236920088527
1733512133238795300,4.787795166015625,0.03686301910355687,-2.8455092576175924,1.1350436023548245
1733512133248814300,4.797814453125,-4.952897716942429,1.095659394210577,2.3018229439273474
1733512133258832400,4.807832275390625,-2.34093169613108,6.406964891120791,1.2445793512202799
1733512133268851200,4.817851318359375,4.442303817775845,8.197163716050982,0.6735558255322277
1733512133278869500,4.827869384765625,8.448679393529892,8.168904420772195,1.161582795842737
1733512133288888600,4.837888671875,10.187171412098406,6.651770841827989,1.12304161439389
1733512133298906400,4.84790625,9.252567672240733,2.9326234774470326,-0.21633403559103606
1733512133308925400,4.857925537109375,7.5542919287264345,-1.328917530465126,-1.3366868492923676
1733512133318943500,4.867943603515625,7.358874570566416,-4.486524652296304,-0.9982096583276987
1733512133328962300,4.87796240234375,8.413166181600094,-5.612240162074565,0.09521876196041702
1733512133338981400,4.8879814453125,9.444104974097012,-4.996674314826727,0.8096678850255906
1733512133348999400,4.89799951171875,9.444404249304533,-3.443035590305924,0.8896580981940031
1733512133359018200,4.908018310546875,8.762156144881247,-1.5987509549230337,0.5095946589961647
1733512133369036500,4.91803662109375,7.942523769071697,0.24837971754074095,0.07012026880010962
1733512133379055600,4.9280556640625,7.193294132265448,2.050178963893652,-0.4109405157595873
1733512133389073400,4.938073486328125,6.640456251609325,3.7416286607801914,-1.0993827986478806
1733512133399092500,4.948092529296875,5.718735374200344,5.043376444768906,-1.8374397379241882
1733512133409110300,4.9581103515625,4.406600636231899,5.556817550060153,-2.928510196909308
1733512133419129300,4.96812939453125,3.1580741548210383,5.4179252121984955,-3.9565176121294496
1733512133429148400,4.9781484375,2.53655787473619,4.844884501469135,-4.45322502476275
1733512133439166200,4.988166259765625,1.466760067012906,3.577310789760947,-4.385346251279115
1733512133449185300,4.998185302734375,-0.3837093944847584,1.7116250544309615,-4.188686199581623
1733512133459203600,5.00820361328125,-2.3583844968438146,0.17204466587901115,-3.8052334102064367
1733512133469222400,5.018222412109375,-3.694479956114292,-0.2562929748833179,-3.062712623389065
1733512133479240400,5.028240478515625,-4.388708421188593,-0.1414689103513956,-2.3968019057825205
1733512133489259500,5.038259521484375,-4.482051890796423,0.009167056795954703,-1.5734250827476381
1733512133499277300,5.04827734375,-3.97693846886754,0.4935393039911985,-0.6118244687624276
1733512133509296400,5.05829638671875,-3.3425650452971456,0.9746282917320728,0.16694456626102328
1733512133519315500,5.0683154296875,-2.9481729287564753,0.9714636902213096,0.3372238299027085
1733512133529333200,5.078333251953125,-2.805356695449352,0.47631870459914205,0.037924949246644975
1733512133539352300,5.088352294921875,-2.6856232315659523,-0.27909342023432254,-0.1062650566317141
1733512133549370400,5.098370361328125,-2.6020050371587273,-1.1643424698144196,0.13171601649150252
1733512133559389400,5.108389404296875,-2.531923200672865,-2.047186796340346,0.5232531819924712
1733512133569407500,5.118407470703125,-2.518798346161842,-2.7027158206641673,1.0634707966588437
1733512133579426300,5.12842626953125,-2.4984838724076748,-2.85155730561018,1.7032840731956063
1733512133589444400,5.1384443359375,-2.468379826045036,-2.4338708227217194,2.231088781012595
1733512133599463400,5.14846337890625,-2.4158115805484353,-1.5687135440558193,2.6608213832646608
1733512133609481200,5.158481201171875,-2.297210920087248,-0.36278701796531676,2.864418248488009
1733512133619500300,5.168500244140625,-2.2656838551841676,0.8668032923072576,2.525357850807905
1733512133629519400,5.178519287109375,-2.407386282030493,1.4790291814774275,1.4782505983203649
1733512133639537400,5.188537353515625,-2.5852616998896,1.9902742380291223,0.04856310150846839
1733512133649556500,5.198556396484375,-2.771960621803999,2.617030756855011,-1.323583768221736
1733512133659574300,5.20857421875,-3.002252893990278,3.0705875945478676,-2.6449787942275402
1733512133669593300,5.21859326171875,-3.3052795629978178,3.407164066457748,-3.879195302996039
1733512133679611400,5.228611328125,-3.66681599638015,3.750790456879139,-4.449382962381839
1733512133689630200,5.238630126953125,-4.0285859462574125,4.043951565432549,-4.219030484440922
1733512133699648300,5.248648193359375,-4.453728882631659,4.16052978015542,-3.8141555523306128
1733512133709667300,5.258667236328125,-4.957180508828163,3.738100486654043,-3.5205502071410417
1733512133719686100,5.26868603515625,-5.39794157783389,2.55405086132884,-2.870513058231771
1733512133729704400,5.278704345703125,-5.49182631471157,1.2500363014519214,-1.2072191962495447
1733512133739723500,5.2887236328125,-5.182891298443079,0.8800994117319584,0.9918386619910597
1733512133749741300,5.2987412109375,-4.719422430805862,1.3021499350488186,2.710496976059675
1733512133759760400,5.308760498046875,-3.980603421115875,2.3463836779266596,3.7353412510737773
1733512133769778400,5.3187783203125,-3.1355358675375578,3.592102116179466,4.785057224754989
1733512133779797200,5.32879736328125,-3.3300890100836753,4.184678132984042,6.918501624095439
1733512133789815600,5.338815673828125,-4.477739288294315,3.331637408569455,8.337688039028643
1733512133799834400,5.34883447265625,-5.473714319437742,1.5097282711237667,7.5139944051295515
1733512133809853400,5.358853515625,-5.777615433192253,-0.06285071618855,5.315711038392782
1733512133819871500,5.36887158203125,-4.805227613863349,-0.7944301300138235,2.7791712838351725
1733512133829890600,5.378890625,-3.124132429991662,-0.9048995064675808,0.811335379846394
1733512133839908400,5.388908447265625,-1.4246212994635103,-0.4213099340826273,-0.006306260537356138
1733512133849927400,5.398927490234375,-0.0868285347558558,0.15787819336056708,-0.16576996952369807
1733512133859945200,5.4089453125,1.0236452744878828,0.5445727411359548,-0.4069347872495651
1733512133869964300,5.41896435546875,1.9015816629670559,0.682135291698575,-0.9625684361040592
1733512133879982600,5.428982666015625,2.518985393166542,0.5448071344137192,-1.462531197271496
1733512133890001400,5.43900146484375,2.7755566004693506,0.2315413954645395,-1.699162901612371
1733512133900019500,5.44901953125,3.0723075502082704,-0.1239274084419012,-2.1133293936811386
1733512133910038500,5.45903857421875,3.2478654849052426,-0.2403483867764473,-2.3163567884534597
1733512133920057300,5.469057373046875,3.5997885790288446,-0.05424246231913566,-2.1677527655251323
1733512133930075400,5.479075439453125,3.9422470947146415,0.5172293916583061,-1.8104595226705074
1733512133940094700,5.4890947265625,4.167796556288003,1.469264743310213,-2.007813109590113
1733512133950112800,5.49911279296875,3.917573256707191,2.248552249249816,-2.5506746628940102
1733512133960131600,5.509131591796875,3.1988416340172288,2.5536335126996037,-3.057573214673996
1733512133970149600,5.519149658203125,1.9405045372098684,2.26422912633121,-3.4086002367407082
1733512133980168700,5.529168701171875,0.673244713756442,1.7002245394945144,-3.4666108194217085
1733512133990186800,5.539186767578125,-0.6248807880818843,1.396788705164194,-3.0096745684236286
1733512134000205800,5.549205810546875,-1.7237550526857375,1.600813148149848,-1.9810383537806568
1733512134010223900,5.559223876953125,-1.3903268156737087,1.975162593615055,-1.6768319734692572
1733512134020242700,5.56924267578125,0.1968080088008195,2.0393156245738266,-1.8889964682906866
1733512134030261800,5.57926171875,1.503314312428236,1.7798855207085609,-1.6847119130641222
1733512134040279800,5.58927978515625,2.486455580961704,1.4935253243416546,-1.2027256842225789
1733512134050298600,5.599298583984375,3.3886277082920073,0.8867261363953352,-0.9896503581665456
1733512134060317000,5.60931689453125,4.098141420781612,0.04330781132876873,-1.0627591412581503
1733512134070335700,5.619335693359375,4.3893186620414255,-0.6547539482980966,-1.0027722900681197
1733512134080353800,5.629353759765625,4.5335085217893125,-0.9932669412285089,-0.8373805062070488
1733512134090372900,5.639372802734375,4.561744436192512,-1.1063918006271123,-0.630271248948574
1733512134100390700,5.649390625,4.495747823193669,-1.3765613251715898,-0.4061011129043996
1733512134110409700,5.65940966796875,4.408823572978377,-1.6829741294860838,-0.060004094585776324
1733512134120428800,5.6694287109375,4.266826254838705,-2.0945295622736215,0.33113691120445726
1733512134130446600,5.679446533203125,3.995186073219776,-2.551547938597202,0.6883117883764207
1733512134140465700,5.689465576171875,3.6678666744768615,-2.9697751042336225,0.8938665096692741
1733512134150484000,5.69948388671875,3.4590865613967177,-3.314346666550636,1.0226963031999767
1733512134160502800,5.709502685546875,3.1658032877683637,-3.5744875490337606,1.1137643752217292
1733512134170520800,5.719520751953125,2.7723738787800074,-3.6496722616165873,1.199977408427745
1733512134180540000,5.729539794921875,2.287809762274474,-3.5047143401056524,1.2566712094217538
1733512134190557700,5.7395576171875,1.784229541262239,-3.1789497695893045,1.3353212600275874
1733512134200576800,5.74957666015625,1.241504619950056,-2.7727538180083036,1.4287595683120191
1733512134210595800,5.759595947265625,0.518219133348018,-2.3599632904678582,1.4432976506218314
1733512134220613600,5.769613525390625,-0.6382470501333475,-1.858069999629259,1.462549171319604
1733512134230632700,5.7796328125,-2.37879717027545,-1.1926800910264252,1.7287088757008313
1733512134240650800,5.789650634765625,-4.590072705054283,-0.3803478090971708,2.0483499949008226
1733512134250669800,5.799669921875,-6.558062046039104,0.5323579872071743,2.206060576609522
1733512134260688000,5.80968798828125,-7.070390806174278,1.2760820123344658,2.3653642727285624
1733512134270706700,5.819706787109375,-6.426854417461157,1.5745412272959947,2.5770436143815516
1733512134280724700,5.829724853515625,-5.2902007495611905,1.0613818615555763,2.420126667268574
1733512134290743800,5.839743896484375,-4.371116650396585,-0.023914544072747228,1.9453569456771016
1733512134300761600,5.84976171875,-3.7491742538541555,-1.0287012427031994,1.434564601328969
1733512134310780700,5.85978076171875,-3.1184570147037505,-1.7102993587851523,0.8755277199022471
1733512134320799700,5.8697998046875,-2.297610148537904,-1.9795482613533735,0.3838932266190648
1733512134330817800,5.87981787109375,-1.3487703780569136,-1.6372183404833078,0.13644012240394948
1733512134340836900,5.8898369140625,-0.8816215067327022,-0.5997241349935531,0.319045637524873
1733512134350855000,5.89985498046875,-2.277332938054204,1.1561457193553446,1.0640047574050724
1733512134360873700,5.909873779296875,-10.388872380572558,4.892033790656924,1.7910329376667737
1733512134370891800,5.919891845703125,-19.24076315691471,10.525707785904407,3.261949832098186
1733512134380910800,5.929910888671875,-2.1018819708630443,11.561415107977389,3.763762751176953
1733512134390928600,5.9399287109375,7.3949571068167685,9.093758920031785,2.207153778673708
1733512134400947700,5.94994775390625,10.2678272495687,3.176606421333551,-1.0130632363274692
1733512134410966800,5.959966796875,14.05746503123641,-2.685170227101445,-3.709187403641641
1733512134420984800,5.96998486328125,15.44478448178768,-6.689687607768177,-5.265416436916589
1733512134431004000,5.98000390625,14.044257174617051,-9.3579300809443,-6.268306946536899
1733512134441021700,5.990021728515625,11.374515402793884,-10.687870524716377,-5.8085828183859585
1733512134451040800,6.000040771484375,10.04919385099411,-10.312390029394626,-4.236106122404337
1733512134461058800,6.010058837890625,10.448964737963676,-7.965487880551815,-2.686816825264692
1733512134471077600,6.02007763671875,10.557132851737737,-4.407606598404049,-0.5801509811259806
1733512134481095700,6.030095703125,9.456877361908555,-0.47791211127042765,1.643024542544037
1733512134491114800,6.04011474609375,8.058555455827712,3.2273622105807065,2.3479972506031395
1733512134501133600,6.050133544921875,6.06835603660047,5.808642439618707,2.3025385448507962
1733512134511151900,6.06015185546875,4.290497637805342,7.112593871131539,1.1372663929708302
1733512134521171000,6.0701708984375,3.1254438048511743,7.53717946588397,-0.41925124798715113
1733512134531188700,6.080188720703125,1.9759616350382565,6.928433820044994,-1.980788178411871
1733512134541207800,6.090207763671875,0.6484896272063255,5.841839191299677,-3.370291256612539
1733512134551225600,6.1002255859375,-0.6076484982520342,4.558294003477692,-5.071982361528277
1733512134561244700,6.11024462890625,-1.5081225894927979,3.0759213567912576,-5.460065148791671
1733512134571262700,6.1202626953125,-3.077103260052204,1.722435786780715,-4.833904842293262
1733512134581281500,6.130281494140625,-4.934390000349283,1.1882371401429175,-3.95549060716927
1733512134591299800,6.1402998046875,-5.772611925816536,0.5647206261515617,-2.673476866698265
1733512134601319000,6.15031884765625,-4.975577750784159,0.15841653802096842,-1.7708710241258143
1733512134611337700,6.160337646484375,-3.40022345353961,0.617443916079402,-1.107281004551798
1733512134621355800,6.170355712890625,-2.405126374274492,1.2108265730917454,-0.9144410956643522
1733512134631374800,6.180374755859375,-1.8966425991296767,1.3393927472501992,-0.9447596615605056
1733512134641392600,6.190392578125,-1.6086802282631396,1.0878116033196448,-0.9203101338282227
1733512134651411700,6.20041162109375,-1.4176912079393862,0.47129473895728585,-1.088341910804063
1733512134661429800,6.2104296875,-1.2192507025659083,-0.2093202113062143,-1.1009474176160992
1733512134671448800,6.22044873046875,-1.1230674794875084,-0.9304220702588558,-0.8376451484926044
1733512134681467000,6.230466796875,-1.0976572900295256,-1.655047427162528,-0.36958690723851323
1733512134691485700,6.240485595703125,-1.133916351890564,-2.3311726647913456,0.07178235679343342
1733512134701504800,6.2505048828125,-1.2561211743235587,-2.822378557398915,0.7005358946554362
1733512134711522800,6.260522705078125,-1.378573980168253,-2.934170706889033,1.5429171317592263
1733512134721541600,6.270541748046875,-1.498898687943071,-2.762527023026347,2.4424516040623185
1733512134731559700,6.2805595703125,-1.496289674488455,-2.313221413037181,3.2557866332933303
1733512134741578800,6.290578857421875,-1.2272108677901328,-1.6270464905589819,3.8801603486359117
1733512134751596800,6.3005966796875,-0.8262801432609558,-0.7699591211020946,4.4455435303494335
1733512134761616000,6.310615966796875,-0.5339071163453162,0.21950608975589275,4.680316455081105
1733512134771634000,6.320634033203125,-0.25153832770213486,1.0192074381709098,4.132039014208317
1733512134781652700,6.33065283203125,-0.21607553078532218,1.6793384033322334,2.670057705904543
1733512134791670800,6.3406708984375,-0.5541840345680713,2.272133031323552,1.2643465663552282
1733512134801689900,6.35068994140625,-1.0451076031029223,2.5969863322138784,0.21652773153223095
1733512134811708700,6.360708740234375,-1.5775307645007968,2.947842673888802,-0.9494969922807067
1733512134821726700,6.370726806640625,-2.233814991106093,3.5169583201289174,-2.4296776088155805
1733512134831745800,6.380745849609375,-3.2840216709136962,4.3702503889560695,-4.00679818508029
1733512134841763800,6.390763916015625,-4.45968545294851,5.6102697387844325,-5.373849923628568
1733512134851783000,6.400782958984375,-5.570736769819259,7.050252858030795,-6.292512582510709
1733512134861800700,6.41080078125,-6.64973378304243,8.045937381795047,-6.464231085175276
1733512134871819800,6.42081982421875,-7.794818010157346,7.813982144832611,-5.415637393522262
1733512134881837800,6.430837890625,-8.580217861497403,5.435287265887856,-2.579187640672922
1733512134891856600,6.440856689453125,-9.9736058183074,1.7022680280208586,1.0844085168778896
1733512134901875700,6.450875732421875,-11.987994506895541,0.14527473237514496,5.054004806289076
1733512134911893800,6.460893798828125,-11.60697742023468,0.630388737848401,7.661137853986024
1733512134921912600,6.47091259765625,-8.787508028280735,0.8763765918165445,7.500882994621992
1733512134931931000,6.480930908203125,-5.8738534551978105,0.8480804716587066,5.944179037311673
1733512134941949400,6.490949462890625,-3.570068855808675,0.7718751838564872,4.699998476150632
1733512134951967500,6.500967529296875,-1.404287098095566,0.3819464764654636,4.056405388814211
1733512134961986600,6.510986572265625,0.8644562907896935,-0.171589907848835,3.4926468856930732
1733512134972004400,6.52100439453125,2.8924969265028833,-0.6108300508975982,2.578900640425086
1733512134982023400,6.5310234375,4.350508746653795,-0.8603840729147195,1.109588112450391
1733512134992041500,6.54104150390625,5.223198758912086,-0.9400590826541185,-0.23683891735076903
1733512135002060300,6.551060302734375,5.615154588216543,-0.893216667458415,-1.2555107873402536
1733512135012079400,6.561079345703125,5.827884315705299,-0.6147802498281002,-2.5373493173748254
1733512135022097400,6.571097412109375,5.64833789589405,0.33467911385595794,-3.496584225142002
1733512135032116500,6.581116455078125,5.184866982430219,1.566602835512161,-3.5563209009632466
1733512135042134500,6.591134521484375,4.704386481976509,2.4491993247568606,-3.563899811784923
1733512135052153300,6.6011533203125,4.062117336720228,2.8619886832535264,-4.035680580693483
1733512135062171400,6.61117138671875,3.240604553991556,2.7067157039552927,-4.505307678699493
1733512135072190500,6.6211904296875,2.2042904981970786,2.34643862298429,-5.081945537137985
1733512135082208500,6.63120849609375,0.9902584070622921,1.7856354625374078,-5.783964509958029
1733512135092227600,6.6412275390625,-0.4045955306470394,1.3133634029805659,-5.793562943908572
1733512135102245400,6.651245361328125,-1.963672062307596,1.1748784768760203,-4.76857750685811
1733512135112264400,6.661264404296875,-3.1202719551712272,1.4755898546785116,-3.2863781709119677
1733512135122283500,6.671283447265625,-2.9309231032699343,1.7735265070706605,-1.86245099119246
1733512135132301300,6.68130126953125,-1.3348299693793058,1.763562746939063,-1.1300224131919443
1733512135142320400,6.6913203125,0.48559159638974814,1.6171920360207557,-0.717886550167948
1733512135152338400,6.70133837890625,2.091656637185812,1.372773038804531,-0.28951150000467896
1733512135162357200,6.711357177734375,3.479863976487517,1.1302876399993895,0.15540040507018565
1733512135172375600,6.72137548828125,4.5453526888400315,0.8497837684452533,0.49826867060065266
1733512135182394600,6.73139453125,5.251628734582662,0.40949440860450265,0.6311588454380631
1733512135192412400,6.741412353515625,5.37864066503644,-0.348894101691246,0.6322736748121679
1733512135202431500,6.751431396484375,5.124208223327994,-0.9269844970256089,0.5110851898148655
1733512135212450600,6.761450439453125,4.650560783764719,-1.4056541486650704,0.036017508190125225
1733512135222468400,6.77146826171875,4.218663989216089,-1.7719892145007847,-0.3236795809358358
1733512135232487400,6.7814873046875,3.9901609385341406,-1.9372697930723428,-0.2673465760782361
1733512135242505200,6.791505126953125,3.946784738144278,-2.0753326943725345,-0.12559198065325616
1733512135252524300,6.801524169921875,3.997848570427298,-2.1487854685962198,0.06929784650132059
1733512135262542600,6.81154248046875,3.9402182192355393,-2.2086229744434354,0.24335560576841234
1733512135272561400,6.8215615234375,3.6341555435329673,-2.2701199379354713,0.5108810455448926
1733512135282579500,6.831579345703125,3.032121378031373,-2.311590596964955,0.8498001350581645
1733512135292598500,6.8415986328125,1.9488707990169525,-2.2908692959755657,1.2974847197167574
1733512135302616300,6.8516162109375,0.5470278792031109,-2.2075714195638896,1.625001832988858
1733512135312635400,6.861635498046875,-0.46956455416381354,-2.1007921297997236,1.680871165857464
1733512135322654500,6.871654541015625,-0.7336684950590133,-1.9226357030421495,1.6642079080872236
1733512135332672300,6.88167236328125,-0.7093336797475814,-1.7798960421025751,1.7453554745972155
1733512135342691300,6.89169140625,-0.7841561348892748,-1.6998025146901607,1.6569443468250333
1733512135352709600,6.901709716796875,-0.8587557410605251,-1.5673299807429313,1.5457788048006593
1733512135362728400,6.911728515625,-1.0866570264570414,-1.3497522287011146,1.4354676876485346
1733512135372746500,6.92174658203125,-1.3425335294939578,-1.0874205581754446,1.2279565715909004
1733512135382765600,6.931765625,-1.5455653081804512,-0.6511416030198335,1.0278235830858349
1733512135392783400,6.941783447265625,-1.7135142291784284,-0.2658756267428398,0.8768069460578263
1733512135402802400,6.951802490234375,-1.6868471715271471,-0.25285949330329893,0.8876943969056009
1733512135412820200,6.9618203125,-1.7331559182375669,-0.48657589471936225,1.0894193307772277
1733512135422839300,6.97183935546875,-2.129510859283805,-0.888100931879878,0.8811129726886748
1733512135432858400,6.9818583984375,-2.427153058774024,-1.4016402368485927,-0.1251985974214971
1733512135442876400,6.99187646484375,-1.975430158510059,-1.7872376370370386,-1.2266383285991846
1733512135452895500,7.0018955078125,-1.2311661812871695,-1.7768144427001475,-1.6511385831557213
1733512135462913500,7.01191357421875,-1.0855074180305004,-1.5034826547324656,-1.3564514340788125
1733512135472932400,7.021932373046875,-1.3544862714856862,-1.3134908287525175,-0.5688800839185715
1733512135482950400,7.031950439453125,-1.1743835329659282,-1.4827145919919014,0.29819018876180053
1733512135492969500,7.041969482421875,-0.5593989927373826,-1.9575375050753354,1.038923215379566
1733512135502987300,7.0519873046875,0.39252997593060135,-2.333974862730503,1.610477048552036
1733512135513006300,7.06200634765625,1.3672270951151848,-2.0598615689963102,2.1195842162922025
1733512135523025400,7.072025390625,1.7497144004590808,-0.31023265486359597,2.916878211304545
1733512135533043500,7.08204345703125,-0.708724607938528,3.7332396026194092,3.731132401207089
1733512135543062500,7.0920625,-0.6467502361930907,8.596566938751936,4.444858762955666
1733512135553080300,7.102080322265625,3.830224643599987,11.504260557603835,6.052472823292017
1733512135563099400,7.112099365234375,5.901580251035094,14.098665641152857,6.817905406880378
1733512135573117400,7.122117431640625,6.205300163003802,11.223886449909209,5.0337493692457675
1733512135583136300,7.13213623046875,5.75402705233395,2.6098499054402113,1.190904167395085
1733512135593154300,7.142154296875,5.8109513010829685,-3.545762389808893,-0.5011659994773566
1733512135603173400,7.15217333984375,6.373956940010189,-6.8023296520859,-0.5389991787873208
1733512135613191400,7.16219140625,7.771661590975523,-8.510644559055565,-0.3325654827028513
1733512135623210500,7.17221044921875,9.653432199665904,-8.167844682586193,-0.8090443462997674
1733512135633229600,7.1822294921875,9.98783541918993,-6.1202411221385,-1.555911345627904
1733512135643247400,7.192247314453125,10.22597548226714,-3.252881851762533,-3.130557494603097
1733512135653266400,7.202266357421875,9.382675230622292,0.0823047737210989,-3.984107629844546
1733512135663284500,7.212284423828125,7.647690343391895,2.400999649733305,-4.420067436048388
1733512135673303300,7.22230322265625,6.169460787859559,3.5653871277332305,-4.48257971406281
1733512135683321600,7.232321533203125,4.857339493894576,3.9662095695823427,-4.892943891239166
1733512135693340400,7.24234033203125,3.346854266923666,3.8193151270508765,-4.907401455658674
1733512135703358500,7.2523583984375,1.5249270092993974,3.4192712683588264,-4.938859839239716
1733512135713377500,7.26237744140625,0.6909615722328424,2.613045486611128,-4.287621790108084
1733512135723396600,7.272396728515625,-0.08739772207909263,1.3575930053293703,-2.6819004116505383
1733512135733414400,7.282414306640625,-0.7209270869076252,0.5690092632561922,-2.180397289173305
1733512135743433500,7.29243359375,-1.3487094416499137,0.011200608450174331,-2.4590090633705257
1733512135753451300,7.302451171875,-1.88732999638319,-0.4717074114114046,-2.9509008924156426
1733512135763470300,7.31247021484375,-2.084082402539253,-0.733258745214343,-2.843056019246578
1733512135773488600,7.322488525390625,-2.42172431172356,-0.33870062445700166,-1.9010643610946834
1733512135783507500,7.332507568359375,-3.192390850442648,1.0021861607432365,-0.31951968477740883
1733512135793525500,7.342525390625,-4.291639209055901,2.3019167596906422,0.892655234183371
1733512135803544600,7.352544677734375,-5.545732676944136,2.738880774500966,1.1854159452423452
1733512135813562400,7.362562255859375,-7.0941399305522435,2.4060651164293287,1.1049497851252554
1733512135823581400,7.37258154296875,-9.44715150218606,1.6669921319782732,1.2333699749417601
1733512135833600500,7.3826005859375,-10.58002974320054,1.070990816900134,1.1558012898318468
1733512135843618300,7.392618408203125,-8.856991314351559,0.748107939299941,0.538272471947968
1733512135853637400,7.402637451171875,-6.6780456852912895,0.4669143319159746,-0.09159691820144653
1733512135863655400,7.412655517578125,-5.401376228457689,0.06813070241808891,-0.32998101916760203
1733512135873674500,7.422674560546875,-4.622585858385265,-0.5071171629667282,-0.2875947065979242
1733512135883692500,7.432692626953125,-3.8912273938342925,-0.9427192417740822,-0.19497399830669163
1733512135893711400,7.44271142578125,-3.15407894770503,-0.9990542924582958,-0.13294833476543425
1733512135903729400,7.4527294921875,-2.490271339857578,-0.7929583038955926,-0.12623130147010087
1733512135913748500,7.46274853515625,-1.920771662735939,-0.3737070559084415,-0.09815072375908493
1733512135923766300,7.472766357421875,-1.4549838506318629,0.2403571546047926,0.0407666024133563
1733512135933785300,7.482785400390625,-1.049932392910868,0.910031608659029,0.15020605129748582
1733512135943804700,7.4928046875,-0.6427146970666945,1.2646616236537693,-0.014806085596233606
1733512135953822700,7.50282275390625,-0.33395737545266746,1.1482196025311946,-0.5282920529425144
1733512135963841800,7.512841796875,-0.16201324733868241,0.9501876779586076,-1.3212386664003133
1733512135973859600,7.522859619140625,-0.08649316532164812,1.134815346556902,-2.15572739668861
1733512135983878700,7.532878662109375,-0.3131272072613239,1.4918793107002972,-2.8651871870338916
1733512135993896700,7.542896728515625,-0.885571997924149,1.5968839920073747,-3.5552152778089043
1733512136003915500,7.55291552734375,-1.5495374266818165,1.4596762462317943,-3.9957004524827
1733512136013933600,7.56293359375,-2.057928262846172,1.0352455497801303,-4.0500744322270155
1733512136023952600,7.57295263671875,-2.432773382873833,0.45598318805694577,-3.816201671205461
1733512136033971500,7.582971435546875,-2.755710621009767,-0.259004571929574,-3.1486686130940913
1733512136043989800,7.59298974609375,-3.0663670542433854,-0.9805284556865692,-2.031165051344037
1733512136054008800,7.6030087890625,-3.186920017816126,-1.1283867748141287,-0.7134573355488478
1733512136064026600,7.613026611328125,-2.955191867607832,-0.41721944989860055,0.6794472216583788
1733512136074045700,7.623045654296875,-2.476599372857809,0.8085492562592029,2.0235669974304735
1733512136084063500,7.6330634765625,-1.6457584975525736,2.414183540955186,3.0753935335248705
1733512136094082600,7.64308251953125,-0.5143628963112831,4.195977525633573,4.075848924952745
1733512136104100600,7.6531005859375,-0.8073556625604629,5.808774541565776,5.665984027221799
1733512136114119400,7.663119384765625,-2.423918168506026,5.848022848370671,5.864351467359065
1733512136124137700,7.6731376953125,-3.614616730326414,4.567270506137609,4.078877332863211
1733512136134156800,7.68315673828125,-4.363179135395586,2.8673920036017893,2.556182320399582
1733512136144175600,7.693175537109375,-5.050893396270275,1.3087544478803872,2.269614472631365
1733512136154193700,7.703193603515625,-5.7655754513084885,0.3751788820266723,2.3240409132152795
1733512136164212700,7.713212646484375,-5.8203556737661355,0.08085515943467617,2.102446765138954
1733512136174230500,7.72323046875,-4.30422747247219,-0.2728209158360958,1.2671031715869903
1733512136184249600,7.73324951171875,-2.25828410032168,-0.6582014584034681,0.28725013094395396
1733512136194267600,7.743267578125,-0.5438299599446356,-0.782000856551528,-0.17908669334501026
1733512136204286500,7.753286376953125,1.0064426491439342,-0.8482739484041929,-0.48607832046076654
1733512136214304800,7.7633046875,2.425093642026186,-0.8715560397922992,-1.0049084253139793
1733512136224323800,7.77332373046875,3.666579557275772,-0.6788467715471983,-1.5770963186062872
1733512136234341600,7.783341552734375,4.5067865190804,-0.30138766962885855,-1.837412996047735
1733512136244360700,7.793360595703125,4.672002800244092,0.12960603860020636,-2.0226311778850854
1733512136254379800,7.8033798828125,4.754877482807636,0.5639432120382786,-2.7206214797109363
1733512136264397600,7.8133974609375,4.893610246193409,0.952244025966525,-3.5333535746127365
1733512136274416600,7.823416748046875,4.780970539963245,1.172820375302434,-4.274422116795182
1733512136284434400,7.833434326171875,4.117582618832588,1.3792530484735965,-4.763676875334978
1733512136294453500,7.84345361328125,3.150343852829933,1.4824118096530436,-4.70930757176578
1733512136304471800,7.853471923828125,2.326089662438631,1.5651082130402325,-4.491723389983177
1733512136314490600,7.86349072265625,1.6634522674143313,1.546563671568036,-4.127861436262727
1733512136324508700,7.8735087890625,1.0000994175970555,1.4765221670925617,-3.70474123788774
1733512136334527700,7.88352783203125,0.3632821080058813,1.3470318638265133,-3.2217911324501034
1733512136344546600,7.893546630859375,-0.14318331305384635,1.297792324361205,-2.6894091798454522
1733512136354564600,7.903564697265625,-0.3298293357372284,1.330180097746849,-2.0273009232617913
1733512136364583700,7.913583740234375,-0.2917424739271402,1.425821322903037,-1.5162131030984223
1733512136374601700,7.923601806640625,-0.10355568807516247,1.4951409428447484,-1.2077214466832578
1733512136384620500,7.93362060546875,0.15111472710762172,1.3923176972299813,-0.9283778510801494
1733512136394638600,7.943638671875,0.508020249286294,1.1402490620434285,-0.6660647391244768
1733512136404657700,7.95365771484375,0.8810627038061618,0.7224579497367143,-0.5926726090468466
1733512136414675700,7.96367578125,1.1413940673600882,0.23857319379746914,-0.5921610062628984
1733512136424694500,7.973694580078125,1.3996248053729534,-0.11417816784381865,-0.4853082128711044
1733512136434712600,7.983712646484375,1.7055261530339716,-0.38689153165221213,-0.30262554086074234
1733512136444731600,7.993731689453125,2.0362533143937585,-0.7230266895353794,-0.10549173417165875
1733512136454750500,8.00375048828125,2.4006582889497277,-0.9318237537503242,-0.06656725249364971
1733512136464768800,8.013768798828124,2.5483546955138445,-1.0005956766813993,-0.03453472228646278
1733512136474787800,8.023787841796874,2.4427894577145577,-0.9598001404345035,0.03675225220546126
1733512136484805600,8.0338056640625,2.1407237426936625,-0.890635418793559,0.16928601482063532
1733512136494824700,8.04382470703125,1.7405659022331237,-0.7597165440291166,0.376588602694124
1733512136504842500,8.053842529296874,1.2833639860361814,-0.5797083519250155,0.5415085312597453
1733512136514861600,8.063861572265624,0.918868848978728,-0.4099591035068035,0.7568886271268129
1733512136524879600,8.073879638671874,0.7464778538800776,-0.33179858998358247,0.9385719128362834
1733512136534898400,8.0838984375,0.8187896413750946,-0.35803543952405453,0.9802332721322774
1733512136544916700,8.093916748046874,1.038565195722133,-0.4816618191927671,0.867737796678394
1733512136554935800,8.103935791015624,1.2351656261868773,-0.631962855297327,0.7179366729199886
1733512136564954600,8.11395458984375,1.3056683184333144,-0.7570739205658436,0.5162136387445032
1733512136574972700,8.12397265625,1.2784008106708526,-0.9457494032502174,0.31568273696303367
1733512136584991700,8.13399169921875,1.0836959846943617,-1.1483341688215731,0.09115911130607128
1733512136595009500,8.144009521484374,0.8271750462740659,-1.34707511844635,-0.0891523015283048
1733512136605028600,8.154028564453125,0.34225510206818577,-1.4877391421556472,-0.04952127901613712
1733512136615046700,8.164046630859374,-0.505427894705534,-1.449246037632227,0.1580991426348686
1733512136625065500,8.1740654296875,-1.3284686176538467,-1.1199369263768195,0.28849647774323817
1733512136635083800,8.184083740234374,-1.733144227799773,-0.6071446403831243,0.13007964746132492
1733512136645102800,8.194102783203125,-1.6350293060064316,-0.10582301195263862,-0.2245508059248328
1733512136655120600,8.20412060546875,-1.3304273505061863,0.07432955705821513,-0.6220397194370627
1733512136665139700,8.2141396484375,-1.3076827269956468,-0.29088848744630813,-0.9501013148494064
1733512136675158800,8.22415869140625,-2.3501824856877325,-1.1852175000607967,-0.7987842335700989
1733512136685176600,8.234176513671875,-5.629008926045894,-1.9646470448195934,-0.12630889675095677
1733512136695195600,8.244195556640625,-8.644723359155654,-2.282817506945133,0.5027757727615535
1733512136705213400,8.25421337890625,-4.405596135364473,-2.588051915130019,0.05796352866888046
1733512136715232500,8.264232421875,1.242905134397745,-2.3548855488121507,-0.21935689054355023
1733512136725250800,8.274250732421875,6.460777729851007,-2.4108435828775168,-0.1475407776109874
1733512136735269600,8.28426953125,10.103211856907606,-2.9972061319947243,-0.5290037083432078
1733512136745287700,8.29428759765625,11.230994236087799,-3.7576638497799633,-1.2289540581956504
1733512136755306800,8.304306640625,11.584379803979395,-3.8123996485739946,-1.9151089607991276
1733512136765325600,8.31432568359375,10.758947217458486,-3.0184792216479774,-2.225927452726662
1733512136775343600,8.324343505859375,8.877565900346637,-1.3097849599719047,-1.0926613814383745
1733512136785362700,8.33436279296875,7.5982836306661365,0.9133072693288325,1.2555319762587547
1733512136795380500,8.34438037109375,6.883358414521813,3.2155361637085673,3.0830215441852804
1733512136805399600,8.354399658203125,5.838996661350131,4.816963059842586,4.013524570725858
1733512136815417600,8.36441748046875,4.603733566138148,5.171843834728002,4.009673448255658
1733512136825436700,8.374436767578125,3.436633322048187,4.495211232098937,3.187358993755281
1733512136835454700,8.384454833984375,2.1162878050953147,3.1670383825212713,2.525706225854158
1733512136845473500,8.3944736328125,0.6621697775125504,1.4983908845514058,2.338270952489227
1733512136855491600,8.40449169921875,-0.35135493884682656,0.24693185681998728,1.7485906571261585
1733512136865510700,8.4145107421875,-0.8401356501340865,0.1696411118686199,0.5039136907503009
1733512136875529500,8.424529541015625,-0.9696844055891036,0.9462193588495253,-0.841180044620484
1733512136885547500,8.434547607421875,-0.5891811136692762,2.1289888812363147,-2.4195032746732235
1733512136895566600,8.444566650390625,-0.1848737523138523,3.3602813192516563,-3.995520419740677
1733512136905584600,8.454584716796875,-0.06564297725558281,4.234192982259392,-4.686490175279975
1733512136915603700,8.464603759765625,0.05046177473664284,4.817697219336033,-5.514689303904771
1733512136925621800,8.474621826171875,0.057820905327796934,5.346418895867466,-6.912748759657144
1733512136935640600,8.484640625,0.4598259080249816,4.934588153269886,-8.04084093543887
1733512136945659000,8.494658935546875,0.3810579301279038,3.5307372546344995,-8.33963741953075
1733512136955678000,8.504677978515625,-0.4286616120196879,2.006744895836711,-7.3314540641993275
1733512136965695700,8.51469580078125,-1.4219943119607865,0.08620353472530841,-5.681903480887413
1733512136975714800,8.52471484375,-2.211377241587639,-2.1683482472002504,-4.358952749872207
1733512136985734000,8.53473388671875,-2.908945664739609,-3.8543478619873524,-3.2132147350236773
1733512136995752000,8.544751953125,-3.4121886166214943,-4.647959661355614,-1.7785560256704687
1733512137005771000,8.55477099609375,-3.535571835184097,-4.67280944045186,0.12934519570693373
1733512137015788800,8.564788818359375,-3.26506562603116,-4.10821682459414,1.9315514154255389
1733512137025808000,8.574807861328125,-2.986799304270744,-3.31972952863276,3.3793224120691416
1733512137035826000,8.584825927734375,-2.682182735723257,-2.303942712560296,4.83450631531775
1733512137045844700,8.5948447265625,-2.06682760861665,-0.4616378528177738,6.7378966351419685
1733512137055862800,8.60486279296875,-1.7918660274900495,2.169352455806732,9.359687153744696
1733512137065881900,8.6148818359375,-2.616085000437498,3.588354161822796,10.131346064502
1733512137075900700,8.624900634765625,-3.814641582281887,3.326545638388395,7.489283742243051
1733512137085919000,8.6349189453125,-4.872478610837459,3.5196623183906075,5.18984477084279
1733512137095938000,8.64493798828125,-6.035045887672901,3.9657758543401953,2.731006680124998
1733512137105955800,8.654955810546875,-7.793201222610473,3.6019822896808384,-0.4494808204255998
1733512137115975000,8.664974853515625,-10.8673900565207,2.8919612121909855,-3.145683167542517
1733512137125992700,8.67499267578125,-14.669162512618302,2.8418875599890945,-3.956857803869247
1733512137136011800,8.68501171875,-15.070545510959624,4.7799265838682645,-2.024032715246081
1733512137146029800,8.69502978515625,-12.11140578250885,7.239480129379033,-0.621367811524868
1733512137156049000,8.705048828125,-8.886632419377564,8.236419621640444,-0.23122370781749485
1733512137166067000,8.71506689453125,-6.176980661970377,7.012936396071314,-0.241029647038877
1733512137176086000,8.7250859375,-3.7683483254015444,4.5397892094939944,-0.2131450302913785
1733512137186104800,8.735104736328125,-1.6692533549085258,2.649555892884731,-0.07946385120674967
1733512137196123000,8.745122802734375,-0.016204408086836337,1.9624165092885493,-0.08472630177959799
1733512137206142000,8.755141845703125,1.452617559891939,1.6471271555572746,0.1760254060782492
1733512137216159700,8.76515966796875,3.0568051529109477,1.2612836716532707,0.956515858066827
1733512137226178800,8.7751787109375,4.693632740511,1.1462316435843705,1.8778300543710589
1733512137236197000,8.785197021484375,6.136123750925064,1.548639308798313,2.3138749085098502
1733512137246216000,8.7952158203125,6.943906114464998,1.849810120806098,1.9941618931174276
1733512137256234000,8.80523388671875,6.7852820711731905,1.6665379584699869,1.2571094547085464
1733512137266253000,8.815253173828125,5.942187571233511,0.9409691832363605,0.3849861364223063
1733512137276270800,8.825270751953125,5.039677590250968,0.0437444491803646,-0.26988413173183795
1733512137286290000,8.8352900390625,4.315575380438566,-0.41213001780509945,-0.8205803241841495
1733512137296309000,8.84530908203125,3.7882103792130946,-0.39765257964134215,-1.5747667066149413
1733512137306326800,8.855326904296875,3.055747168290615,-0.41868893792927264,-1.7427388623580335
1733512137316345900,8.865345947265626,2.0838298890829083,-0.7859984017550945,-1.473818022700399
1733512137326364000,8.875364013671875,1.4298539394199847,-1.047885251122713,-1.9480575829379259
1733512137336383000,8.885383056640626,1.165046818691492,-1.0239531713932752,-2.5898680246412753
1733512137346401000,8.895401123046875,0.7872089465886354,-1.0905442431539296,-2.8966090379968286
1733512137356419800,8.905419921875,0.5516045760015026,-1.1474380967646836,-2.9440827368333933
1733512137366438000,8.91543798828125,0.5790455041021109,-1.0225614247739314,-2.5056191311150786
1733512137376457000,8.92545703125,0.8240536993831395,-0.9493991579294204,-1.799724047514051
1733512137386474800,8.935474853515625,1.2995891446501016,-0.8598895673960447,-1.3374711315378547
1733512137396493800,8.945493896484376,1.7945581891834734,-0.5959791032463312,-1.2376948524035514
1733512137406513000,8.955512939453126,2.1610469842761755,-0.23795301607251165,-1.3956361741282044
1733512137416531000,8.965531005859376,2.3978262803941965,0.08053601048290729,-1.710797955957055
1733512137426550000,8.975550048828126,2.543655724042654,0.2824456532716751,-1.96300731478855
1733512137436567800,8.98556787109375,2.530732529583573,0.28829963999688624,-1.9894507928170262
1733512137446587000,8.9955869140625,2.3625807794898748,0.3858423148602247,-1.8351383291140198
1733512137456605000,9.00560498046875,2.142584275868535,0.5101601839244365,-1.5129982327051459
1733512137466623700,9.015623779296876,1.74488084282279,0.4996446351289749,-1.1526301124498248
1733512137476641800,9.025641845703126,1.2797276753604412,0.29839900920689105,-0.8568820561431347
1733512137486660900,9.035660888671876,0.9736327048234641,-0.0021896189987659453,-0.7067503852561116
1733512137496679000,9.045678955078126,0.8934140897266566,-0.29532734667658805,-0.5585726249158383
1733512137506698000,9.055697998046876,1.0781206687800586,-0.4979050979852676,-0.4531790904216468
1733512137516717000,9.065717041015626,1.4681005218364298,-0.7393038705974817,-0.4758775367029011
1733512137526734800,9.07573486328125,1.7980695583052932,-0.964442997804284,-0.5209636097505689
1733512137536754000,9.08575390625,1.9791366118125617,-1.018082233533263,-0.3147306969352066
1733512137546772000,9.09577197265625,1.9106572420872747,-1.0163210690796374,0.05219283631294965
1733512137556790800,9.105790771484376,1.652420731920749,-1.011556631156802,0.48180721901282664
1733512137566808800,9.115808837890626,1.28365113241449,-1.0340572167783975,0.9718855688951908
1733512137576828000,9.125827880859376,0.8568525377877056,-1.0668395424395798,1.4276337791524827
1733512137586846000,9.135845947265626,0.4534126069165766,-1.113943823441863,1.6024800584487615
1733512137596865000,9.145864990234376,0.13059914129078387,-1.0598054060190916,1.7292767387166619
1733512137606884000,9.155884033203124,0.018139613933116198,-1.03114337515831,1.703165707512945
1733512137616902000,9.16590185546875,0.15032164050117133,-0.9564362169593572,1.6137787204459308
1733512137626921000,9.1759208984375,0.13014306808635592,-0.8362269522577523,1.6085060407400131
1733512137636938800,9.185938720703126,-0.2163518635086715,-0.7108680497080088,1.7970060207270084
1733512137646957800,9.195957763671874,-0.7788666501790285,-0.6192442434996366,1.9511893050923943
1733512137656976000,9.205975830078126,-1.4134173300124704,-0.6821499047458172,1.905469902577251
1733512137666994700,9.21599462890625,-1.8984505253344772,-0.8642641292184591,1.645906966112554
1733512137677013000,9.226012939453126,-2.0599666368059815,-1.090354858061671,1.0312804455414413
1733512137687032000,9.236031982421874,-2.01546990795359,-1.310282388100028,0.1116414889730513
1733512137697049900,9.2460498046875,-1.6683597670696675,-1.514670403701067,-0.823666745892167
1733512137707069000,9.25606884765625,-0.9682767307482659,-1.7305805147916078,-1.3497349853053688
1733512137717088000,9.266087890625,0.08493482996374369,-1.9256962596565483,-1.2441308768004178
1733512137727105800,9.276105712890624,1.1142691098734736,-1.9707564676105975,-0.7452418823443353
1733512137737124900,9.286124755859374,1.6525503496497869,-2.075802065449953,-0.5044045430071652
1733512137747143000,9.296142822265624,1.7304294158831237,-2.3001164322704075,-0.5458323858082295
1733512137757161700,9.30616162109375,1.385274208459258,-2.4941215855449435,-0.297414382083714
1733512137767180000,9.316179931640624,0.44738487105965613,-2.298202707603574,0.26590719092488285
1733512137777198800,9.32619873046875,-1.0093177661888302,-1.6484072584956884,0.7611062448218464
1733512137787217000,9.336216796875,-3.699754097124934,-0.44120472111999987,1.4548475109010934
1733512137797236000,9.346236083984374,-10.675885487890243,1.919413818386197,3.431771853491664
1733512137807253800,9.356253662109374,-9.743373167353868,3.623947453251481,4.255356181797385
1733512137817272800,9.36627294921875,-1.0625174414567649,4.513243732395768,4.776634264324605
1733512137827292000,9.3762919921875,5.568240276828408,4.483536576396227,4.994229844284058
1733512137837310000,9.38631005859375,9.340428326523304,4.041190868547559,4.255629445780813
1733512137847329000,9.3963291015625,10.662061545199155,2.5290070209652185,2.6625781638041137
1733512137857346800,9.406346923828124,9.423111870428919,0.3323334275126457,0.38641865344345566
1733512137867366000,9.416365966796874,7.732420298433303,-1.410026372399926,-0.7880209936238824
1733512137877384000,9.426384033203124,7.007413833257556,-2.5419968509197233,-0.6600945786736905
1733512137887402800,9.43640283203125,6.475355121257901,-3.381201357683539,-0.5004609199479222
1733512137897420800,9.4464208984375,6.337653454485535,-3.4408471403509377,-0.8324323822803795
1733512137907439900,9.45643994140625,6.6180328228771685,-2.8272809424877163,-1.0225577715121208
1733512137917458000,9.4664580078125,6.309447935220599,-1.7808336152136324,-0.7746155686058104
1733512137927477000,9.47647705078125,5.398695026549697,-0.4132698354899883,-0.725167354825884
1733512137937495000,9.4864951171875,5.267060696992278,1.3291092536449431,-1.6556662897132337
1733512137947514000,9.49651416015625,5.127333077350259,2.771527491083741,-2.8032503708198666
1733512137957533200,9.506533203125,4.234630789154767,3.389491631644964,-3.319874490061402
1733512137967551000,9.516551025390624,3.16010303030014,3.330232802468538,-3.7118513621538876
1733512137977570000,9.526570068359375,2.0064082112282513,3.2307471768438814,-4.2013273622289296
1733512137987587800,9.536587890625,1.2680927671462296,3.3138726192981003,-5.030048761162162
1733512137997607000,9.54660693359375,0.8193138113796711,3.0529987463653088,-5.798581064331531
1733512138007625200,9.556625244140625,0.37336101894974705,2.0753946536928414,-4.509764658108353
1733512138017644000,9.56664404296875,-0.5369733720481396,0.5000888717651367,-2.2104649490483106
1733512138027662000,9.576662109375,-1.723092204862833,-0.6052244859755039,-0.8428713587082922
1733512138037681200,9.58668115234375,-2.8700211830615996,-0.8197469420999288,-0.07154431025385856
1733512138047699000,9.596698974609374,-3.749622582143545,-0.7922592157155275,0.21797829566672444
1733512138057718000,9.606718017578125,-4.130949465405941,-0.5932488014996051,0.07502879136875272
1733512138067737000,9.616737060546875,-4.121266275781393,-0.41533670489192004,-0.0809114196665585
1733512138077755000,9.6267548828125,-3.8649125106215476,-0.33546763388514517,-0.10166983779594302
1733512138087774000,9.63677392578125,-3.699853173585236,-0.5510165104478597,0.35547479525581
1733512138097792000,9.6467919921875,-3.5880911269724365,-0.8702911344230174,1.1196335595160722
1733512138107811000,9.65681103515625,-3.3762662393689156,-0.774568660724163,1.995653592979908
1733512138117829000,9.6668291015625,-3.1349580676496025,0.050502691268920895,2.688702492880821
1733512138127848000,9.676847900390625,-2.8756410687699914,1.3968155931711197,2.8370640853554008
1733512138137866000,9.686865966796875,-2.6170895013049242,2.6857401359438895,1.9589291055642066
1733512138147885000,9.696885009765625,-2.6813866169095038,3.0673037505716083,0.47718408925682304
1733512138157904000,9.70690380859375,-2.831766855730116,2.6113094565987587,-0.8300337967060506
1733512138167922000,9.716921875,-2.855687537282705,1.2939350644111633,-1.5094218355230986
1733512138177941000,9.72694091796875,-2.9762466383352875,-0.7619599390417336,-1.4695871071323752
1733512138187959000,9.736958984375,-3.407984735190868,-2.9121289709508416,-0.8216201886259019
1733512138197978000,9.74697802734375,-4.012410472004115,-4.094190637329221,0.023442981038242577
1733512138207996000,9.756995849609375,-4.550912953315675,-2.6726965299755334,0.4047321626387536
1733512138218015000,9.767014892578125,-4.822745442636311,1.89790458188951,-0.2827561805255711
1733512138228033000,9.777032958984375,-5.269183095973729,6.497436604684591,-1.0845488021314142
1733512138238051800,9.7870517578125,-6.312642347347736,9.69609119169712,-1.5978301868163047
1733512138248070000,9.79706982421875,-7.512922391983866,11.231797369164228,-1.991634420466423
1733512138258089000,9.8070888671875,-8.882247336161136,10.033977577161789,-1.5143607532300054
1733512138268107800,9.817107666015625,-9.967762937498092,6.149978673276305,-0.017489187200367448
1733512138278126000,9.8271259765625,-9.48719242067337,3.112418903583288,1.933793787524849
1733512138288145200,9.837145263671875,-7.293699210822582,2.0685943260282276,3.3980548773288723
1733512138298163000,9.847162841796875,-4.91649194008708,1.7742969069212675,3.7911236363112923
1733512138308182000,9.85718212890625,-2.845491721960902,1.5831354526400565,3.7151278996065256
1733512138318200000,9.867199951171875,-0.970173212019354,1.2461930700272321,3.721082424096763
1733512138328219000,9.877218994140625,1.1181329456947744,0.6899515184074639,3.78099124161452
1733512138338237000,9.88723681640625,3.5362463734447953,0.16699790388345717,3.9007153531476852
1733512138348256000,9.897256103515625,6.016129590278863,-0.2635743640631437,4.222600744143128
1733512138358274000,9.907274169921875,8.266431313544512,-0.5251736286610365,4.347603965122998
1733512138368293000,9.917293212890625,9.779486098742485,-0.7788999679267407,3.535036413133144
1733512138378312200,9.927312255859375,9.753128837692737,-1.1643898160874844,2.2086934093311426
1733512138388330000,9.937330078125,7.320638655674457,-1.3581483011245727,1.6186111090384423
1733512138398349000,9.94734912109375,4.843778586053848,-1.1303852551549673,0.8769092373885213
1733512138408366800,9.957366943359375,3.768024500274658,-0.6780401313394308,-0.626283932878077
1733512138418386000,9.967385986328125,3.1519431047201154,-0.23209786030352114,-1.975691878186166
1733512138428404000,9.977404052734375,2.4814006356596945,0.29096038363873955,-3.2605648074805735
1733512138438423000,9.987423095703125,1.827441052609682,0.5450321753412485,-4.22423740543425
1733512138448441000,9.997441162109375,0.9787854114115238,0.5572732327550649,-4.719218432666361
1733512138458460200,10.007460205078125,-0.05569673451436683,0.4348994834959507,-4.718040913319587
1733512138468478000,10.01747802734375,-0.7366086401641369,0.24037936643660068,-3.776142924800515
1733512138478497000,10.0274970703125,-0.8186141386777162,-0.005798457145690918,-2.4423800001308322
1733512138488516000,10.03751611328125,-0.5269774632126093,-0.03206979347765446,-1.213980945469439
1733512138498534000,10.047533935546875,0.07104626107122748,0.2956242837965488,-0.2696870017245412
1733512138508553000,10.057552978515625,0.8170137177437543,0.6540718112528324,0.0693505996018648
1733512138518571000,10.067571044921875,1.5586346331119536,0.9787935947179793,0.01796513414904475
1733512138528590000,10.077590087890625,2.166765946444869,1.4038058904498816,-0.1381163850530982
1733512138538608000,10.087608154296875,2.586224699702859,1.7659931889563798,-0.36879663364365695
1733512138548627000,10.097626953125,2.8135885172218082,1.940210522699356,-0.7696502012833952
1733512138558645000,10.10764501953125,2.7300211762189863,1.723369852760434,-1.4707298474267125
1733512138568664000,10.1176640625,2.438036710229516,1.03754038271904,-2.302810201399028
1733512138578681900,10.127681884765625,2.023969586881995,0.48597325265109537,-2.8307886583477258
1733512138588701000,10.137700927734375,1.5623989540815353,-0.07850596596002578,-3.1662998391136523
1733512138598720000,10.147719970703125,0.8897779251813888,-0.38858781417608257,-3.3059923874422905
1733512138608738000,10.157738037109375,-0.10660685580670833,-0.39031975253522394,-3.0591710052594543
1733512138618757000,10.167757080078125,-0.9801954243399202,-0.24659692577719686,-2.1903080039434135
1733512138628775200,10.177775146484375,-1.3900054747648536,-0.3257674931257963,-1.1624331290617584
1733512138638794000,10.1877939453125,-1.1576825735338032,-0.7055833873033523,-0.3753654906399548
1733512138648812000,10.19781201171875,-0.7738508678436279,-1.2042846041023731,0.1702383471094072
1733512138658831000,10.2078310546875,-0.34959041339233515,-1.5938818875819443,0.6449507855556905
1733512138668849000,10.217848876953125,0.04206058774664998,-1.7968191198527812,1.0197137802578509
1733512138678868000,10.227867919921875,0.3707594581492245,-1.906772947999835,1.2884864436164498
1733512138688886000,10.237885986328125,0.6560125700570643,-2.050969822010398,1.427195826126635
1733512138698905000,10.247905029296875,0.9011673342019318,-2.2536972109228373,1.52874992858842
1733512138708924200,10.257924072265626,1.0361823922388256,-2.391601706790924,1.589668799931556
1733512138718942000,10.26794189453125,1.0012975413404404,-2.3519056562185288,1.5392738068208098
1733512138728961000,10.2779609375,0.8522944360919297,-2.16612998662889,1.32658368069008
1733512138738979000,10.28797900390625,0.6199146901071071,-1.9521195716798305,0.9399819257646799
1733512138748998000,10.297997802734375,0.37387773630023,-1.7435563162207603,0.5630030085787177
1733512138759016000,10.308015869140625,0.1195528466194868,-1.669185842630267,0.3310737828403711
1733512138769035000,10.318034912109376,-0.10207549598738551,-1.7664339184612035,0.34083398322388525
1733512138779053000,10.328052978515625,-0.2205529684603214,-1.9077561138182877,0.4428102566204965
1733512138789072100,10.338072021484376,-0.3050685500986874,-2.0596973183453082,0.6434314670339226
1733512138799090000,10.34808984375,-0.3888319981954992,-2.1157249105155467,0.8840406967036426
1733512138809109000,10.35810888671875,-0.45787484702244396,-2.059798440632224,1.2362490375094115
1733512138819128000,10.368128173828126,-0.45203065103888507,-1.9382775088101625,1.5193703980855642
1733512138829145900,10.378145751953125,-0.46918227684795855,-1.9808610975176095,1.7599007173001766
1733512138839165000,10.3881650390625,-1.0554740988165139,-2.1440075866699217,2.3014545490063725
1733512138849183000,10.398182861328126,-2.7461194935828446,-2.2329560361891985,3.205619165328145
1733512138859201800,10.408201904296876,-8.174073932364582,-2.087751446440816,4.2790170433700085
1733512138869220000,10.41822021484375,-12.937464976495503,-2.032808142375946,3.6815830651402472
1733512138879239200,10.4282392578125,-8.50095786229968,-1.136277235803008,2.285958727580309
1733512138889257000,10.438257080078126,-1.0104781882703304,1.4875409892350435,2.2807149817079306
1733512138899276000,10.448276123046876,3.3537872810572384,3.658586220434308,2.237369176456332
1733512138909294000,10.458294189453126,7.257903674820065,3.981981139209866,0.42998131631612774
1733512138919313000,10.46831298828125,9.774303727668523,4.712709489163756,-1.374836839466542
1733512138929332000,10.47833203125,11.649496711534262,6.654537383931875,-1.6715759526371954
1733512138939350000,10.48835009765625,12.340173621606827,6.960227134668827,-1.089843255277723
1733512138949368800,10.498368896484376,10.19145478850603,3.625097792330384,-0.6966027929902077
1733512138959387000,10.508386962890626,8.351369942900538,-0.421028779053688,-1.4058167918808757
1733512138969406000,10.518406005859376,8.31531429465711,-2.883174679145217,-2.3142098395526407
1733512138979424000,10.528424072265626,8.84124780177474,-3.096937256813049,-2.215536260963231
1733512138989442800,10.53844287109375,9.378962347579002,-2.4865391675919293,-2.4240000015705823
1733512138999460900,10.5484609375,9.708856565245986,-1.196958791258931,-2.9575159266412254
1733512139009480000,10.55847998046875,9.265402603894472,0.6238719033002853,-3.4533445106133818
1733512139019498000,10.568498046875,7.954681824377179,2.2182406976163387,-3.816258662089705
1733512139029517000,10.57851708984375,6.3397232464969155,3.7734710752427576,-3.721799924716353
1733512139039535900,10.588535888671874,4.707921670365334,4.597916404291987,-3.2435838620632884
1733512139049554000,10.598553955078126,3.146237586554885,4.310421650937199,-2.5154765082627533
1733512139059573000,10.608572998046874,1.5829904912114143,3.417569140616059,-2.332141217562556
1733512139069591000,10.618591064453126,0.4361702340841293,2.2909148886829613,-2.242161086907983
1733512139079609900,10.62860986328125,-0.08865209692120551,1.115523201587796,-2.4526158552020787
1733512139089628000,10.6386279296875,-0.3238017460107803,-0.22579846789836883,-3.1876620683550834
1733512139099647000,10.64864697265625,-0.7484077990293503,-1.7810633323162792,-2.9328105244517326
1733512139109665000,10.6586650390625,-2.6884713144734502,-1.9696540593266485,-0.9354173943281173
1733512139119684000,10.66868408203125,-5.058191736584901,-0.39030338592231273,1.0819159694097935
1733512139129702000,10.678701904296876,-9.8813261785388,0.21595979545116423,2.80517432461977
1733512139139721000,10.688720947265624,-17.06739620476961,-0.9124936148583889,4.354389679740369
1733512139149740000,10.698739990234374,-15.021736764127015,-1.7546692463874816,3.2093051603645084
1733512139159757800,10.7087578125,-9.27461817600727,-1.4071552008777857,2.4366898256652054
1733512139169777000,10.71877685546875,-5.510350982439518,-0.2885059762239456,1.7198755809038877
1733512139179795000,10.728794921875,-4.3601510197460644,0.6636819356411695,1.1343082738175987
1733512139189813800,10.738813720703124,-4.080209458249807,1.6542524773925542,0.44820758561939
1733512139199832000,10.74883203125,-3.825604874844849,3.150315795779228,-0.8766858038961887
1733512139209851100,10.75885107421875,-3.648813891221583,4.153849279478192,-2.3568609405383465
1733512139219869000,10.768868896484374,-3.5458977066263553,4.308831751397252,-3.8047269219890234
1733512139229888000,10.778887939453124,-3.573342470651865,3.980051047930121,-4.905041156268119
1733512139239905800,10.78890576171875,-3.617800328798592,2.765887439370155,-4.918761638584733
1733512139249924900,10.7989248046875,-4.009232718750834,0.68052201128304,-3.657763213613629
1733512139259944000,10.80894384765625,-4.601303708642721,-1.136551376569271,-2.3203607633978125
1733512139269961700,10.818961669921874,-4.970138190078735,-0.6669739629238843,-2.1238537103049455
1733512139279980800,10.828980712890624,-5.090914441013336,2.8403590352475643,-2.8871389066010713
1733512139289999000,10.8389990234375,-5.078584536272287,6.840408330589533,-2.8371242911100385
1733512139300018000,10.849017822265624,-5.147796604186296,9.757463067504762,-2.070867531657219
1733512139310036000,10.859035888671874,-5.576911659061908,10.701742398202418,-0.7186544658005237
1733512139320055000,10.869054931640624,-5.96218172699213,8.62878520078957,2.33929576549232
1733512139330072800,10.87907275390625,-5.261828641557694,5.022289233076572,4.8275551810055966
1733512139340092000,10.889091796875,-3.8199171845972537,2.355423893472552,5.088295198425651
1733512139350109700,10.899109619140624,-1.944923230434954,1.077989882007241,4.596486663749814
1733512139360128800,10.909128662109374,0.3565441780529916,0.6756839236021042,4.341722213608026
1733512139370147800,10.91914794921875,2.9409365477621554,0.9944336469203233,4.306721627375484
1733512139380166000,10.929165771484374,5.439108285480738,1.6761971826970576,4.3848885706394904
1733512139390185000,10.93918505859375,7.610048302739858,1.997788851442933,4.216753771680593
1733512139400203000,10.949203125,9.091088824039698,1.3070757010132075,3.527345274108648
1733512139410221800,10.959221923828125,8.889411236441134,0.029377485653758046,2.286568822302669
1733512139420240000,10.969239990234374,7.123572945785522,-1.0699345858454703,1.4122092693969606
1733512139430259000,10.979259033203125,5.217264692687988,-1.7517080584943294,0.9614574061222374
1733512139440276700,10.98927685546875,3.7519665149211883,-2.0513713885486125,0.0990706150829792
1733512139450295800,10.9992958984375,2.551311791753769,-2.4923335330843925,-0.5864626484908163
1733512139460314000,11.009314208984375,1.8049661859512327,-2.9462013364225625,-1.3151754208385944
1733512139470333000,11.0193330078125,1.8660779495179651,-3.076053458738327,-2.1688157185815276
1733512139480352000,11.02935205078125,2.397250526332855,-2.902963667720556,-2.5874162475749847
1733512139490370000,11.0393701171875,2.7471657877653834,-2.6022172186046837,-2.800527960118651
1733512139500388900,11.049388916015625,3.127861387386918,-2.261104856830835,-3.1235797645449637
1733512139510407000,11.059406982421875,3.536058157396316,-1.6594821947395801,-3.558406767326593
1733512139520426000,11.069426025390625,3.688793727171421,-0.6457774456381797,-3.9464007072627543
1733512139530444000,11.079444091796875,3.5238311285078523,0.4582826971709728,-4.256443684773147
1733512139540462800,11.089462890625,2.9455332279026507,1.1455319708824157,-4.186819821187854
1733512139550481000,11.09948095703125,1.993359344562888,1.2009931613415479,-3.4952103064402937
1733512139560500000,11.1095,1.2190250771164894,0.7812129210442305,-2.5927228295505045
1733512139570518000,11.11951806640625,0.8791197530448436,0.4730559034109115,-1.917220399995148
1733512139580536800,11.129536865234375,0.9883329919576644,0.3470423363447189,-1.4604662275657057
1733512139590556000,11.139555908203125,1.361504625815153,0.3199386408418417,-1.1125398018628359
1733512139600574000,11.149573974609375,1.7916063536405562,0.23131284740567207,-0.9867530292898415
1733512139610592800,11.1595927734375,2.3136755865454672,0.0033732758253812787,-1.175446047630906
1733512139620611000,11.169611083984375,2.7473762156456707,-0.20988252136409283,-1.6180099282748996
1733512139630630100,11.179630126953125,3.0129917301476,-0.31893735484480856,-2.015217979019135
1733512139640648000,11.18964794921875,3.045454322335124,-0.3303548209160566,-2.194603947571665
1733512139650667000,11.1996669921875,2.7473428978979584,-0.3393962055057287,-2.214278515987098
1733512139660684800,11.209684814453125,2.2096844661951063,-0.342211847448349,-1.9201602528393267
1733512139670703900,11.219703857421875,1.4551280814081429,-0.24884032078981397,-1.0543106079950928
1733512139680722000,11.229721923828125,-0.6882809548467397,-0.03718611357808113,0.48684594383239743
1733512139690740700,11.23974072265625,-4.519892668890953,0.4924199445724487,2.4229219970755276
1733512139700759800,11.249759765625,-7.201556349176168,1.1013380243688822,3.2276699613556263
1733512139710778000,11.259778076171875,-8.007821878412365,1.3306231653392313,2.900072914715111
1733512139720797000,11.269796875,-7.289784667727351,0.8343950606554746,2.862833025123179
1733512139730815000,11.27981494140625,-4.769074934986233,-0.16500819137096404,2.285290326799452
1733512139740834000,11.289833984375,-2.0517945823967456,-0.913532310256362,1.6367393247947095
1733512139750851800,11.299851806640625,-0.22515943934246896,-1.1697311771154404,1.2653202336929739
1733512139760871000,11.309870849609375,0.4045990377783775,-0.9389958373367786,0.8744992536373436
1733512139770889000,11.319888916015625,0.027910920232534407,-0.4597819958180189,0.36313013231456276
1733512139780907800,11.32990771484375,-0.578475449129194,-0.06607610797584057,-0.4797811200127005
1733512139790926000,11.339926025390625,-0.6750432876110076,0.019040800556540487,-1.7456639560244978
1733512139800945200,11.349945068359375,-0.23741584045588968,0.0846399386703968,-2.7365836034744975
1733512139810964000,11.3599638671875,0.4070307949699461,0.20086101051867006,-2.538714760509133
1733512139820982000,11.36998193359375,0.7885574385881423,0.06970598891079426,-1.1419333618685603
1733512139831001000,11.3800009765625,0.8575754452347755,-0.386936539837718,-0.4377779615417123
1733512139841019000,11.390018798828125,0.7549000836580991,-0.9203361450523138,-0.15252353445962072
1733512139851038000,11.400037841796875,0.5487549952566624,-1.529349501916766,0.0317291633464396
1733512139861055700,11.4100556640625,0.39416239943802356,-2.044641203510761,0.09868336933106184
1733512139871074800,11.42007470703125,0.3367262556441128,-2.4619728816121813,0.10006430229544638
1733512139881093000,11.430093017578125,0.3380763550788164,-2.75782162181437,0.05037131997421383
1733512139891112000,11.44011181640625,0.4486100289404392,-2.8432009806752205,0.02672770179733634
1733512139901130000,11.4501298828125,0.666921502084285,-2.8036984068483113,0.10098667783737182
1733512139911149000,11.460149169921875,0.9496972640931606,-2.5813439419239756,0.4420651373416185
1733512139921166800,11.470166748046875,1.0328462335534394,-2.2071453031063077,0.9555942131772637
1733512139931186000,11.48018603515625,0.8698755393594503,-1.6405664818674326,1.1984027064569294
1733512139941204700,11.490204833984375,0.15527254090681672,-1.0752215863376855,0.9869653568662703
1733512139951222800,11.500222900390625,-2.1597920157790185,-0.657653176870942,1.3559100206784904
1733512139961241900,11.510241943359375,-5.843036876651644,-0.24666356127262115,2.1472068211026487
1733512139971260000,11.520260009765625,-7.71209822589457,-0.3338917628705501,2.539395728510618
1733512139981279000,11.530279052734375,-5.109548998856544,-0.8786790235400199,2.1796489550240334
1733512139991296800,11.540296875,-1.1014829857975243,-1.2589134353905915,1.2317962958842514
1733512140001315800,11.55031591796875,2.66149416795969,-1.051020042017102,0.24534999445602296
1733512140011334000,11.560333984375,7.0909028483271594,0.4493909501850605,-0.4310663350738585
1733512140021352700,11.570352783203125,10.053700514763593,2.084002323040366,-0.3585829904042184
1733512140031370800,11.580370849609375,10.028272643518447,3.3990456419318913,0.5048844354785978
1733512140041389800,11.590389892578125,8.713612186464667,3.946345177683234,2.0107883260086177
1733512140051408600,11.60040869140625,7.405100315168499,3.153212686264515,2.7648443600580093
1733512140061427000,11.610427001953125,6.25135113556087,1.520233298525214,2.353486495669186
1733512140071446000,11.620446044921875,5.797026820626854,-0.030649405285716056,1.683123182567954
1733512140081463800,11.6304638671875,6.18702742421031,-1.2174205645292997,1.4200580832011998
1733512140091483000,11.64048291015625,7.112185874852537,-1.3241758888959885,2.3757323758773503
1733512140101501000,11.6505009765625,7.811696079722046,-0.9149170426130294,3.1199650811791417
1733512140111519700,11.660519775390625,7.85973091957271,-0.222135269215703,2.4455149371556937
1733512140121538000,11.6705380859375,7.32910019454956,0.5848392850726842,1.1240487456098198
1733512140131556900,11.680556884765625,6.323822497531771,1.1432324617683887,0.19732289952039717
1733512140141575000,11.690574951171875,5.314044566485285,1.6603145539104938,-1.0197831922322511
1733512140151594000,11.700593994140625,4.338007576999068,2.5683658024072646,-2.164039151829481
1733512140161613000,11.710613037109376,3.4852550218760965,3.874962779992819,-3.16526055919379
1733512140171630800,11.720630859375,2.7210148629426953,4.951314831665158,-4.3450060575842855
1733512140181650000,11.73064990234375,2.1304151146471497,5.187341848111152,-6.241138953626155
1733512140191667700,11.740667724609375,-0.31537297689411786,4.01257910656929,-8.44498872231841
1733512140201686800,11.750686767578125,-2.9314672931492325,2.474232643726468,-7.839965311872959
1733512140211705000,11.760705078125,-3.7183097445130344,1.6594968077868222,-6.154326931613683
1733512140221724000,11.770723876953125,-4.215630320608615,0.881067964503169,-5.127451735293865
1733512140231742000,11.780741943359375,-4.422969587230682,-0.2177776585280895,-4.2320583083182575
1733512140241761000,11.790760986328126,-4.695924943101406,-1.6292495535612106,-3.1816765642046927
1733512140251778800,11.80077880859375,-5.678562353765964,-2.449282326865196,-1.332436644501984
1733512140261798000,11.8107978515625,-7.055135953897238,-2.4692297208726406,0.8546998897984623
1733512140271817000,11.82081689453125,-7.973278388297557,-2.5339386321485042,2.6200287696272135
1733512140281834800,11.830834716796875,-7.674716882005334,-2.3526257871866223,3.643826458197832
1733512140291853800,11.840853759765626,-6.716276924008131,-1.70838271150887,4.381764301139116
1733512140301871900,11.850871826171876,-6.05643938883543,-0.3019914807409048,5.234114705201983
1733512140311891000,11.860890869140626,-5.651075796425342,1.5708119776397942,5.314209401658177
1733512140321909000,11.870908935546876,-5.25166965111494,3.022567952266335,3.269816035428643
1733512140331927800,11.880927734375,-4.961079269832372,3.2854028961390256,-0.053511079304665324
1733512140341945900,11.89094580078125,-4.776442541144788,2.8541724565446374,-2.500368078719079
1733512140351965000,11.90096484375,-4.728504147405922,2.4693752668231723,-3.7552076887995
1733512140361982700,11.910982666015625,-4.7715983159840105,2.317615264081955,-3.7875714967876672
1733512140372001800,11.921001708984376,-4.769011514361202,2.1414327677458522,-3.1448990314275025
1733512140382020000,11.93102001953125,-4.820272915042937,2.150814344075322,-2.6084897230029105
1733512140392039000,11.941038818359376,-4.776079260790348,3.6104508428186177,-2.598525962871313
1733512140402058000,11.95105810546875,-4.499598945663869,5.713382322734594,-2.140365576905757
1733512140412076000,11.961075927734376,-4.081941396608949,6.613634295657277,-1.2984051955625413
1733512140422094800,11.9710947265625,-3.4258009623885153,6.344617448279261,-0.13398542272821068
1733512140432113000,11.98111279296875,-2.547471482938528,5.85244475646615,1.3065085686497389
1733512140442132000,11.991132080078126,-1.5865009835503994,5.158519073730707,2.8124311638802286
1733512140452149800,12.001149658203126,-0.4973709911085665,4.291896983209252,4.252706544071436
1733512140462168800,12.0111689453125,0.9221838187456131,3.275388867124915,5.182777316674589
1733512140472187000,12.021186767578126,2.6240169624805447,2.0213930143922565,5.582700763857364
1733512140482206000,12.0312060546875,4.4540404327988625,0.6459025333225726,5.6303924893587824
1733512140492224000,12.04122412109375,6.142047295755147,-0.37415479967594145,5.211675494378805
1733512140502242800,12.051242919921876,7.36162649962306,-1.177833235028386,4.454337369918823
1733512140512262000,12.061261962890624,7.6827768543422215,-1.9673960512667894,3.9109617296129464
1733512140522280000,12.071280029296876,6.345408306396007,-2.4008681323081253,3.252204683153331
1733512140532298800,12.081298828125,4.24197472217679,-2.3010832314759493,2.1900560750089584
1733512140542316800,12.09131689453125,2.528327222007513,-2.0137527287721633,1.0561709950394929
1733512140552336000,12.1013359375,1.3370529061257839,-1.775334433275461,-0.003589256663620472
1733512140562354000,12.11135400390625,0.5075147109169512,-1.567893459844589,-1.3753985650025307
1733512140572373000,12.121373046875,-0.1837315234761685,-1.3641244529247283,-2.506521632912755
1733512140582390800,12.131390869140626,-0.8809130662024021,-1.127610529744625,-3.0070880590617657
1733512140592409900,12.141409912109374,-1.523790114223957,-0.8162474095463752,-3.4252228702396152
1733512140602428000,12.151427978515626,-1.7884207093417643,-0.4858177698284387,-3.6683521199062463
1733512140612446700,12.16144677734375,-1.6740391278803348,-0.278382057094574,-3.5396348468393084
1733512140622464800,12.17146484375,-1.3901087890088557,-0.050286418169736856,-3.234703513254225
1733512140632483800,12.18148388671875,-0.9585796587288379,0.16367548146247862,-2.8492694869339465
1733512140642503000,12.1915029296875,-0.2462345222055912,0.2965969282209873,-2.5573943265378474
1733512140652521000,12.20152099609375,0.4206581921756267,0.6505874762684106,-2.3668632791146633
1733512140662540000,12.2115400390625,0.9067021719753742,1.1620943986266852,-2.1538792846038937
1733512140672557800,12.221557861328124,1.357200206619501,1.5443547633469104,-1.9894960932634769
1733512140682577000,12.231576904296874,1.8144938927531242,1.7494927205324171,-1.8426963432781398
1733512140692594700,12.2415947265625,2.1661831781208516,1.7635206613630054,-1.702897558096051
1733512140702613800,12.25161376953125,2.2106951045423746,1.3911235190093516,-1.5898491249345241
1733512140712632000,12.261632080078124,2.0416583883076904,0.7784364420682192,-1.5583521629087627
1733512140722651000,12.27165087890625,1.8719710992097853,0.3039771016001701,-1.5884249373503028
1733512140732669000,12.2816689453125,1.8349883992493152,-0.007461421921849251,-1.6556024306967854
1733512140742688000,12.29168798828125,1.9650404280513525,-0.0653337651759386,-1.6725195170976221
1733512140752706800,12.301706787109374,2.2011428478211164,0.05662263545393943,-1.6216533993437885
1733512140762724900,12.311724853515624,2.4228503931440413,0.28184125763773915,-1.559838748204708
1733512140772744000,12.321743896484374,2.5291747787475582,0.36991876954138275,-1.3784814795792102
1733512140782761700,12.33176171875,2.5616502304166553,0.22715689677000045,-1.0740974046133458
1733512140792780800,12.34178076171875,2.5235668757379055,-0.01986030024588108,-0.6452336941502987
1733512140802799000,12.351799072265624,2.4377128851026297,-0.3386041783452034,-0.034684067629277705
1733512140812818000,12.36181787109375,2.3027327522486445,-0.6662544164776801,0.6808085731394589
1733512140822836000,12.3718359375,2.0560949099391697,-0.9368459658265114,1.5369707905754446
1733512140832855000,12.38185498046875,1.7190807772643864,-1.1792296578228474,2.2684046584501862
1733512140842872800,12.391872802734374,1.2300976752728223,-1.394722420284152,2.932552458037436
1733512140852892000,12.401891845703124,0.5834475384533405,-1.6132126109957694,3.3895839861035344
1733512140862911000,12.411910888671875,-0.13626374292373655,-1.8372353013932703,3.6117283154085276
1733512140872928800,12.4219287109375,-0.8541840492308139,-2.0343582944273946,3.555930732601881
1733512140882947800,12.43194775390625,-1.3956991563618182,-2.1131641201168296,3.17823080766499
1733512140892966000,12.4419658203125,-1.5962386798411607,-1.9525737451881169,2.5420541340649128
1733512140902985000,12.45198486328125,-1.6385130564689636,-1.5794816063076256,1.9902739457681773
1733512140913003000,12.4620029296875,-1.637354680214077,-1.1362135229170323,1.6339504247285426
1733512140923021800,12.472021728515625,-1.6439713218748568,-0.7167407411336898,1.3584106053225695
1733512140933039900,12.482039794921874,-1.6734904079563915,-0.34201953974664207,1.0695394490480423
1733512140943059500,12.4920595703125,-1.7157937184177339,-0.0946130511522293,0.7721288663566112
1733512140953077500,12.502077392578125,-1.677485176680982,0.028050036442279814,0.4743243159115314
1733512140963096600,12.5120966796875,-1.5962953784644602,-0.0016115268498659134,0.19106281621232626
1733512140973114400,12.5221142578125,-1.3410299930632115,-0.1891436847180128,-0.03157923348173499
1733512140983133400,12.532133544921875,-0.9027266924731433,-0.5792027404904365,-0.2530161451697349
1733512140993152500,12.542152587890625,-0.4698293425798416,-1.063629932743311,-0.2723378084942698
1733512141003170600,12.552170654296875,-0.157572488412261,-1.562473772883415,-0.1929652888327837
1733512141013189600,12.562189697265625,0.0479286029972136,-2.030427969241142,-0.21333865316733716
1733512141023207400,12.57220751953125,0.1351853000372648,-2.3871371285974976,-0.47142421055585143
1733512141033226500,12.5822265625,0.2508670043118298,-2.617251121607423,-0.8066605199031531
1733512141043244500,12.59224462890625,0.6557460280753672,-2.713020941579342,-1.029723571488261
1733512141053263400,12.602263427734375,1.0315548785686492,-2.5893197431087493,-0.8256770628012716
1733512141063281700,12.61228173828125,0.8784754637919366,-2.292583114156127,-0.29099793917015193
1733512141073300500,12.622300537109375,-0.05825096730813384,-2.2315981918394563,0.21907135160043834
1733512141083318500,12.632318603515625,-1.8529710690550505,-2.371664249655604,0.5015412625305354
1733512141093337600,12.642337646484375,-4.0296792944520705,-2.371192540490627,-0.022957827869802713
